File: Accelerated corrosion test data/2025-10-02_18-00-03/sample_1.csv
Frequency (Hz),Impedance (ohms),Phase (Radians),Temperature (C),Humidity (%)
10000.0,244.001,-12145,0,0
10260.325,255.038,-11831.2,0,0
10520.65,236.992,-11553.5,0,0
10780.975,232.579,-11272.1,0,0
11041.3,222.699,-11013,0,0
11301.625,218.661,-10757.3,0,0
11561.95,215.264,-10514.7,0,0
11822.275,215.148,-10276.3,0,0
12082.6,235.095,-10045.2,0,0
12342.925,215.05,-9872.19,0,0
12603.25,201.933,-9662.78,0,0
12863.575,195.932,-9461.99,0,0
13123.9,201.218,-9269.06,0,0
13384.225,189.096,-9099.66,0,0
13644.55,185.512,-8920.67,0,0
13904.875,184.832,-8742.47,0,0
14165.2,186.764,-8601.89,0,0
14425.525,213.247,-8451.63,0,0
14685.8,209.622,-8278.31,0,0
14946.175,179.589,-8176.36,0,0
15206.5,184.454,-8020.7,0,0
15466.825,180.276,-7891.2,0,0
15727.15,169.142,-7772.39,0,0
15987.5,162.897,-7638.82,0,0
16247.8,158.919,-7514.37,0,0
16508.125,158.279,-7391.87,0,0
16768.45,162.183,-7276.6,0,0
17028.775,162.865,-7170.99,0,0
17289.1,155.632,-7065.54,0,0
17549.425,154.334,-6960.8,0,0
17809.75,150.986,-6860.02,0,0
18070.075,147.968,-6762.8,0,0
18330.4,142.622,-6664.7,0,0
18590.725,138.91,-6570.56,0,0
18851.05,140.72,-6473.46,0,0
19111.375,137.185,-6391.92,0,0
19371.7,135.557,-6300.99,0,0
19632.025,132.872,-6212.65,0,0
19892.35,133.898,-6126.8,0,0
20152.675,142.28,-6039.6,0,0
20413.0,159.151,-5954.72,0,0
20673.3,167.97,-5913.38,0,0
20933.65,151.097,-5843.94,0,0
21193.975,155.209,-5778.22,0,0
21454.3,149.701,-5706.45,0,0
21714.625,137.592,-5641.33,0,0
21974.9,139.053,-5553.33,0,0
22235.275,174.757,-5512.73,0,0
22495.6,142.837,-5469.18,0,0
22755.925,127.714,-5400.94,0,0
23016.25,123.476,-5334.35,0,0
23276.6,119.97,-5273.65,0,0
23536.9,117.357,-5213.54,0,0
23797.225,112.707,-5152.23,0,0
24057.55,116.868,-5092.46,0,0
24317.875,113.547,-5043.74,0,0
24578.2,113.525,-4984.77,0,0
24838.525,111.47,-4934.54,0,0
25098.85,112.532,-4881.68,0,0
25359.175,107.906,-4832.34,0,0
25619.5,106.513,-4781.23,0,0
25879.8,105.352,-4730.27,0,0
26140.1,103.309,-4681,0,0
26400.5,103.039,-4631.21,0,0
26660.8,108.018,-4581.49,0,0
26921.1,114.685,-4536.11,0,0
27181.4,120.725,-4500.47,0,0
27441.8,113.793,-4467.26,0,0
27702.1,105.131,-4417.67,0,0
27962.4,113.616,-4370.38,0,0
28222.7,111.196,-4331.13,0,0
28483.1,123.724,-4287.53,0,0
28743.4,131.633,-4271.01,0,0
29003.7,116.073,-4234.99,0,0
29264,117.356,-4200.08,0,0
29524.4,106.049,-4164.35,0,0
29784.7,105.915,-4123.8,0,0
30045,101.183,-4090.87,0,0
30305.3,100.417,-4052.16,0,0
30565.7,98.097,-4013.92,0,0
30826,101.688,-3979.67,0,0
31086.3,103.857,-3951.77,0,0
31346.6,98.8783,-3921.93,0,0
31607,93.8373,-3885.04,0,0
31867.3,97.2724,-3852.2,0,0
32127.6,99.0495,-3821.8,0,0
32387.9,97.6161,-3796.04,0,0
32648.3,94.1201,-3763.74,0,0
32908.6,95.2246,-3735.69,0,0
33168.9,91.0787,-3706.71,0,0
33429.2,89.0743,-3678.72,0,0
33689.6,87.0599,-3648.71,0,0
33949.9,85.2694,-3618.35,0,0
34210.2,87.6734,-3592.3,0,0
34470.5,83.9317,-3565.32,0,0
34730.9,82.6342,-3537.52,0,0
34991.2,81.6705,-3510.71,0,0
35251.5,80.6653,-3484.18,0,0
35511.8,80.4683,-3457.72,0,0
35772.2,79.8373,-3432.48,0,0
36032.5,79.005,-3406.87,0,0
36292.8,78.1824,-3382.18,0,0
36553.1,77.3175,-3357.34,0,0
36813.5,76.6414,-3332.85,0,0
37073.8,76.4962,-3309.07,0,0
37334.1,75.4086,-3285.78,0,0
37594.4,75.6748,-3262.69,0,0
37854.8,74.6064,-3239.81,0,0
38115.1,74.0975,-3216.87,0,0
38375.4,73.2667,-3194.2,0,0
38635.7,73.2676,-3172.49,0,0
38896.1,72.6274,-3150.57,0,0
39156.4,72.7132,-3129.06,0,0
39416.7,72.4284,-3108.65,0,0
39677,71.6118,-3087.39,0,0
39937.4,73.0442,-3066.48,0,0
40197.7,71.4668,-3046.2,0,0
40458,71.7242,-3025.88,0,0
40718.3,71.5349,-3005.37,0,0
40978.7,72.7031,-2986.6,0,0
41239,72.6608,-2968.14,0,0
41499.3,73.0647,-2950.28,0,0
41759.6,72.2318,-2931.64,0,0
42020,71.5876,-2912.21,0,0
42280.275,70.8463,-2893.77,0,0
42540.6,72.397,-2876.55,0,0
42800.925,71.4632,-2859.36,0,0
43061.25,72.2196,-2841.17,0,0
43321.575,70.6075,-2824.37,0,0
43581.9,69.8803,-2807.19,0,0
43842.225,69.9207,-2789.14,0,0
44102.55,70.4299,-2772.07,0,0
44362.875,69.928,-2755.31,0,0
44623.2,69.7646,-2739.99,0,0
44883.525,68.5336,-2724.01,0,0
45143.85,68.6723,-2708.07,0,0
45404.175,69.2774,-2693.26,0,0
45664.5,68.9172,-2678.44,0,0
45924.825,68.7134,-2662.99,0,0
46185.15,68.155,-2648.2,0,0
46445.475,66.9747,-2632.57,0,0
46705.8,67.3477,-2617.61,0,0
46966.125,66.3685,-2602.46,0,0
47226.45,64.8957,-2587.64,0,0
47486.775,65.4142,-2573.65,0,0
47747.1,64.8434,-2559.53,0,0
48007.425,63.5342,-2545,0,0
48267.75,63.3814,-2531.11,0,0
48528.075,62.6819,-2517.58,0,0
48788.4,61.9249,-2503.22,0,0
49048.725,61.7061,-2489.45,0,0
49309.05,61.8171,-2475.84,0,0
49569.375,60.9002,-2462.67,0,0
49829.7,61.1171,-2449.27,0,0
50090.025,60.6033,-2436.25,0,0
50350.35,59.9022,-2423.05,0,0
50610.675,59.8398,-2410.04,0,0
50871.0,59.4358,-2397.16,0,0
51131.325,59.6199,-2384.46,0,0
51391.65,59.2041,-2372.14,0,0
51651.975,58.8174,-2359.97,0,0
51912.3,58.7047,-2347.29,0,0
52172.625,58.3266,-2335.25,0,0
52432.95,58.1987,-2323.23,0,0
52693.275,57.8485,-2311.03,0,0
52953.6,57.9676,-2299.19,0,0
53213.925,57.895,-2287.48,0,0
53474.25,57.7521,-2276.09,0,0
53734.575,57.8732,-2264.53,0,0
53994.9,57.6894,-2253.55,0,0
54255.225,56.9354,-2242.39,0,0
54515.55,56.9049,-2231.03,0,0
54775.875,56.4241,-2220.21,0,0
55036.2,56.2058,-2208.84,0,0
55296.525,56.1014,-2197.72,0,0
55556.85,56.2739,-2187.37,0,0
55817.175,55.8168,-2176.77,0,0
56077.5,55.8804,-2166.03,0,0
56337.825,55.528,-2155.41,0,0
56598.15,55.2631,-2144.91,0,0
56858.475,55.2317,-2134.59,0,0
57118.8,54.8288,-2124.33,0,0
57379.125,54.9516,-2114.05,0,0
57639.45,55.0012,-2104.14,0,0
57899.775,55.1838,-2094.22,0,0
58160.1,54.9735,-2084.28,0,0
58420.4,54.6785,-2074.58,0,0
58680.7,54.7081,-2064.78,0,0
58941.1,54.5893,-2055.02,0,0
59201.4,55.1605,-2045.58,0,0
59461.7,54.9248,-2036.58,0,0
59722,54.5726,-2027.14,0,0
59982.4,54.6822,-2017.84,0,0
60242.7,54.3249,-2008.49,0,0
60503,54.7699,-1999.41,0,0
60763.3,54.8458,-1990.94,0,0
61023.7,54.2882,-1982.32,0,0
61284,53.8816,-1973.21,0,0
61544.3,53.81,-1964.13,0,0
61804.6,53.9587,-1955.56,0,0
62065,53.2858,-1947.09,0,0
62325.3,53.1378,-1938.29,0,0
62585.6,52.921,-1929.31,0,0
62845.9,52.6816,-1920.59,0,0
63106.3,52.7627,-1912.14,0,0
63366.6,52.5429,-1903.51,0,0
63626.9,52.8185,-1895.07,0,0
63887.2,52.9012,-1886.74,0,0
64147.6,53.2773,-1878.42,0,0
64407.9,53.0469,-1870.29,0,0
64668.2,53.2307,-1861.98,0,0
64928.5,53.5428,-1853.86,0,0
65188.9,54.7193,-1845.59,0,0
65449.2,55.5057,-1838.25,0,0
65709.5,55.8809,-1831.3,0,0
65969.8,55.5502,-1824.19,0,0
66230.2,55.4507,-1816.94,0,0
66490.5,55.1168,-1809.57,0,0
66750.8,55.7509,-1802.54,0,0
67011.1,54.5675,-1795.5,0,0
67271.5,53.9827,-1787.33,0,0
67531.8,54.7169,-1780.06,0,0
67792.1,54.7358,-1773.51,0,0
68052.4,54.32,-1766.89,0,0
68312.8,53.7684,-1759.72,0,0
68573.1,53.6321,-1752.24,0,0
68833.4,53.7817,-1745.3,0,0
69093.7,53.7738,-1738.76,0,0
69354.1,53.4609,-1732.01,0,0
69614.4,53.054,-1725.41,0,0
69874.7,52.2783,-1718.66,0,0
70135,51.8872,-1711.68,0,0
70395.4,51.4853,-1704.81,0,0
70655.7,51.1002,-1697.82,0,0
70916,50.9618,-1690.93,0,0
71176.3,50.7561,-1684.2,0,0
71436.7,50.6042,-1677.72,0,0
71697,49.8589,-1671.18,0,0
71957.3,49.4802,-1664.24,0,0
72217.6,49.14,-1657.42,0,0
72478,48.8757,-1650.62,0,0
72738.3,48.7351,-1643.73,0,0
72998.6,48.7302,-1636.99,0,0
73258.9,48.5749,-1630.46,0,0
73519.3,48.4537,-1623.9,0,0
73779.6,48.3823,-1617.25,0,0
74039.9,48.7407,-1610.66,0,0
74300.225,48.4281,-1604.18,0,0
74560.55,48.5639,-1597.76,0,0
74820.875,48.7439,-1591.5,0,0
75081.2,48.6462,-1585.24,0,0
75341.525,48.654,-1578.91,0,0
75601.85,48.7676,-1572.47,0,0
75862.175,49.1045,-1566.18,0,0
76122.5,49.4972,-1560.09,0,0
76382.825,49.8338,-1554.33,0,0
76643.15,49.8332,-1548.47,0,0
76903.475,50.0357,-1542.42,0,0
77163.8,50.2943,-1536.63,0,0
77424.125,50.4176,-1530.82,0,0
77684.45,50.6505,-1524.95,0,0
77944.775,51.0262,-1519.01,0,0
78205.1,51.6885,-1513.23,0,0
78465.425,52.2311,-1507.86,0,0
78725.75,52.5223,-1502.7,0,0
78986.075,52.8603,-1497.59,0,0
79246.4,52.6005,-1492.28,0,0
79506.725,52.6958,-1487.15,0,0
79767.05,52.37,-1481.94,0,0
80027.375,52.3943,-1476.58,0,0
80287.7,51.334,-1471.07,0,0
80548.025,51.2779,-1465.41,0,0
80808.35,51.7921,-1459.98,0,0
81068.675,51.9136,-1454.48,0,0
81329.0,52.2517,-1448.95,0,0
81589.325,52.2811,-1443.69,0,0
81849.65,52.1431,-1438.32,0,0
82109.975,52.0918,-1432.88,0,0
82370.3,51.914,-1427.46,0,0
82630.625,52.3683,-1422.08,0,0
82890.95,52.1795,-1416.55,0,0
83151.275,52.5618,-1411.18,0,0
83411.6,52.7528,-1405.95,0,0
83671.925,53.8489,-1400.72,0,0
83932.25,53.6308,-1395.66,0,0
84192.575,54.0188,-1390.76,0,0
84452.9,54.4367,-1385.73,0,0
84713.225,54.7164,-1380.76,0,0
84973.55,55.2226,-1375.97,0,0
85233.875,55.4914,-1371.35,0,0
85494.2,55.5882,-1366.6,0,0
85754.525,55.7302,-1362,0,0
86014.85,55.8665,-1357.08,0,0
86275.175,56.3863,-1352.42,0,0
86535.5,56.5562,-1347.89,0,0
86795.825,56.6996,-1343.1,0,0
87056.15,57.2002,-1338.46,0,0
87316.475,57.4471,-1334.2,0,0
87576.8,57.4059,-1329.9,0,0
87837.125,57.0897,-1325.02,0,0
88097.45,57.217,-1320.26,0,0
88357.775,57.2602,-1315.33,0,0
88618.1,57.5992,-1310.52,0,0
88878.425,57.8552,-1305.94,0,0
89138.75,57.8796,-1300.89,0,0
89399.075,58.3599,-1295.73,0,0
89659.4,58.9448,-1290.86,0,0
89919.725,60.0416,-1286.02,0,0
90180,61.0203,-1281.35,0,0
90440.4,61.7809,-1277.21,0,0
90700.7,62.2612,-1272.54,0,0
90961,63.524,-1267.76,0,0
91221.3,64.8509,-1263.23,0,0
91481.7,66.2211,-1259.17,0,0
91742,67.6267,-1255.49,0,0
92002.3,68.9171,-1251.84,0,0
92262.6,69.998,-1248.17,0,0
92523,71.3764,-1244.39,0,0
92783.3,72.9573,-1241.25,0,0
93043.6,74.4834,-1238.24,0,0
93303.9,76.0626,-1235.52,0,0
93564.3,77.9109,-1233.77,0,0
93824.6,78.7008,-1233.21,0,0
94084.9,77.7684,-1232.64,0,0
94345.2,75.6322,-1230.91,0,0
94605.6,74.0695,-1227.46,0,0
94865.9,73.0923,-1224.92,0,0
95126.2,70.9896,-1221.8,0,0
95386.5,69.4402,-1218.02,0,0
95646.9,68.0822,-1213.87,0,0
95907.2,67.0185,-1209.38,0,0
96167.5,66.5549,-1204.97,0,0
96427.8,66.2536,-1201.39,0,0
96688.2,65.3432,-1197.34,0,0
96948.5,64.4959,-1192.88,0,0
97208.8,64.0871,-1188.37,0,0
97469.1,64.1031,-1183.98,0,0
97729.5,64.1829,-1179.9,0,0
97989.8,64.419,-1175.98,0,0
98250.1,64.1659,-1172.23,0,0
98510.4,63.8523,-1168.26,0,0
98770.8,63.6547,-1164.14,0,0
99031.1,63.4861,-1160.04,0,0
99291.4,63.4494,-1155.97,0,0
99551.7,63.4048,-1151.82,0,0
99812.1,63.6895,-1147.73,0,0
100072,63.8753,-1143.97,0,0
100333,63.8737,-1140.11,0,0
100593,64.0171,-1136.23,0,0
100853,64.0208,-1132.49,0,0
101114,63.9577,-1128.67,0,0
101374,63.703,-1124.86,0,0
101634,63.2729,-1120.76,0,0
101895,62.9097,-1116.12,0,0
102155,63.1087,-1111.3,0,0
102415,63.7581,-1106.5,0,0
102676,64.6423,-1101.99,0,0
102936,65.653,-1097.8,0,0
103196,66.6533,-1093.7,0,0
103457,67.5831,-1089.71,0,0
103717,68.5235,-1085.28,0,0
103977,69.8496,-1081.08,0,0
104238,71.6307,-1077.38,0,0
104498,73.1994,-1074.12,0,0
104758,74.4535,-1070.94,0,0
105019,75.6971,-1067.54,0,0
105279,76.8991,-1064.18,0,0
105539,78.4092,-1060.91,0,0
105800,80.0172,-1057.8,0,0
106060,81.5086,-1055.05,0,0
106320.175,82.99,-1052.17,0,0
106580.5,84.5549,-1049.5,0,0
106840.825,85.9911,-1047.16,0,0
107101.15,87.3954,-1044.99,0,0
107361.475,88.447,-1042.97,0,0
107621.8,89.0456,-1040.86,0,0
107882.125,90.1354,-1038.44,0,0
108142.45,91.1153,-1036.29,0,0
108402.775,92.1111,-1034.28,0,0
108663.1,93.0654,-1032.44,0,0
108923.425,93.7412,-1030.9,0,0
109183.75,94.2515,-1029.4,0,0
109444.075,94.4665,-1027.73,0,0
109704.4,94.6272,-1025.99,0,0
109964.725,94.7094,-1024.37,0,0
110225.05,94.5789,-1022.38,0,0
110485.375,94.4771,-1020.54,0,0
110745.7,94.267,-1018.32,0,0
111006.025,94.0702,-1015.85,0,0
111266.35,94.0031,-1013.37,0,0
111526.675,94.3369,-1010.78,0,0
111787.0,94.3632,-1008.96,0,0
112047.325,94.4325,-1006.72,0,0
112307.65,94.9843,-1004.56,0,0
112567.975,95.2536,-1002.8,0,0
112828.3,95.3626,-1001.05,0,0
113088.625,95.2398,-999.373,0,0
113348.95,94.971,-997.778,0,0
113609.275,94.5663,-996.004,0,0
113869.6,94.258,-994.391,0,0
114129.925,93.478,-992.68,0,0
114390.25,92.4286,-990.76,0,0
114650.575,91.6447,-988.767,0,0
114910.9,90.7203,-986.565,0,0
115171.225,90.1137,-984.46,0,0
115431.55,89.2842,-982.248,0,0
115691.875,88.0033,-979.876,0,0
115952.2,86.9087,-977.092,0,0
116212.525,85.9403,-974.225,0,0
116472.85,85.025,-971.413,0,0
116733.175,84.2315,-968.605,0,0
116993.5,83.2866,-965.744,0,0
117253.825,82.471,-962.647,0,0
117514.15,82.0773,-959.55,0,0
117774.475,81.4832,-956.316,0,0
118034.8,81.118,-953.045,0,0
118295.125,80.5182,-949.814,0,0
118555.45,80.4969,-946.551,0,0
118815.775,80.6937,-943.376,0,0
119076.1,80.8559,-940.311,0,0
119336.425,80.3672,-937.211,0,0
119596.75,81.2179,-934.247,0,0
119857.075,80.6095,-931.364,0,0
120117.4,81.387,-928.352,0,0
120377.725,81.3333,-925.643,0,0
120638.05,81.7757,-923.134,0,0
120898.375,81.6159,-920.769,0,0
121158.7,81.5969,-918.292,0,0
121419.025,82.0099,-915.95,0,0
121679.35,81.2804,-913.708,0,0
121939.675,80.9048,-911.07,0,0
122200.0,80.7237,-908.355,0,0
122460,80.3625,-905.648,0,0
122721,79.6894,-902.739,0,0
122981,79.46,-899.719,0,0
123241,79.3887,-896.693,0,0
123502,79.4022,-893.759,0,0
123762,79.3627,-890.797,0,0
124022,79.2509,-887.739,0,0
124283,79.383,-884.67,0,0
124543,79.6868,-881.77,0,0
124803,79.7863,-878.967,0,0
125064,79.841,-876.036,0,0
125324,80.1438,-873.086,0,0
125584,80.352,-870.201,0,0
125845,80.6583,-867.416,0,0
126105,80.9364,-864.592,0,0
126365,81.3435,-861.866,0,0
126626,81.5378,-859.015,0,0
126886,81.7099,-856.295,0,0
127146,82.1115,-853.439,0,0
127406,82.1182,-850.38,0,0
127667,82.4031,-847.429,0,0
127927,83.1212,-844.405,0,0
128187,83.4335,-841.478,0,0
128448,84.1606,-838.654,0,0
128708,84.706,-835.903,0,0
128968,85.2761,-833.216,0,0
129229,85.9068,-830.412,0,0
129489,86.5641,-827.634,0,0
129749,87.4249,-824.734,0,0
130010,88.3796,-822.073,0,0
130270,89.4594,-819.448,0,0
130530,90.4646,-816.996,0,0
130791,91.5669,-814.757,0,0
131051,92.4504,-812.626,0,0
131311,93.3244,-810.569,0,0
131572,94.1201,-808.547,0,0
131832,94.8737,-806.478,0,0
132092,95.5806,-804.508,0,0
132353,96.2886,-802.546,0,0
132613,96.8031,-800.518,0,0
132873,97.5144,-798.551,0,0
133134,97.9802,-796.629,0,0
133394,98.507,-794.727,0,0
133654,98.9956,-792.835,0,0
133915,99.3768,-790.906,0,0
134175,99.6619,-788.981,0,0
134435,99.8871,-786.889,0,0
134696,100.169,-784.775,0,0
134956,100.528,-782.5,0,0
135216,101.055,-780.29,0,0
135477,101.587,-778.231,0,0
135737,101.969,-776.111,0,0
135997,102.533,-773.77,0,0
136258,103.147,-771.657,0,0
136518,103.842,-769.579,0,0
136778,104.515,-767.497,0,0
137039,105.259,-765.508,0,0
137299,105.993,-763.486,0,0
137559,107.025,-761.676,0,0
137819,107.877,-760.239,0,0
138080,108.501,-758.846,0,0
138340.125,108.911,-757.664,0,0
138600.45,108.978,-756.292,0,0
138860.775,108.994,-754.691,0,0
139121.1,109.055,-752.972,0,0
139381.425,109.126,-751.254,0,0
139641.75,109.165,-749.599,0,0
139902.075,109.02,-747.875,0,0
140162.4,108.776,-745.902,0,0
140422.725,108.72,-743.723,0,0
140683.05,108.793,-741.624,0,0
140943.375,108.895,-739.465,0,0
141203.7,109.028,-737.26,0,0
141464.025,109.283,-735.119,0,0
141724.35,109.488,-732.988,0,0
141984.675,109.814,-730.75,0,0
142245.0,110.266,-728.718,0,0
142505.325,110.561,-726.866,0,0
142765.65,110.718,-724.903,0,0
143025.975,111.012,-722.962,0,0
143286.3,110.931,-721.096,0,0
143546.625,110.928,-718.965,0,0
143806.95,111.141,-716.672,0,0
144067.275,111.522,-714.165,0,0
144327.6,111.771,-711.836,0,0
144587.925,111.951,-709.548,0,0
144848.25,112.303,-707.166,0,0
145108.575,112.817,-704.805,0,0
145368.9,113.296,-702.528,0,0
145629.225,114.113,-700.263,0,0
145889.55,114.668,-698.211,0,0
146149.875,114.773,-696.237,0,0
146410.2,115.292,-694.014,0,0
146670.525,116,-691.836,0,0
146930.85,116.751,-689.999,0,0
147191.175,117.121,-688.201,0,0
147451.5,117.559,-686.167,0,0
147711.825,118.13,-684.197,0,0
147972.15,118.578,-682.33,0,0
148232.475,118.966,-680.466,0,0
148492.8,119.271,-678.658,0,0
148753.125,119.349,-676.748,0,0
149013.45,119.558,-674.569,0,0
149273.775,119.923,-672.392,0,0
149534.1,120.349,-670.249,0,0
149794.425,120.723,-668.295,0,0
150054.75,121,-666.324,0,0
150315.075,121.254,-664.355,0,0
150575.4,121.355,-662.351,0,0
150835.725,121.338,-660.307,0,0
151096.05,121.158,-658.084,0,0
151356.375,121.043,-655.548,0,0
151616.7,121.095,-652.905,0,0
151877.025,121.174,-650.184,0,0
152137.35,121.391,-647.435,0,0
152397.675,121.566,-644.589,0,0
152658.0,121.848,-641.64,0,0
152918.325,122.272,-638.485,0,0
153178.65,123.004,-635.454,0,0
153438.975,123.639,-632.585,0,0
153699.3,124.103,-629.601,0,0
153959.625,124.648,-626.231,0,0
154219.95,125.486,-622.766,0,0
154480,126.521,-619.222,0,0
154741,127.928,-615.516,0,0
155001,129.71,-612.069,0,0
155261,131.451,-608.855,0,0
155522,133.339,-605.593,0,0
155782,135.468,-602.399,0,0
156042,137.719,-599.458,0,0
156303,140.043,-596.647,0,0
156563,142.421,-593.868,0,0
156823,144.941,-591.239,0,0
157084,147.619,-588.759,0,0
157344,150.311,-586.53,0,0
157604,153.011,-584.625,0,0
157864,155.486,-582.887,0,0
158125,157.763,-581.278,0,0
158385,159.687,-579.404,0,0
158645,161.794,-577.285,0,0
158906,163.971,-575.062,0,0
159166,166.409,-572.65,0,0
159426,169.332,-570.458,0,0
159687,172.119,-568.462,0,0
159947,174.938,-566.276,0,0
160207,178.303,-564.008,0,0
160468,182.138,-562.134,0,0
160728,186.11,-560.842,0,0
160988,190.147,-559.957,0,0
161249,193.981,-559.614,0,0
161509,197.518,-559.698,0,0
161769,200.693,-559.631,0,0
162030,203.913,-559.639,0,0
162290,207.047,-559.909,0,0
162550,209.868,-560.288,0,0
162811,212.635,-560.574,0,0
163071,215.462,-560.808,0,0
163331,218.553,-561.364,0,0
163592,221.343,-562.447,0,0
163852,223.638,-563.557,0,0
164112,225.512,-564.47,0,0
164373,227.561,-564.889,0,0
164633,230.078,-565.32,0,0
164893,232.767,-566.167,0,0
165154,235.573,-567.265,0,0
165414,238.452,-568.992,0,0
165674,240.896,-571.318,0,0
165935,242.905,-573.842,0,0
166195,244.399,-576.631,0,0
166455,245.402,-579.401,0,0
166716,245.961,-582.127,0,0
166976,246.054,-584.767,0,0
167236,245.806,-587.126,0,0
167497,245.463,-589.188,0,0
167757,245.072,-591.327,0,0
168017,244.247,-593.474,0,0
168277,243.069,-595.278,0,0
168538,241.748,-596.805,0,0
168798,240.297,-598.153,0,0
169058,238.737,-599.264,0,0
169319,237.01,-600.296,0,0
169579,234.859,-600.987,0,0
169839,232.656,-600.925,0,0
170100,230.849,-600.588,0,0
170360.075,229.219,-600.005,0,0
170620.4,227.836,-599.219,0,0
170880.725,226.763,-598.393,0,0
171141.05,225.896,-597.809,0,0
171401.375,224.91,-597.378,0,0
171661.7,223.799,-596.928,0,0
171922.025,222.401,-596.399,0,0
172182.35,220.87,-595.453,0,0
172442.675,219.63,-594.206,0,0
172703.0,218.617,-592.836,0,0
172963.325,217.789,-591.445,0,0
173223.65,216.984,-590.081,0,0
173483.975,216.159,-588.624,0,0
173744.3,215.538,-586.866,0,0
174004.625,215.278,-585.019,0,0
174264.95,215.406,-583.421,0,0
174525.275,215.579,-582.004,0,0
174785.6,215.809,-580.668,0,0
175045.925,216.266,-579.502,0,0
175306.25,216.678,-578.763,0,0
175566.575,216.842,-578.252,0,0
175826.9,216.709,-577.805,0,0
176087.225,216.412,-577.056,0,0
176347.55,216.306,-576.214,0,0
176607.875,216.259,-575.52,0,0
176868.2,216.096,-575.069,0,0
177128.525,215.524,-574.595,0,0
177388.85,214.889,-573.684,0,0
177649.175,214.569,-572.621,0,0
177909.5,214.404,-571.744,0,0
178169.825,214.178,-571.084,0,0
178430.15,213.845,-570.411,0,0
178690.475,213.474,-569.802,0,0
178950.8,213.009,-569.329,0,0
179211.125,212.274,-568.861,0,0
179471.45,211.364,-568.188,0,0
179731.775,210.612,-567.438,0,0
179992.1,209.732,-566.964,0,0
180252.425,208.336,-566.464,0,0
180512.75,206.722,-565.441,0,0
180773.075,205.307,-564.146,0,0
181033.4,203.93,-562.826,0,0
181293.725,202.415,-561.382,0,0
181554.05,201.007,-559.7,0,0
181814.375,199.676,-558.019,0,0
182074.7,198.159,-556.339,0,0
182335.025,196.414,-554.428,0,0
182595.35,194.586,-552.041,0,0
182855.675,193.05,-549.23,0,0
183116.0,191.898,-546.234,0,0
183376.325,190.927,-543.266,0,0
183636.65,190.157,-540.244,0,0
183896.975,189.506,-537.176,0,0
184157.3,189.064,-534.06,0,0
184417.625,188.755,-531.01,0,0
184677.95,188.571,-527.965,0,0
184938.275,188.452,-524.951,0,0
185198.6,188.393,-521.978,0,0
185458.925,188.405,-518.955,0,0
185719.25,188.445,-515.875,0,0
185979.575,188.676,-512.771,0,0
186239.9,188.94,-509.794,0,0
186500,189.315,-506.685,0,0
186761,189.629,-503.709,0,0
187021,190.063,-500.716,0,0
187281,190.738,-497.594,0,0
187542,191.347,-494.66,0,0
187802,191.863,-491.914,0,0
188062,192.284,-489.028,0,0
188322,192.705,-485.96,0,0
188583,193.189,-482.734,0,0
188843,193.848,-479.363,0,0
189103,194.733,-475.986,0,0
189364,195.802,-472.388,0,0
189624,197.159,-469.072,0,0
189884,198.676,-465.965,0,0
190145,200.017,-463.02,0,0
190405,201.27,-460.076,0,0
190665,202.503,-457.075,0,0
190926,203.829,-454.025,0,0
191186,205.217,-451,0,0
191446,206.586,-448.071,0,0
191707,207.851,-444.945,0,0
191967,209.352,-441.687,0,0
192227,210.946,-438.64,0,0
192488,212.398,-435.653,0,0
192748,213.711,-432.444,0,0
193008,215.1,-429.024,0,0
193269,216.743,-425.44,0,0
193529,218.597,-421.799,0,0
193789,220.598,-418.237,0,0
194050,222.608,-414.719,0,0
194310,224.64,-411.13,0,0
194570,226.707,-407.397,0,0
194831,229.116,-403.473,0,0
195091,231.779,-399.477,0,0
195351,234.662,-395.601,0,0
195612,237.635,-391.882,0,0
195872,240.68,-388.154,0,0
196132,243.914,-384.389,0,0
196393,247.206,-380.427,0,0
196653,250.879,-376.6,0,0
196913,254.773,-372.735,0,0
197174,259.11,-369.119,0,0
197434,263.451,-365.854,0,0
197694,267.884,-362.863,0,0
197955,272.268,-359.968,0,0
198215,276.647,-357.154,0,0
198475,280.909,-354.392,0,0
198735,285.125,-351.528,0,0
198996,289.467,-348.487,0,0
199256,294.011,-345.411,0,0
199516,298.745,-342.266,0,0
199777,303.534,-339.091,0,0
200037,308.614,-335.828,0,0
200297,313.979,-332.426,0,0
200558,319.875,-329.051,0,0
200818,326.125,-325.836,0,0
201078,332.783,-322.869,0,0
201339,339.816,-320.336,0,0
201599,347.009,-317.919,0,0
201859,354.429,-315.789,0,0
202120,362.079,-313.772,0,0
202380.025,370.131,-311.972,0,0
202640.35,378.547,-310.738,0,0
202900.675,387.086,-309.851,0,0
203161.0,395.806,-309.254,0,0
203421.325,404.841,-309.02,0,0
203681.65,414.044,-309.202,0,0
203941.975,423.657,-309.727,0,0
204202.3,433.845,-310.913,0,0
204462.625,444.307,-313.157,0,0
204722.95,454.719,-316.598,0,0
204983.275,464.557,-321.113,0,0
205243.6,473.908,-326.316,0,0
205503.925,482.899,-331.991,0,0
205764.25,491.09,-338.453,0,0
206024.575,498.536,-345.243,0,0
206284.9,505.45,-352.208,0,0
206545.225,512.045,-359.487,0,0
206805.55,518.018,-367.243,0,0
207065.875,523.278,-375.458,0,0
207326.2,527.627,-383.768,0,0
207586.525,531.091,-392.078,0,0
207846.85,533.842,-399.947,0,0
208107.175,536.299,-407.659,0,0
208367.5,538.274,-415.27,0,0
208627.825,539.712,-422.885,0,0
208888.15,540.525,-430.406,0,0
209148.475,540.554,-437.666,0,0
209408.8,539.934,-444.32,0,0
209669.125,539.064,-450.415,0,0
209929.45,537.708,-455.851,0,0
210189.775,536.339,-460.752,0,0
210450.1,534.675,-465.161,0,0
210710.425,532.99,-469.097,0,0
210970.75,530.945,-472.432,0,0
211231.075,528.953,-474.723,0,0
211491.4,527.463,-476.336,0,0
211751.725,526.553,-477.376,0,0
212012.05,525.962,-477.886,0,0
212272.375,526.279,-477.998,0,0
212532.7,527.467,-478.109,0,0
212793.025,529.485,-478.678,0,0
213053.35,531.716,-479.814,0,0
213313.675,533.921,-481.274,0,0
213574.0,536.144,-482.69,0,0
213834.325,538.728,-484.067,0,0
214094.65,541.616,-485.735,0,0
214354.975,544.883,-487.897,0,0
214615.3,548.14,-490.581,0,0
214875.625,551.122,-493.67,0,0
215135.95,553.686,-496.964,0,0
215396.275,556.086,-500.182,0,0
215656.6,558.271,-503.535,0,0
215916.925,560.059,-506.823,0,0
216177.25,561.555,-509.63,0,0
216437.575,563.289,-511.787,0,0
216697.9,565.734,-513.535,0,0
216958.225,568.894,-515.361,0,0
217218.55,572.688,-517.806,0,0
217478.875,576.611,-520.801,0,0
217739.2,580.395,-523.887,0,0
217999.525,584.078,-527.677,0,0
218259.85,587.495,-532.028,0,0
218520,590.92,-535.191,0,0
218780,594.739,-539.022,0,0
219041,598.979,-543.011,0,0
219301,603.447,-547.443,0,0
219561,607.941,-552.456,0,0
219822,612.521,-558.014,0,0
220082,616.955,-564.078,0,0
220342,621.237,-570.232,0,0
220603,625.729,-577.347,0,0
220863,630.12,-584.855,0,0
221123,634.233,-592.589,0,0
221384,637.903,-601.28,0,0
221644,640.978,-610.231,0,0
221904,643.795,-619.781,0,0
222165,646.455,-629.389,0,0
222425,648.538,-639.614,0,0
222685,649.871,-650.327,0,0
222946,650.6,-660.436,0,0
223206,650.887,-672.174,0,0
223466,650.415,-683.236,0,0
223727,649.152,-695.184,0,0
223987,647.206,-706.63,0,0
224247,644.44,-718.138,0,0
224508,641.13,-729.179,0,0
224768,637.336,-740.317,0,0
225028,632.975,-751.422,0,0
225289,627.929,-762.052,0,0
225549,621.887,-772.821,0,0
225809,615.36,-783.064,0,0
226070,608.092,-792.776,0,0
226330,600.662,-801.791,0,0
226590,592.87,-810.659,0,0
226851,584.44,-818.993,0,0
227111,575.442,-826.528,0,0
227371,565.938,-833.682,0,0
227632,556.782,-839.728,0,0
227892,547.342,-845.601,0,0
228152,537.767,-850.888,0,0
228413,528.07,-855.437,0,0
228673,518.374,-859.636,0,0
228933,508.784,-863.235,0,0
229193,498.9,-866.596,0,0
229454,489.351,-869.032,0,0
229714,479.577,-871.179,0,0
229974,470.051,-872.792,0,0
230235,460.57,-873.795,0,0
230495,451.515,-874.282,0,0
230755,442.829,-874.333,0,0
231016,434.444,-873.989,0,0
231276,426.186,-873.594,0,0
231536,418.564,-872.76,0,0
231797,411.262,-871.743,0,0
232057,404.168,-870.838,0,0
232317,397.735,-869.566,0,0
232578,391.143,-868.773,0,0
232838,384.628,-867.729,0,0
233098,378.294,-866.684,0,0
233359,372.15,-865.333,0,0
233619,366.408,-863.737,0,0
233879,360.691,-862.408,0,0
234140,355.125,-860.935,0,0
234400,349.687,-859.449,0,0
234660.3,344.04,-858.297,0,0
234920.625,339.043,-856.547,0,0
235180.95,333.801,-855.32,0,0
235441.275,328.731,-853.737,0,0
235701.6,323.592,-852.001,0,0
235961.925,318.702,-850.048,0,0
236222.25,313.903,-848.2,0,0
236482.575,309.538,-846.1,0,0
236742.9,305.198,-844.18,0,0
237003.225,301.242,-842.243,0,0
237263.55,296.981,-840.68,0,0
237523.875,292.709,-839.141,0,0
237784.2,288.582,-837.578,0,0
238044.525,284.344,-835.971,0,0
238304.85,280.038,-834.414,0,0
238565.175,275.735,-832.853,0,0
238825.5,271.329,-830.938,0,0
239085.825,266.991,-828.977,0,0
239346.15,262.591,-826.744,0,0
239606.475,258.391,-824.485,0,0
239866.8,254.476,-821.923,0,0
240127.125,250.426,-819.422,0,0
240387.45,246.774,-816.551,0,0
240647.775,244.328,-813.114,0,0
240908.1,239.988,-811.071,0,0
241168.425,236.746,-808.416,0,0
241428.75,233.58,-805.786,0,0
241689.075,230.508,-803.06,0,0
241949.4,227.638,-800.288,0,0
242209.725,224.847,-797.71,0,0
242470.05,222.172,-795.122,0,0
242730.375,219.663,-792.457,0,0
242990.7,217.111,-789.949,0,0
243251.025,214.925,-787.452,0,0
243511.35,212.773,-784.985,0,0
243771.675,210.353,-782.667,0,0
244032.0,207.858,-780.533,0,0
244292.325,205.513,-778.247,0,0
244552.65,203.129,-776.011,0,0
244812.975,200.77,-773.783,0,0
245073.3,198.524,-771.491,0,0
245333.625,196.07,-769.069,0,0
245593.95,193.759,-766.735,0,0
245854.275,191.556,-764.335,0,0
246114.6,189.24,-761.913,0,0
246374.925,186.947,-759.394,0,0
246635.25,184.787,-756.953,0,0
246895.575,182.821,-754.365,0,0
247155.9,180.813,-751.847,0,0
247416.225,179.152,-749.246,0,0
247676.55,177.455,-746.524,0,0
247936.875,175.736,-743.891,0,0
248197.2,174.487,-741.21,0,0
248457.525,172.554,-738.795,0,0
248717.85,170.987,-736.236,0,0
248978.175,169.372,-733.719,0,0
249238.5,167.661,-731.181,0,0
249498.825,166.486,-728.599,0,0
249759.15,165.136,-726.049,0,0
250019.475,163.513,-723.598,0,0
250279.8,162.217,-721.178,0,0
250540,159.977,-719.051,0,0
250800,158.648,-716.567,0,0
251061,157.459,-714.103,0,0
251321,156.27,-711.602,0,0
251581,155.138,-709.111,0,0
251842,153.905,-706.621,0,0
252102,152.842,-704.142,0,0
252362,151.814,-701.641,0,0
252623,150.765,-699.171,0,0
252883,149.75,-696.684,0,0
253143,148.801,-694.181,0,0
253404,147.762,-691.626,0,0
253664,146.851,-689.008,0,0
253924,146.029,-686.329,0,0
254185,145.31,-683.645,0,0
254445,144.764,-681.002,0,0
254705,144.295,-678.395,0,0
254966,143.885,-675.82,0,0
255226,143.486,-673.298,0,0
255486,143.186,-670.765,0,0
255747,142.892,-668.328,0,0
256007,142.677,-665.865,0,0
256267,142.473,-663.463,0,0
256528,143.101,-660.816,0,0
256788,142.904,-658.484,0,0
257048,142.944,-656.063,0,0
257309,142.214,-654.024,0,0
257569,142.26,-651.734,0,0
257829,142.39,-649.422,0,0
258090,142.477,-647.161,0,0
258350,142.761,-644.903,0,0
258610,142.971,-642.7,0,0
258871,143.307,-640.443,0,0
259131,143.743,-638.251,0,0
259391,144.232,-636.083,0,0
259651,145.221,-633.85,0,0
259912,145.638,-631.952,0,0
260172,146.278,-630.005,0,0
260432,147.086,-628.157,0,0
260693,147.898,-626.346,0,0
260953,148.857,-624.589,0,0
261213,149.786,-622.955,0,0
261474,150.844,-621.479,0,0
261734,151.852,-620.098,0,0
261994,152.827,-618.779,0,0
262255,153.813,-617.509,0,0
262515,154.875,-616.267,0,0
262775,155.941,-615.131,0,0
263036,157.043,-613.969,0,0
263296,158.291,-612.941,0,0
263556,159.556,-612.064,0,0
263817,160.884,-611.297,0,0
264077,162.212,-610.72,0,0
264337,163.608,-610.341,0,0
264598,164.94,-610.14,0,0
264858,166.182,-610.057,0,0
265118,167.425,-610.238,0,0
265379,168.628,-610.631,0,0
265639,169.547,-611.137,0,0
265899,170.374,-611.749,0,0
266160,171.06,-612.479,0,0
266420,171.67,-613.438,0,0
266680.25,171.951,-614.481,0,0
266940.575,172.087,-615.64,0,0
267200.9,171.912,-616.922,0,0
267461.225,171.382,-618.151,0,0
267721.55,170.557,-619.313,0,0
267981.875,169.437,-620.406,0,0
268242.2,168.082,-621.297,0,0
268502.525,166.539,-621.93,0,0
268762.85,164.825,-622.356,0,0
269023.175,163.013,-622.576,0,0
269283.5,161.118,-622.522,0,0
269543.825,159.159,-622.207,0,0
269804.15,157.225,-621.645,0,0
270064.475,155.457,-620.908,0,0
270324.8,153.659,-619.831,0,0
270585.125,152.057,-618.763,0,0
270845.45,150.458,-617.479,0,0
271105.775,149.041,-616.118,0,0
271366.1,147.7,-614.627,0,0
271626.425,146.485,-612.999,0,0
271886.75,145.462,-611.243,0,0
272147.075,144.61,-609.5,0,0
272407.4,143.907,-607.78,0,0
272667.725,143.313,-606.04,0,0
272928.05,142.885,-604.308,0,0
273188.375,142.561,-602.63,0,0
273448.7,142.32,-600.979,0,0
273709.025,142.164,-599.408,0,0
273969.35,142.071,-597.883,0,0
274229.675,141.996,-596.389,0,0
274490.0,142.045,-594.924,0,0
274750.325,142.121,-593.479,0,0
275010.65,142.32,-592.162,0,0
275270.975,142.541,-590.844,0,0
275531.3,142.727,-589.634,0,0
275791.625,142.983,-588.442,0,0
276051.95,143.278,-587.227,0,0
276312.275,143.628,-586.076,0,0
276572.6,144.06,-584.998,0,0
276832.925,144.598,-584.024,0,0
277093.25,145.153,-583.159,0,0
277353.575,145.686,-582.435,0,0
277613.9,146.176,-581.8,0,0
277874.225,146.655,-581.221,0,0
278134.55,147.079,-580.682,0,0
278394.875,147.522,-580.196,0,0
278655.2,148.011,-579.796,0,0
278915.525,148.463,-579.537,0,0
279175.85,148.861,-579.4,0,0
279436.175,149.158,-579.373,0,0
279696.5,149.319,-579.422,0,0
279956.825,149.335,-579.493,0,0
280217.15,149.246,-579.579,0,0
280477.475,149.063,-579.625,0,0
280737.8,148.813,-579.641,0,0
280998.125,148.474,-579.651,0,0
281258.45,148.002,-579.605,0,0
281518.775,147.544,-579.518,0,0
281779.1,147.053,-579.407,0,0
282039.425,146.514,-579.295,0,0
282299.75,145.887,-579.147,0,0
282560,145.149,-579.007,0,0
282820,144.332,-578.763,0,0
283081,143.465,-578.38,0,0
283341,142.62,-577.863,0,0
283601,141.814,-577.284,0,0
283862,141.098,-576.681,0,0
284122,140.364,-576.105,0,0
284382,139.639,-575.543,0,0
284643,138.858,-574.979,0,0
284903,137.977,-574.38,0,0
285163,137.092,-573.666,0,0
285424,136.156,-572.919,0,0
285684,135.222,-572.112,0,0
285944,134.254,-571.183,0,0
286205,133.267,-570.192,0,0
286465,132.271,-569.091,0,0
286725,131.285,-567.834,0,0
286986,130.354,-566.486,0,0
287246,129.447,-564.985,0,0
287506,128.639,-563.317,0,0
287767,128.02,-561.562,0,0
288027,127.533,-559.68,0,0
288287,127.228,-557.748,0,0
288548,127.164,-555.778,0,0
288808,127.347,-553.833,0,0
289068,127.76,-552.067,0,0
289329,128.325,-550.498,0,0
289589,128.908,-549.134,0,0
289849,129.488,-547.907,0,0
290109,130.071,-546.841,0,0
290370,130.566,-545.879,0,0
290630,130.998,-544.992,0,0
290890,131.392,-544.15,0,0
291151,131.646,-543.337,0,0
291411,131.909,-542.471,0,0
291671,132.176,-541.625,0,0
291932,132.383,-540.78,0,0
292192,132.566,-539.954,0,0
292452,132.722,-539.107,0,0
292713,132.848,-538.24,0,0
292973,132.96,-537.332,0,0
293233,133.17,-536.429,0,0
293494,133.258,-535.521,0,0
293754,133.302,-534.551,0,0
294014,133.381,-533.481,0,0
294275,133.464,-532.363,0,0
294535,133.593,-531.15,0,0
294795,133.795,-529.855,0,0
295056,134.075,-528.496,0,0
295316,134.498,-527.054,0,0
295576,135.066,-525.582,0,0
295837,135.826,-524.149,0,0
296097,136.759,-522.798,0,0
296357,137.806,-521.595,0,0
296618,138.925,-520.53,0,0
296878,140.049,-519.604,0,0
297138,141.141,-518.771,0,0
297399,142.237,-518.003,0,0
297659,143.327,-517.264,0,0
297919,144.458,-516.568,0,0
298180,145.577,-515.932,0,0
298440,146.718,-515.348,0,0
298700.2,147.869,-514.726,0,0
298960.525,149.039,-514.253,0,0
299220.85,150.302,-513.74,0,0
299481.175,151.658,-513.412,0,0
299741.5,152.955,-513.161,0,0
300001.825,154.28,-513.116,0,0
300262.15,155.463,-513.076,0,0
300522.475,156.596,-512.874,0,0
300782.8,157.765,-512.844,0,0
301043.125,158.955,-512.859,0,0
301303.45,160.237,-512.897,0,0
301563.775,161.508,-512.995,0,0
301824.1,162.814,-513.27,0,0
302084.425,164.062,-513.585,0,0
302344.75,165.42,-514.027,0,0
302605.075,166.548,-514.504,0,0
302865.4,167.713,-515.115,0,0
303125.725,168.89,-515.779,0,0
303386.05,170.081,-516.493,0,0
303646.375,171.121,-517.358,0,0
303906.7,172.09,-518.421,0,0
304167.025,172.936,-519.443,0,0
304427.35,173.574,-520.491,0,0
304687.675,174.136,-521.511,0,0
304948.0,174.673,-522.486,0,0
305208.325,175.235,-523.477,0,0
305468.65,175.77,-524.421,0,0
305728.975,176.306,-525.367,0,0
305989.3,176.884,-526.41,0,0
306249.625,177.396,-527.547,0,0
306509.95,177.807,-528.702,0,0
306770.275,178.214,-529.96,0,0
307030.6,178.55,-531.291,0,0
307290.925,178.794,-532.703,0,0
307551.25,178.959,-534.069,0,0
307811.575,179.051,-535.549,0,0
308071.9,179.073,-537.002,0,0
308332.225,178.904,-538.588,0,0
308592.55,178.629,-540.038,0,0
308852.875,178.204,-541.493,0,0
309113.2,177.826,-542.919,0,0
309373.525,177.317,-544.349,0,0
309633.85,176.798,-545.771,0,0
309894.175,176.08,-547.148,0,0
310154.5,175.47,-548.508,0,0
310414.825,174.707,-549.846,0,0
310675.15,173.893,-551.343,0,0
310935.475,172.948,-552.587,0,0
311195.8,171.934,-553.957,0,0
311456.125,170.897,-555.282,0,0
311716.45,169.619,-556.648,0,0
311976.775,168.196,-557.865,0,0
312237.1,166.695,-559.063,0,0
312497.425,165.126,-560.041,0,0
312757.75,163.569,-560.965,0,0
313018.075,161.921,-561.82,0,0
313278.4,160.211,-562.452,0,0
313538.725,158.597,-562.995,0,0
313799.05,156.876,-563.5,0,0
314059.375,155.168,-563.892,0,0
314319.7,153.455,-564.255,0,0
314580,151.914,-564.475,0,0
314840,150.367,-564.724,0,0
315101,148.715,-564.973,0,0
315361,147.14,-565.16,0,0
315621,145.491,-565.242,0,0
315882,143.91,-565.341,0,0
316142,142.316,-565.4,0,0
316402,140.61,-565.411,0,0
316663,138.856,-565.333,0,0
316923,137.136,-565.184,0,0
317183,135.497,-564.932,0,0
317444,133.838,-564.593,0,0
317704,132.224,-564.09,0,0
317964,130.654,-563.623,0,0
318225,129.146,-563.129,0,0
318485,127.646,-562.654,0,0
318745,126.289,-562.058,0,0
319006,124.947,-561.528,0,0
319266,123.523,-560.949,0,0
319526,122.103,-560.443,0,0
319787,120.77,-559.868,0,0
320047,119.317,-559.196,0,0
320307,117.991,-558.493,0,0
320567,116.597,-557.741,0,0
320828,115.221,-556.939,0,0
321088,113.945,-556.075,0,0
321348,112.567,-555.209,0,0
321609,111.288,-554.318,0,0
321869,110.045,-553.197,0,0
322129,108.899,-552.125,0,0
322390,107.749,-551,0,0
322650,106.794,-549.873,0,0
322910,105.749,-548.642,0,0
323171,104.829,-547.492,0,0
323431,103.992,-546.169,0,0
323691,103.272,-544.976,0,0
323952,102.691,-543.715,0,0
324212,102.057,-542.495,0,0
324472,101.508,-541.282,0,0
324733,101.098,-540.172,0,0
324993,100.749,-539.098,0,0
325253,100.458,-537.995,0,0
325514,100.216,-537.054,0,0
325774,99.9443,-536.154,0,0
326034,99.6874,-535.222,0,0
326295,99.4727,-534.399,0,0
326555,99.2396,-533.558,0,0
326815,99.0783,-532.8,0,0
327076,98.9475,-532.054,0,0
327336,98.7387,-531.362,0,0
327596,98.6118,-530.686,0,0
327857,98.4789,-530.131,0,0
328117,98.3242,-529.639,0,0
328377,98.1376,-529.061,0,0
328638,97.9767,-528.61,0,0
328898,97.6974,-528.225,0,0
329158,97.4625,-527.842,0,0
329419,97.1939,-527.399,0,0
329679,96.8718,-527.132,0,0
329939,96.5786,-526.806,0,0
330200,96.238,-526.416,0,0
330460,95.8593,-526.168,0,0
330720.15,95.4716,-525.9,0,0
330980.475,95.0292,-525.607,0,0
331240.8,94.5883,-525.42,0,0
331501.125,94.0391,-525.121,0,0
331761.45,93.4647,-524.881,0,0
332021.775,92.8432,-524.632,0,0
332282.1,92.2435,-524.284,0,0
332542.425,91.5517,-524.034,0,0
332802.75,90.8193,-523.7,0,0
333063.075,90.1348,-523.326,0,0
333323.4,89.3698,-522.944,0,0
333583.725,88.5747,-522.506,0,0
333844.05,87.854,-522.047,0,0
334104.375,87.0462,-521.594,0,0
334364.7,86.2461,-521.088,0,0
334625.025,85.4974,-520.54,0,0
334885.35,84.7215,-519.989,0,0
335145.675,83.8472,-519.394,0,0
335406.0,83.1021,-518.801,0,0
335666.325,82.2896,-518.118,0,0
335926.65,81.5834,-517.377,0,0
336186.975,80.8647,-516.624,0,0
336447.3,80.1467,-515.873,0,0
336707.625,79.4132,-515.171,0,0
336967.95,78.7552,-514.368,0,0
337228.275,78.0797,-513.667,0,0
337488.6,77.4534,-512.865,0,0
337748.925,76.8036,-512.094,0,0
338009.25,76.1055,-511.254,0,0
338269.575,75.4596,-510.443,0,0
338529.9,74.9408,-509.611,0,0
338790.225,74.247,-508.788,0,0
339050.55,73.7014,-507.988,0,0
339310.875,73.1495,-507.088,0,0
339571.2,72.6043,-506.255,0,0
339831.525,72.1227,-505.409,0,0
340091.85,71.6071,-504.539,0,0
340352.175,71.1561,-503.609,0,0
340612.5,70.5992,-502.724,0,0
340872.825,70.3122,-501.909,0,0
341133.15,69.8174,-501.098,0,0
341393.475,69.3586,-500.238,0,0
341653.8,68.9503,-499.441,0,0
341914.125,68.5479,-498.674,0,0
342174.45,68.1272,-497.772,0,0
342434.775,67.7045,-496.973,0,0
342695.1,67.241,-496.176,0,0
342955.425,66.8106,-495.38,0,0
343215.75,66.4253,-494.492,0,0
343476.075,65.9767,-493.697,0,0
343736.4,65.5591,-492.922,0,0
343996.725,65.1266,-492.055,0,0
344257.05,64.7623,-491.243,0,0
344517.375,64.3084,-490.367,0,0
344777.7,63.9182,-489.499,0,0
345038.025,63.4282,-488.694,0,0
345298.35,63.0585,-487.768,0,0
345558.675,62.6857,-486.892,0,0
345819.0,62.3381,-485.956,0,0
346079.325,61.9603,-485.024,0,0
346339.65,61.5855,-484.13,0,0
346599.975,61.3041,-483.202,0,0
346860,60.9927,-482.263,0,0
347121,60.611,-481.362,0,0
347381,60.3252,-480.448,0,0
347641,60.0068,-479.498,0,0
347902,59.7394,-478.536,0,0
348162,59.5003,-477.588,0,0
348422,59.2309,-476.585,0,0
348683,58.9327,-475.634,0,0
348943,58.7037,-474.627,0,0
349203,58.5774,-473.681,0,0
349464,58.3837,-472.75,0,0
349724,58.2501,-471.709,0,0
349984,58.1173,-470.769,0,0
350245,58.0725,-469.802,0,0
350505,57.9481,-468.851,0,0
350765,57.8461,-467.975,0,0
351025,57.8432,-467.106,0,0
351286,57.8041,-466.182,0,0
351546,57.7675,-465.334,0,0
351806,57.694,-464.424,0,0
352067,57.6029,-463.601,0,0
352327,57.5781,-462.714,0,0
352587,57.5678,-461.902,0,0
352848,57.5378,-461.023,0,0
353108,57.457,-460.21,0,0
353368,57.4376,-459.337,0,0
353629,57.4242,-458.517,0,0
353889,57.4583,-457.683,0,0
354149,57.4622,-456.831,0,0
354410,57.457,-456.007,0,0
354670,57.4632,-455.129,0,0
354930,57.4829,-454.306,0,0
355191,57.6056,-453.484,0,0
355451,57.5769,-452.718,0,0
355711,57.6971,-451.916,0,0
355972,57.8055,-451.16,0,0
356232,57.8573,-450.397,0,0
356492,57.9755,-449.631,0,0
356753,58.0781,-448.924,0,0
357013,58.1701,-448.201,0,0
357273,58.2706,-447.449,0,0
357534,58.3011,-446.839,0,0
357794,58.4165,-446.129,0,0
358054,58.5266,-445.491,0,0
358315,58.5078,-444.846,0,0
358575,58.5526,-444.161,0,0
358835,58.6195,-443.55,0,0
359096,58.6299,-442.852,0,0
359356,58.6587,-442.183,0,0
359616,58.6819,-441.48,0,0
359877,58.7295,-440.81,0,0
360137,58.7609,-440.067,0,0
360397,58.9179,-439.37,0,0
360658,59.0043,-438.721,0,0
360918,59.0902,-438.045,0,0
361178,59.1187,-437.377,0,0
361438,59.1807,-436.786,0,0
361699,59.2509,-436.197,0,0
361959,59.2826,-435.551,0,0
362219,59.3251,-434.915,0,0
362480,59.3356,-434.299,0,0
362740.1,59.4125,-433.613,0,0
363000.425,59.4795,-432.932,0,0
363260.75,59.5269,-432.303,0,0
363521.075,59.526,-431.614,0,0
363781.4,59.6332,-430.965,0,0
364041.725,59.602,-430.303,0,0
364302.05,59.6968,-429.645,0,0
364562.375,59.7347,-428.888,0,0
364822.7,59.7766,-428.216,0,0
365083.025,59.8328,-427.511,0,0
365343.35,59.9778,-426.804,0,0
365603.675,60.0727,-426.105,0,0
365864.0,60.1874,-425.42,0,0
366124.325,60.2924,-424.766,0,0
366384.65,60.4318,-424.03,0,0
366644.975,60.4898,-423.363,0,0
366905.3,60.5997,-422.733,0,0
367165.625,60.7096,-421.981,0,0
367425.95,60.7089,-421.292,0,0
367686.275,60.779,-420.505,0,0
367946.6,60.9053,-419.701,0,0
368206.925,61.0423,-418.911,0,0
368467.25,61.1601,-418.02,0,0
368727.575,61.3761,-417.09,0,0
368987.9,61.6569,-416.221,0,0
369248.225,62.0386,-415.262,0,0
369508.55,62.4056,-414.415,0,0
369768.875,62.8986,-413.557,0,0
370029.2,63.4181,-412.769,0,0
370289.525,63.9625,-411.99,0,0
370549.85,64.5224,-411.272,0,0
370810.175,65.0854,-410.632,0,0
371070.5,65.6947,-409.934,0,0
371330.825,66.3516,-409.381,0,0
371591.15,67.0051,-408.797,0,0
371851.475,67.6193,-408.263,0,0
372111.8,68.2785,-407.787,0,0
372372.125,68.9869,-407.32,0,0
372632.45,69.6684,-406.957,0,0
372892.775,70.3709,-406.621,0,0
373153.1,71.037,-406.342,0,0
373413.425,71.7268,-406.129,0,0
373673.75,72.3859,-405.949,0,0
373934.075,72.9993,-405.858,0,0
374194.4,73.5979,-405.793,0,0
374454.725,74.1702,-405.738,0,0
374715.05,74.6053,-405.764,0,0
374975.375,75.0637,-405.743,0,0
375235.7,75.4648,-405.708,0,0
375496.025,75.7856,-405.753,0,0
375756.35,76.1467,-405.709,0,0
376016.675,76.5059,-405.682,0,0
376277.0,76.8114,-405.61,0,0
376537.325,77.1308,-405.59,0,0
376797.65,77.5094,-405.573,0,0
377057.975,77.8223,-405.52,0,0
377318.3,78.1467,-405.497,0,0
377578.625,78.4551,-405.521,0,0
377838.95,78.7847,-405.566,0,0
378099.275,79.0501,-405.605,0,0
378359.6,79.2992,-405.71,0,0
378619.925,79.5557,-405.836,0,0
378880,79.7634,-405.937,0,0
379141,79.9364,-406.031,0,0
379401,80.0213,-406.115,0,0
379661,80.1797,-406.18,0,0
379922,80.3204,-406.177,0,0
380182,80.4347,-406.234,0,0
380442,80.652,-406.286,0,0
380703,80.8948,-406.336,0,0
380963,81.1018,-406.442,0,0
381223,81.3127,-406.604,0,0
381483,81.579,-406.837,0,0
381744,81.7294,-407.144,0,0
382004,81.8379,-407.579,0,0
382264,81.8776,-408.012,0,0
382525,81.7735,-408.465,0,0
382785,81.5774,-408.848,0,0
383045,81.4001,-409.309,0,0
383306,81.1305,-409.59,0,0
383566,80.7567,-409.93,0,0
383826,80.3852,-410.241,0,0
384087,79.8716,-410.513,0,0
384347,79.4267,-410.727,0,0
384607,78.9337,-410.849,0,0
384868,78.3622,-410.959,0,0
385128,77.8437,-411.012,0,0
385388,77.3,-411.013,0,0
385649,76.7299,-411.012,0,0
385909,76.1897,-410.921,0,0
386169,75.5947,-410.899,0,0
386430,75.019,-410.787,0,0
386690,74.3711,-410.622,0,0
386950,73.7348,-410.415,0,0
387211,73.1476,-410.14,0,0
387471,72.5356,-409.823,0,0
387731,71.9596,-409.411,0,0
387992,71.3936,-409,0,0
388252,70.9125,-408.553,0,0
388512,70.4537,-408.041,0,0
388773,70.0204,-407.538,0,0
389033,69.6666,-407.062,0,0
389293,69.3377,-406.538,0,0
389554,69.0616,-406.032,0,0
389814,68.8126,-405.551,0,0
390074,68.5983,-405.077,0,0
390335,68.3947,-404.634,0,0
390595,68.1769,-404.279,0,0
390855,68.0496,-403.863,0,0
391116,67.8364,-403.523,0,0
391376,67.6534,-403.152,0,0
391636,67.4348,-402.862,0,0
391896,67.2084,-402.595,0,0
392157,66.9159,-402.31,0,0
392417,66.6745,-402.017,0,0
392677,66.3618,-401.811,0,0
392938,66.0136,-401.503,0,0
393198,65.5792,-401.196,0,0
393458,65.1896,-400.902,0,0
393719,64.7788,-400.536,0,0
393979,64.2932,-400.124,0,0
394239,63.8782,-399.73,0,0
394500,63.4213,-399.263,0,0
394760.05,63.0078,-398.803,0,0
395020.375,62.5947,-398.304,0,0
395280.7,62.1099,-397.765,0,0
395541.025,61.7455,-397.194,0,0
395801.35,61.3144,-396.606,0,0
396061.675,60.9824,-395.963,0,0
396322.0,60.587,-395.366,0,0
396582.325,60.279,-394.725,0,0
396842.65,59.9261,-394.043,0,0
397102.975,59.6159,-393.382,0,0
397363.3,59.3452,-392.68,0,0
397623.625,59.0475,-392.042,0,0
397883.95,58.892,-391.342,0,0
398144.275,58.5874,-390.653,0,0
398404.6,58.3657,-389.975,0,0
398664.925,58.1501,-389.198,0,0
398925.25,57.9852,-388.51,0,0
399185.575,57.7609,-387.805,0,0
399445.9,57.6243,-387.04,0,0
399706.225,57.4778,-386.318,0,0
399966.55,57.363,-385.568,0,0
400006.6,57.3562,-385.451,0,0