File: Accelerated corrosion test data/2025-10-02_18-00-03/sample_2.csv
Frequency (Hz),Impedance (ohms),Phase (Radians),Temperature (C),Humidity (%)
10000.0,224.603,-11319,0,0
10260.325,218.74,-11034.3,0,0
10520.65,213.308,-10763.2,0,0
10780.975,209.194,-10504.9,0,0
11041.3,203.777,-10259.5,0,0
11301.625,199.511,-10024.4,0,0
11561.95,196.57,-9798.93,0,0
11822.275,193.169,-9588.9,0,0
12082.6,190.806,-9385.56,0,0
12342.925,183.37,-9188.88,0,0
12603.25,179.869,-8999.78,0,0
12863.575,176.355,-8817.48,0,0
13123.9,174.524,-8646.45,0,0
13384.225,169.724,-8476.21,0,0
13644.55,168.093,-8312.96,0,0
13904.875,179.586,-8167.42,0,0
14165.2,161.056,-8016.89,0,0
14425.525,159.17,-7869.02,0,0
14685.8,162.017,-7725.02,0,0
14946.175,158.55,-7598.76,0,0
15206.5,158.802,-7478,0,0
15466.825,163.166,-7345.5,0,0
15727.15,148.428,-7231.69,0,0
15987.5,145.464,-7111.57,0,0
16247.8,145.493,-6997.83,0,0
16508.125,140.803,-6889.32,0,0
16768.45,138.215,-6782.23,0,0
17028.775,136.683,-6679.18,0,0
17289.1,134.885,-6579.45,0,0
17549.425,132.077,-6481.13,0,0
17809.75,130.337,-6386.64,0,0
18070.075,128.594,-6295.06,0,0
18330.4,127.437,-6204.78,0,0
18590.725,126.339,-6117.27,0,0
18851.05,125.266,-6032.06,0,0
19111.375,126.623,-5951.9,0,0
19371.7,125.641,-5874.78,0,0
19632.025,120.968,-5797.37,0,0
19892.35,118.592,-5720.14,0,0
20152.675,117.052,-5645.08,0,0
20413.0,116.489,-5572.02,0,0
20673.3,115.676,-5500.04,0,0
20933.65,116.411,-5429.3,0,0
21193.975,119.541,-5363.18,0,0
21454.3,126.605,-5301.95,0,0
21714.625,125.029,-5244.93,0,0
21974.9,121.015,-5181.09,0,0
22235.275,116.899,-5127.73,0,0
22495.6,112.999,-5067.63,0,0
22755.925,110.288,-5006.99,0,0
23016.25,109.81,-4952.53,0,0
23276.6,110.022,-4897.77,0,0
23536.9,106.45,-4843.6,0,0
23797.225,105.619,-4789.27,0,0
24057.55,104.848,-4739.26,0,0
24317.875,101.016,-4689.34,0,0
24578.2,99.9199,-4638.51,0,0
24838.525,98.1504,-4589.25,0,0
25098.85,97.5633,-4541.16,0,0
25359.175,96.7522,-4493.58,0,0
25619.5,95.3453,-4448.49,0,0
25879.8,94.7133,-4402.3,0,0
26140.1,94.9409,-4357.73,0,0
26400.5,94.6875,-4314.77,0,0
26660.8,94.7971,-4274.23,0,0
26921.1,93.7557,-4231.95,0,0
27181.4,92.419,-4192.51,0,0
27441.8,90.9501,-4152.52,0,0
27702.1,89.3812,-4112.75,0,0
27962.4,89.0879,-4072.9,0,0
28222.7,88.7379,-4034.53,0,0
28483.1,88.3784,-3996.99,0,0
28743.4,87.3606,-3960.19,0,0
29003.7,89.0471,-3922.72,0,0
29264,89.139,-3888.03,0,0
29524.4,92.2888,-3852.38,0,0
29784.7,95.3902,-3825.42,0,0
30045,90.1142,-3793.19,0,0
30305.3,92.6089,-3760.31,0,0
30565.7,88.2599,-3731.5,0,0
30826,86.6726,-3698.88,0,0
31086.3,85.3859,-3667.87,0,0
31346.6,83.691,-3636.97,0,0
31607,84.0321,-3606.72,0,0
31867.3,81.9104,-3577.34,0,0
32127.6,81.0884,-3547.25,0,0
32387.9,81.3343,-3517.16,0,0
32648.3,82.6078,-3489.9,0,0
32908.6,81.8281,-3464.11,0,0
33168.9,80.3897,-3437.13,0,0
33429.2,78.6914,-3409.71,0,0
33689.6,78.6858,-3383.54,0,0
33949.9,77.5378,-3357.8,0,0
34210.2,76.2466,-3331.53,0,0
34470.5,75.2911,-3305.76,0,0
34730.9,74.6365,-3280.45,0,0
34991.2,74.3824,-3255.48,0,0
35251.5,73.8038,-3231.36,0,0
35511.8,73.2475,-3207.36,0,0
35772.2,72.8522,-3183.73,0,0
36032.5,72.3147,-3160.46,0,0
36292.8,71.8314,-3137.24,0,0
36553.1,71.2322,-3114.45,0,0
36813.5,70.8659,-3091.99,0,0
37073.8,70.5651,-3069.97,0,0
37334.1,70.2772,-3048.15,0,0
37594.4,69.7763,-3026.79,0,0
37854.8,69.6203,-3005.61,0,0
38115.1,69.044,-2985.09,0,0
38375.4,68.4261,-2964.42,0,0
38635.7,68.13,-2944.13,0,0
38896.1,67.8425,-2923.83,0,0
39156.4,67.2729,-2904.29,0,0
39416.7,66.8738,-2884.58,0,0
39677,66.6484,-2865.21,0,0
39937.4,66.3244,-2846.06,0,0
40197.7,65.9651,-2827.38,0,0
40458,65.4769,-2808.64,0,0
40718.3,65.3145,-2790.23,0,0
40978.7,65.2231,-2772.26,0,0
41239,65.0666,-2754.34,0,0
41499.3,64.8181,-2736.69,0,0
41759.6,64.4483,-2719.41,0,0
42020,64.2795,-2701.97,0,0
42280.275,64.1565,-2685.32,0,0
42540.6,63.5452,-2668.6,0,0
42800.925,63.3964,-2651.98,0,0
43061.25,63.0965,-2635.32,0,0
43321.575,62.8837,-2619.14,0,0
43581.9,62.754,-2603.11,0,0
43842.225,62.4435,-2587.2,0,0
44102.55,62.3392,-2571.51,0,0
44362.875,62.3541,-2556.43,0,0
44623.2,61.6604,-2541.1,0,0
44883.525,61.221,-2525.64,0,0
45143.85,61.1145,-2510.65,0,0
45404.175,61.0457,-2495.77,0,0
45664.5,60.6013,-2481.35,0,0
45924.825,61.1509,-2466.36,0,0
46185.15,61.0092,-2452.57,0,0
46445.475,60.4914,-2438.59,0,0
46705.8,60.3755,-2424.17,0,0
46966.125,60.1886,-2410.3,0,0
47226.45,60.1737,-2396.67,0,0
47486.775,60.5108,-2382.85,0,0
47747.1,60.0756,-2370.16,0,0
48007.425,59.8098,-2356.29,0,0
48267.75,60.5904,-2343.08,0,0
48528.075,60.7593,-2331.16,0,0
48788.4,60.2993,-2318.83,0,0
49048.725,60.0162,-2306.51,0,0
49309.05,59.3391,-2294.47,0,0
49569.375,58.6571,-2281.85,0,0
49829.7,58.3058,-2269.45,0,0
50090.025,57.6926,-2257.29,0,0
50350.35,57.3832,-2244.89,0,0
50610.675,57.3861,-2232.75,0,0
50871.0,57.2587,-2220.98,0,0
51131.325,57.1995,-2209.4,0,0
51391.65,56.8232,-2198.19,0,0
51651.975,56.4061,-2186.68,0,0
51912.3,55.6896,-2175.33,0,0
52172.625,55.506,-2163.62,0,0
52432.95,54.9606,-2152.25,0,0
52693.275,54.8378,-2141.09,0,0
52953.6,54.6238,-2129.95,0,0
53213.925,54.5746,-2118.93,0,0
53474.25,54.3074,-2108.03,0,0
53734.575,54.1073,-2097.26,0,0
53994.9,53.9897,-2086.41,0,0
54255.225,53.9236,-2075.77,0,0
54515.55,53.9757,-2065.33,0,0
54775.875,53.7433,-2055.06,0,0
55036.2,53.6722,-2044.64,0,0
55296.525,53.6153,-2034.42,0,0
55556.85,53.5677,-2024.33,0,0
55817.175,53.5407,-2014.26,0,0
56077.5,53.4882,-2004.37,0,0
56337.825,53.3861,-1994.44,0,0
56598.15,53.3574,-1984.63,0,0
56858.475,53.4662,-1974.87,0,0
57118.8,53.6479,-1965.42,0,0
57379.125,53.4637,-1955.99,0,0
57639.45,53.511,-1946.41,0,0
57899.775,53.8295,-1937.28,0,0
58160.1,53.735,-1928.15,0,0
58420.4,53.5294,-1918.96,0,0
58680.7,53.6816,-1909.64,0,0
58941.1,53.927,-1900.55,0,0
59201.4,54.0265,-1891.62,0,0
59461.7,54.2733,-1882.69,0,0
59722,54.6376,-1873.78,0,0
59982.4,55.3514,-1865.1,0,0
60242.7,55.8446,-1857.08,0,0
60503,55.5965,-1849.12,0,0
60763.3,55.6903,-1840.39,0,0
61023.7,56.2068,-1831.79,0,0
61284,57.0693,-1823.59,0,0
61544.3,58.1413,-1816.12,0,0
61804.6,58.8056,-1809.41,0,0
62065,58.4647,-1802.99,0,0
62325.3,57.3746,-1795.6,0,0
62585.6,57.1292,-1787.83,0,0
62845.9,57.1493,-1780.71,0,0
63106.3,56.3477,-1773.82,0,0
63366.6,55.6203,-1766.29,0,0
63626.9,54.6528,-1758.86,0,0
63887.2,54.3909,-1750.9,0,0
64147.6,53.8453,-1743.75,0,0
64407.9,52.981,-1736.13,0,0
64668.2,52.3741,-1728.67,0,0
64928.5,51.8944,-1721.15,0,0
65188.9,51.0855,-1713.62,0,0
65449.2,50.4146,-1705.36,0,0
65709.5,50.3498,-1697.43,0,0
65969.8,50.3177,-1689.71,0,0
66230.2,50.3968,-1682.24,0,0
66490.5,50.6413,-1674.77,0,0
66750.8,50.654,-1667.58,0,0
67011.1,50.7131,-1660.01,0,0
67271.5,51.1481,-1652.6,0,0
67531.8,51.7828,-1645.53,0,0
67792.1,52.6231,-1638.67,0,0
68052.4,53.0098,-1632.5,0,0
68312.8,53.0037,-1625.81,0,0
68573.1,53.2903,-1619.14,0,0
68833.4,53.9821,-1612.81,0,0
69093.7,54.1186,-1606.79,0,0
69354.1,54.4905,-1600.39,0,0
69614.4,55.3048,-1594.49,0,0
69874.7,55.5495,-1589.47,0,0
70135,55.1461,-1584.14,0,0
70395.4,54.5846,-1578.9,0,0
70655.7,53.4405,-1573.33,0,0
70916,52.6912,-1566.93,0,0
71176.3,52.4525,-1561.14,0,0
71436.7,51.6771,-1555.66,0,0
71697,50.7075,-1549.92,0,0
71957.3,49.4217,-1543.83,0,0
72217.6,48.3402,-1537.47,0,0
72478,47.3123,-1530.76,0,0
72738.3,46.9056,-1524.4,0,0
72998.6,46.2917,-1517.76,0,0
73258.9,45.779,-1511.45,0,0
73519.3,45.1908,-1504.79,0,0
73779.6,44.9484,-1498.17,0,0
74039.9,44.884,-1491.63,0,0
74300.225,44.8433,-1485.2,0,0
74560.55,44.8624,-1478.89,0,0
74820.875,44.8828,-1472.63,0,0
75081.2,45.0307,-1466.33,0,0
75341.525,45.324,-1460.11,0,0
75601.85,45.6201,-1454.06,0,0
75862.175,45.9518,-1448.06,0,0
76122.5,46.4018,-1442.11,0,0
76382.825,46.8799,-1436.37,0,0
76643.15,47.1629,-1430.68,0,0
76903.475,47.6859,-1424.9,0,0
77163.8,48.2421,-1419.27,0,0
77424.125,48.9766,-1413.79,0,0
77684.45,49.5493,-1408.44,0,0
77944.775,50.3491,-1403.23,0,0
78205.1,51.0527,-1398.23,0,0
78465.425,51.7157,-1393.48,0,0
78725.75,52.2352,-1388.81,0,0
78986.075,52.7965,-1384.43,0,0
79246.4,52.8002,-1380.22,0,0
79506.725,53.0158,-1375.74,0,0
79767.05,52.9935,-1371.81,0,0
80027.375,52.2388,-1367.62,0,0
80287.7,51.5408,-1363.04,0,0
80548.025,50.8331,-1358.26,0,0
80808.35,50.1816,-1353.17,0,0
81068.675,49.8297,-1348.26,0,0
81329.0,49.4569,-1343.22,0,0
81589.325,49.0613,-1338.22,0,0
81849.65,48.7186,-1333.24,0,0
82109.975,48.3441,-1328.17,0,0
82370.3,48.1193,-1323.03,0,0
82630.625,47.8895,-1317.85,0,0
82890.95,47.8746,-1312.77,0,0
83151.275,47.8609,-1307.61,0,0
83411.6,48.0002,-1302.58,0,0
83671.925,48.2647,-1297.64,0,0
83932.25,48.4973,-1292.8,0,0
84192.575,48.724,-1288.16,0,0
84452.9,48.8431,-1283.6,0,0
84713.225,48.9058,-1278.96,0,0
84973.55,49.0364,-1274.25,0,0
85233.875,49.2025,-1269.55,0,0
85494.2,49.5065,-1264.92,0,0
85754.525,49.7967,-1260.48,0,0
86014.85,50.0118,-1256.15,0,0
86275.175,50.1297,-1251.82,0,0
86535.5,50.2617,-1247.49,0,0
86795.825,50.2341,-1243.01,0,0
87056.15,50.6721,-1238.46,0,0
87316.475,51.2029,-1234.45,0,0
87576.8,51.2179,-1230.54,0,0
87837.125,50.9767,-1226.46,0,0
88097.45,50.8907,-1222.06,0,0
88357.775,51.0936,-1217.69,0,0
88618.1,51.3712,-1213.97,0,0
88878.425,50.7514,-1209.83,0,0
89138.75,50.8024,-1205.16,0,0
89399.075,51.0808,-1200.74,0,0
89659.4,51.4051,-1196.42,0,0
89919.725,51.7975,-1192.57,0,0
90180,51.908,-1188.76,0,0
90440.4,51.6647,-1184.93,0,0
90700.7,51.3081,-1180.46,0,0
90961,51.6655,-1175.86,0,0
91221.3,52.3322,-1171.68,0,0
91481.7,52.4974,-1167.93,0,0
91742,52.6652,-1163.9,0,0
92002.3,52.9652,-1159.63,0,0
92262.6,53.7659,-1155.5,0,0
92523,54.4547,-1151.99,0,0
92783.3,54.7777,-1148.38,0,0
93043.6,55.3499,-1144.74,0,0
93303.9,55.8356,-1141.5,0,0
93564.3,56.2387,-1138.22,0,0
93824.6,56.3656,-1135.18,0,0
94084.9,56.0613,-1132.22,0,0
94345.2,55.5868,-1128.7,0,0
94605.6,55.3494,-1124.97,0,0
94865.9,55.3116,-1121.37,0,0
95126.2,55.1259,-1117.97,0,0
95386.5,54.6182,-1114.2,0,0
95646.9,54.4344,-1109.68,0,0
95907.2,55.1841,-1105.44,0,0
96167.5,56.0726,-1101.95,0,0
96427.8,56.6951,-1098.78,0,0
96688.2,57.0787,-1095.77,0,0
96948.5,57.2463,-1092.68,0,0
97208.8,57.5819,-1089.42,0,0
97469.1,57.9679,-1086.69,0,0
97729.5,58.0313,-1084.01,0,0
97989.8,57.882,-1081.28,0,0
98250.1,57.6776,-1078.43,0,0
98510.4,57.4882,-1075.71,0,0
98770.8,57.1851,-1073.2,0,0
99031.1,56.3194,-1070.76,0,0
99291.4,55.1023,-1067.93,0,0
99551.7,53.7904,-1064.74,0,0
99812.1,52.5365,-1061.01,0,0
100072,51.6949,-1057.11,0,0
100333,51.2825,-1053.1,0,0
100593,51.0992,-1049.68,0,0
100853,50.4695,-1046.42,0,0
101114,49.5721,-1043.02,0,0
101374,48.4656,-1039.21,0,0
101634,47.6856,-1034.93,0,0
101895,47.442,-1030.59,0,0
102155,47.4554,-1026.72,0,0
102415,47.0503,-1023.1,0,0
102676,46.5555,-1019.1,0,0
102936,46.2061,-1015.04,0,0
103196,45.8773,-1010.78,0,0
103457,45.8417,-1006.42,0,0
103717,45.9672,-1002.03,0,0
103977,46.3889,-997.67,0,0
104238,47.1471,-993.416,0,0
104498,48.0375,-989.549,0,0
104758,48.8217,-985.971,0,0
105019,49.4325,-982.326,0,0
105279,50.195,-978.692,0,0
105539,51.0023,-975.149,0,0
105800,52.0603,-971.629,0,0
106060,53.2948,-968.414,0,0
106320.175,54.4357,-965.67,0,0
106580.5,55.4418,-963.107,0,0
106840.825,56.2024,-960.855,0,0
107101.15,56.507,-958.616,0,0
107361.475,56.7993,-956.109,0,0
107621.8,57.0733,-953.812,0,0
107882.125,57.1385,-951.625,0,0
108142.45,56.8193,-949.395,0,0
108402.775,56.348,-946.866,0,0
108663.1,56.0031,-944.241,0,0
108923.425,55.5224,-941.741,0,0
109183.75,54.7079,-938.914,0,0
109444.075,54.0608,-935.81,0,0
109704.4,53.5227,-932.679,0,0
109964.725,52.7991,-929.469,0,0
110225.05,52.3798,-925.988,0,0
110485.375,52.0497,-922.428,0,0
110745.7,51.8968,-918.917,0,0
111006.025,51.6709,-915.416,0,0
111266.35,51.5881,-912.013,0,0
111526.675,51.495,-908.578,0,0
111787.0,51.6113,-905.01,0,0
112047.325,51.7268,-901.615,0,0
112307.65,51.8915,-898.226,0,0
112567.975,51.9736,-894.842,0,0
112828.3,52.0928,-891.358,0,0
113088.625,52.378,-887.801,0,0
113348.95,52.703,-884.388,0,0
113609.275,53.1177,-880.963,0,0
113869.6,53.5687,-877.631,0,0
114129.925,54.084,-874.28,0,0
114390.25,54.5864,-871.118,0,0
114650.575,55.0393,-867.917,0,0
114910.9,55.5441,-864.655,0,0
115171.225,56.1713,-861.471,0,0
115431.55,56.7872,-858.353,0,0
115691.875,57.4106,-855.322,0,0
115952.2,58.0364,-852.301,0,0
116212.525,58.6722,-849.208,0,0
116472.85,59.423,-846.163,0,0
116733.175,60.2518,-843.331,0,0
116993.5,61.0131,-840.59,0,0
117253.825,61.6884,-837.872,0,0
117514.15,62.4093,-835.16,0,0
117774.475,63.1551,-832.486,0,0
118034.8,63.8728,-829.931,0,0
118295.125,64.5082,-827.418,0,0
118555.45,65.0894,-824.885,0,0
118815.775,65.814,-822.366,0,0
119076.1,66.4632,-820.064,0,0
119336.425,67.0928,-817.569,0,0
119596.75,67.946,-815.362,0,0
119857.075,68.5421,-813.513,0,0
120117.4,68.7845,-811.552,0,0
120377.725,68.9757,-809.497,0,0
120638.05,69.153,-807.536,0,0
120898.375,68.9379,-805.595,0,0
121158.7,68.6238,-803.201,0,0
121419.025,68.5154,-800.812,0,0
121679.35,68.4104,-798.322,0,0
121939.675,68.3125,-795.898,0,0
122200.0,68.1491,-793.403,0,0
122460,67.9616,-790.815,0,0
122721,67.8439,-788.137,0,0
122981,67.7998,-785.433,0,0
123241,67.8169,-782.82,0,0
123502,67.7612,-780.216,0,0
123762,67.6418,-777.535,0,0
124022,67.5511,-774.787,0,0
124283,67.5221,-772.057,0,0
124543,67.4139,-769.228,0,0
124803,67.3523,-766.372,0,0
125064,67.329,-763.45,0,0
125324,67.3951,-760.503,0,0
125584,67.4862,-757.554,0,0
125845,67.5724,-754.533,0,0
126105,67.7566,-751.483,0,0
126365,68.0631,-748.467,0,0
126626,68.411,-745.469,0,0
126886,68.798,-742.514,0,0
127146,69.1703,-739.579,0,0
127406,69.6719,-736.47,0,0
127667,70.2708,-733.536,0,0
127927,70.9596,-730.799,0,0
128187,71.463,-728.07,0,0
128448,72.1076,-725.421,0,0
128708,72.6426,-722.752,0,0
128968,73.2042,-720.154,0,0
129229,73.733,-717.549,0,0
129489,74.242,-714.953,0,0
129749,74.7594,-712.368,0,0
130010,75.2996,-709.812,0,0
130270,75.8013,-707.335,0,0
130530,76.2338,-704.891,0,0
130791,76.6404,-702.354,0,0
131051,77.0464,-699.872,0,0
131311,77.423,-697.388,0,0
131572,77.7999,-694.889,0,0
131832,78.1051,-692.425,0,0
132092,78.3508,-689.951,0,0
132353,78.5891,-687.416,0,0
132613,78.77,-684.841,0,0
132873,78.9157,-682.174,0,0
133134,79.1556,-679.444,0,0
133394,79.338,-676.662,0,0
133654,79.6668,-673.878,0,0
133915,79.9347,-671.077,0,0
134175,80.2362,-668.264,0,0
134435,80.491,-665.412,0,0
134696,80.9149,-662.472,0,0
134956,81.3471,-659.617,0,0
135216,81.764,-656.773,0,0
135477,82.2033,-653.878,0,0
135737,82.6131,-651.012,0,0
135997,83.0137,-648.066,0,0
136258,83.4543,-645.073,0,0
136518,84.013,-642.103,0,0
136778,84.5279,-639.113,0,0
137039,85.1354,-636.12,0,0
137299,85.7596,-633.161,0,0
137559,86.3312,-630.256,0,0
137819,86.8521,-627.287,0,0
138080,87.4085,-624.272,0,0
138340.125,87.9852,-621.23,0,0
138600.45,88.5553,-618.189,0,0
138860.775,89.0379,-615.08,0,0
139121.1,89.5574,-611.833,0,0
139381.425,90.1723,-608.53,0,0
139641.75,90.8024,-605.192,0,0
139902.075,91.4143,-601.72,0,0
140162.4,92.1504,-598.081,0,0
140422.725,93.0823,-594.306,0,0
140683.05,94.2402,-590.571,0,0
140943.375,95.4911,-586.955,0,0
141203.7,96.7121,-583.236,0,0
141464.025,98.171,-579.389,0,0
141724.35,99.908,-575.577,0,0
141984.675,101.805,-571.974,0,0
142245.0,103.739,-568.521,0,0
142505.325,105.672,-565.083,0,0
142765.65,107.8,-561.628,0,0
143025.975,110.047,-558.416,0,0
143286.3,112.206,-555.369,0,0
143546.625,114.301,-552.302,0,0
143806.95,116.428,-549.18,0,0
144067.275,118.646,-546.067,0,0
144327.6,120.96,-543.027,0,0
144587.925,123.291,-540.035,0,0
144848.25,125.653,-537.022,0,0
145108.575,128.128,-534.045,0,0
145368.9,130.678,-531.1,0,0
145629.225,133.305,-528.246,0,0
145889.55,135.952,-525.431,0,0
146149.875,138.564,-522.658,0,0
146410.2,141.239,-519.777,0,0
146670.525,144.076,-516.855,0,0
146930.85,147.083,-513.921,0,0
147191.175,150.333,-511.062,0,0
147451.5,153.724,-508.329,0,0
147711.825,157.249,-505.702,0,0
147972.15,160.869,-503.2,0,0
148232.475,164.539,-500.73,0,0
148492.8,168.411,-498.169,0,0
148753.125,172.664,-495.583,0,0
149013.45,177.468,-493.15,0,0
149273.775,182.88,-491.294,0,0
149534.1,188.423,-490.215,0,0
149794.425,193.895,-489.721,0,0
150054.75,199.229,-489.71,0,0
150315.075,204.52,-490.062,0,0
150575.4,209.84,-490.991,0,0
150835.725,214.946,-492.663,0,0
151096.05,219.514,-494.939,0,0
151356.375,223.452,-497.537,0,0
151616.7,226.963,-500.253,0,0
151877.025,230.171,-503.324,0,0
152137.35,232.684,-506.763,0,0
152397.675,234.44,-510.26,0,0
152658.0,235.533,-513.649,0,0
152918.325,236.012,-516.743,0,0
153178.65,236.083,-519.569,0,0
153438.975,235.729,-522.07,0,0
153699.3,235.102,-524.191,0,0
153959.625,234.209,-525.998,0,0
154219.95,233.096,-527.332,0,0
154480,231.899,-528.294,0,0
154741,230.763,-528.907,0,0
155001,229.664,-529.24,0,0
155261,228.623,-529.371,0,0
155522,227.723,-529.291,0,0
155782,226.858,-529.115,0,0
156042,225.99,-528.682,0,0
156303,225.237,-528.193,0,0
156563,224.566,-527.769,0,0
156823,223.651,-527.155,0,0
157084,223.114,-526.185,0,0
157344,222.63,-525.362,0,0
157604,221.885,-524.475,0,0
157864,221.404,-523.415,0,0
158125,221.067,-522.356,0,0
158385,220.613,-521.186,0,0
158645,219.91,-519.958,0,0
158906,219.55,-518.202,0,0
159166,219.51,-516.7,0,0
159426,219.206,-515.017,0,0
159687,219.307,-512.848,0,0
159947,220.31,-510.837,0,0
160207,221.078,-509.574,0,0
160468,221.77,-508.145,0,0
160728,222.408,-506.695,0,0
160988,223.408,-504.958,0,0
161249,225.134,-503.278,0,0
161509,227.598,-502.535,0,0
161769,229.854,-502.746,0,0
162030,231.601,-503.641,0,0
162290,232.752,-504.881,0,0
162550,233.716,-506.553,0,0
162811,234.031,-508.849,0,0
163071,232.934,-511.791,0,0
163331,230.115,-513.81,0,0
163592,226.979,-514.399,0,0
163852,224.136,-514.265,0,0
164112,221.349,-513.86,0,0
164373,218.311,-513.38,0,0
164633,215.021,-512.167,0,0
164893,212.034,-510.294,0,0
165154,209.216,-508.443,0,0
165414,206.032,-506.345,0,0
165674,202.745,-503.393,0,0
165935,199.931,-499.773,0,0
166195,197.675,-495.734,0,0
166455,196.117,-491.595,0,0
166716,194.859,-487.697,0,0
166976,193.658,-483.883,0,0
167236,192.541,-479.971,0,0
167497,191.525,-475.994,0,0
167757,190.55,-472.056,0,0
168017,189.491,-467.908,0,0
168277,188.596,-463.221,0,0
168538,188.175,-458.26,0,0
168798,188.32,-453.37,0,0
169058,188.838,-448.758,0,0
169319,189.396,-444.412,0,0
169579,189.824,-440.049,0,0
169839,190.386,-435.589,0,0
170100,191.195,-431.173,0,0
170360.075,191.968,-426.993,0,0
170620.4,192.419,-422.713,0,0
170880.725,192.834,-417.913,0,0
171141.05,193.736,-412.827,0,0
171401.375,195.068,-407.637,0,0
171661.7,196.675,-402.61,0,0
171922.025,198.501,-397.66,0,0
172182.35,200.339,-392.817,0,0
172442.675,202.28,-387.848,0,0
172703.0,204.511,-382.645,0,0
172963.325,207.122,-377.701,0,0
173223.65,209.861,-372.844,0,0
173483.975,212.712,-367.951,0,0
173744.3,215.683,-363.042,0,0
174004.625,218.914,-358.163,0,0
174264.95,222.413,-353.168,0,0
174525.275,226.324,-348.145,0,0
174785.6,230.789,-343.34,0,0
175045.925,235.552,-339.077,0,0
175306.25,240.369,-335.144,0,0
175566.575,245.167,-331.542,0,0
175826.9,249.917,-327.974,0,0
176087.225,254.949,-324.387,0,0
176347.55,260.147,-321.003,0,0
176607.875,265.613,-317.667,0,0
176868.2,271.688,-314.568,0,0
177128.525,278.409,-312.318,0,0
177388.85,285.134,-311.19,0,0
177649.175,291.483,-311.138,0,0
177909.5,296.862,-311.963,0,0
178169.825,300.847,-312.898,0,0
178430.15,303.77,-311.824,0,0
178690.475,308.02,-311.483,0,0
178950.8,312.052,-311.815,0,0
179211.125,315.299,-312.38,0,0
179471.45,318.224,-312.684,0,0
179731.775,320.703,-313.288,0,0
179992.1,322.372,-313.839,0,0
180252.425,323.178,-313.845,0,0
180512.75,323.401,-312.983,0,0
180773.075,323.329,-311.055,0,0
181033.4,323.655,-308.015,0,0
181293.725,324.613,-304.333,0,0
181554.05,326.13,-300.389,0,0
181814.375,327.979,-296.228,0,0
182074.7,330.091,-291.697,0,0
182335.025,332.824,-286.642,0,0
182595.35,336.372,-281.479,0,0
182855.675,340.568,-276.563,0,0
183116.0,345.083,-272.005,0,0
183376.325,349.744,-267.476,0,0
183636.65,354.72,-262.907,0,0
183896.975,359.958,-258.316,0,0
184157.3,365.585,-253.725,0,0
184417.625,371.784,-249.119,0,0
184677.95,378.449,-244.666,0,0
184938.275,385.708,-240.552,0,0
185198.6,393.323,-236.891,0,0
185458.925,401.21,-233.617,0,0
185719.25,409.47,-230.813,0,0
185979.575,417.952,-228.679,0,0
186239.9,426.273,-227.394,0,0
186500,433.763,-226.399,0,0
186761,440.79,-225.197,0,0
187021,447.786,-223.317,0,0
187281,455.54,-220.862,0,0
187542,464.58,-218.719,0,0
187802,473.956,-218.005,0,0
188062,482.63,-218.03,0,0
188322,490.551,-218.304,0,0
188583,498.115,-218.081,0,0
188843,506.025,-217.392,0,0
189103,514.269,-216.711,0,0
189364,522.869,-216.269,0,0
189624,531.204,-215.995,0,0
189884,539.715,-215.455,0,0
190145,548.309,-214.558,0,0
190405,557.88,-213.29,0,0
190665,568.251,-212.286,0,0
190926,579.295,-211.555,0,0
191186,591.229,-211.336,0,0
191446,603.876,-212.094,0,0
191707,616.657,-213.777,0,0
191967,629.538,-216.091,0,0
192227,642.604,-218.918,0,0
192488,656.157,-222.286,0,0
192748,670.271,-226.724,0,0
193008,684.394,-232.505,0,0
193269,698.343,-239.349,0,0
193529,711.92,-247.528,0,0
193789,724.471,-256.6,0,0
194050,736.309,-265.899,0,0
194310,747.896,-275.705,0,0
194570,758.942,-285.979,0,0
194831,769.468,-296.524,0,0
195091,779.967,-307.487,0,0
195351,790.202,-319.296,0,0
195612,799.718,-331.889,0,0
195872,808.096,-344.901,0,0
196132,815.621,-357.558,0,0
196393,823.171,-369.906,0,0
196653,831.072,-382.772,0,0
196913,838.636,-396.57,0,0
197174,845.554,-411.117,0,0
197434,851.459,-426.188,0,0
197694,856.21,-441.172,0,0
197955,860.621,-455.815,0,0
198215,865.127,-470.432,0,0
198475,869.819,-486.02,0,0
198735,873.564,-502.811,0,0
198996,875.89,-520.215,0,0
199256,876.801,-537.55,0,0
199516,876.3,-554.674,0,0
199777,874.851,-570.847,0,0
200037,873.865,-586.2,0,0
200297,872.825,-602.416,0,0
200558,870.625,-619.33,0,0
200818,867.217,-636.184,0,0
201078,862.907,-652.916,0,0
201339,857.529,-669.565,0,0
201599,850.921,-685.659,0,0
201859,843.268,-701.175,0,0
202120,835.001,-715.936,0,0
202380.025,825.578,-730.309,0,0
202640.35,814.976,-743.862,0,0
202900.675,803.482,-755.864,0,0
203161.0,791.885,-766.234,0,0
203421.325,780.37,-775.392,0,0
203681.65,769.12,-783.566,0,0
203941.975,758.293,-790.853,0,0
204202.3,747.813,-797.416,0,0
204462.625,738.042,-803.339,0,0
204722.95,729.1,-809.568,0,0
204983.275,719.958,-816.486,0,0
205243.6,709.918,-823.569,0,0
205503.925,699.035,-829.878,0,0
205764.25,687.538,-835.095,0,0
206024.575,676.131,-838.875,0,0
206284.9,665.409,-841.711,0,0
206545.225,655.157,-844.033,0,0
206805.55,645.534,-845.861,0,0
207065.875,636.443,-847.369,0,0
207326.2,627.813,-848.758,0,0
207586.525,619.536,-850.001,0,0
207846.85,611.332,-851.162,0,0
208107.175,603.555,-851.746,0,0
208367.5,596.619,-852.26,0,0
208627.825,590.215,-853.222,0,0
208888.15,583.993,-854.575,0,0
209148.475,577.887,-856.238,0,0
209408.8,571.675,-858.409,0,0
209669.125,564.999,-860.839,0,0
209929.45,557.61,-863.435,0,0
210189.775,549.694,-865.463,0,0
210450.1,541.664,-866.972,0,0
210710.425,533.622,-868.168,0,0
210970.75,525.269,-869.048,0,0
211231.075,516.618,-869.386,0,0
211491.4,507.946,-869.015,0,0
211751.725,499.417,-867.677,0,0
212012.05,491.531,-865.619,0,0
212272.375,484.461,-863.277,0,0
212532.7,478.061,-860.976,0,0
212793.025,471.986,-859.075,0,0
213053.35,465.96,-856.924,0,0
213313.675,460.072,-854.517,0,0
213574.0,454.582,-852.087,0,0
213834.325,449.443,-849.544,0,0
214094.65,444.567,-847.139,0,0
214354.975,439.908,-844.708,0,0
214615.3,435.451,-842.334,0,0
214875.625,431.085,-840.028,0,0
215135.95,426.877,-837.874,0,0
215396.275,422.672,-835.633,0,0
215656.6,418.501,-833.268,0,0
215916.925,414.513,-830.667,0,0
216177.25,410.811,-828.095,0,0
216437.575,407.307,-825.427,0,0
216697.9,403.961,-822.839,0,0
216958.225,400.764,-820.219,0,0
217218.55,397.8,-817.483,0,0
217478.875,395.094,-814.802,0,0
217739.2,392.63,-812.196,0,0
217999.525,390.337,-809.729,0,0
218259.85,388.055,-807.37,0,0
218520,385.946,-805.05,0,0
218780,383.957,-802.646,0,0
219041,382.163,-800.326,0,0
219301,380.58,-798.105,0,0
219561,379.13,-796.031,0,0
219822,377.743,-794.048,0,0
220082,376.373,-792.158,0,0
220342,375.167,-790.334,0,0
220603,373.922,-788.556,0,0
220863,372.773,-786.641,0,0
221123,371.859,-784.83,0,0
221384,371.172,-783.028,0,0
221644,370.702,-781.425,0,0
221904,370.468,-779.977,0,0
222165,370.421,-778.792,0,0
222425,370.549,-777.918,0,0
222685,370.618,-777.426,0,0
222946,370.595,-777.2,0,0
223206,370.486,-777.183,0,0
223466,370.321,-777.436,0,0
223727,369.82,-777.901,0,0
223987,369.216,-778.343,0,0
224247,368.444,-778.683,0,0
224508,367.556,-779.22,0,0
224768,366.578,-779.537,0,0
225028,365.59,-780.048,0,0
225289,364.537,-780.541,0,0
225549,363.454,-780.844,0,0
225809,362.468,-781.077,0,0
226070,361.722,-781.422,0,0
226330,361.013,-782.114,0,0
226590,360.25,-782.853,0,0
226851,359.339,-783.865,0,0
227111,358.445,-784.882,0,0
227371,357.412,-785.975,0,0
227632,356.351,-787.156,0,0
227892,355.244,-788.538,0,0
228152,354.065,-790.054,0,0
228413,352.733,-791.875,0,0
228673,351.189,-793.67,0,0
228933,349.392,-795.655,0,0
229193,347.241,-797.797,0,0
229454,344.846,-799.874,0,0
229714,342.098,-801.748,0,0
229974,339.284,-803.627,0,0
230235,336.138,-805.285,0,0
230495,332.919,-806.846,0,0
230755,329.479,-808.3,0,0
231016,325.912,-809.592,0,0
231276,322.104,-810.684,0,0
231536,318.254,-811.495,0,0
231797,314.498,-812.02,0,0
232057,310.659,-812.51,0,0
232317,306.818,-812.859,0,0
232578,303.043,-813.008,0,0
232838,299.203,-813.082,0,0
233098,295.439,-813.041,0,0
233359,291.615,-812.8,0,0
233619,287.868,-812.461,0,0
233879,284.169,-812.005,0,0
234140,280.541,-811.564,0,0
234400,276.9,-811.019,0,0
234660.3,273.32,-810.435,0,0
234920.625,269.707,-809.87,0,0
235180.95,265.952,-809.125,0,0
235441.275,262.156,-808.188,0,0
235701.6,258.51,-807.124,0,0
235961.925,254.943,-805.914,0,0
236222.25,251.331,-804.627,0,0
236482.575,247.906,-803.305,0,0
236742.9,244.575,-801.918,0,0
237003.225,241.207,-800.517,0,0
237263.55,237.797,-798.983,0,0
237523.875,234.463,-797.294,0,0
237784.2,231.216,-795.498,0,0
238044.525,228.154,-793.561,0,0
238304.85,225.216,-791.686,0,0
238565.175,222.337,-789.735,0,0
238825.5,219.583,-787.89,0,0
239085.825,216.772,-786.011,0,0
239346.15,213.991,-784.051,0,0
239606.475,211.375,-782.038,0,0
239866.8,208.859,-779.95,0,0
240127.125,206.268,-777.931,0,0
240387.45,203.827,-775.79,0,0
240647.775,201.478,-773.597,0,0
240908.1,199.127,-771.356,0,0
241168.425,196.933,-769.162,0,0
241428.75,194.928,-766.938,0,0
241689.075,192.965,-764.768,0,0
241949.4,191.054,-762.747,0,0
242209.725,189.146,-760.691,0,0
242470.05,187.315,-758.606,0,0
242730.375,185.541,-756.529,0,0
242990.7,183.869,-754.52,0,0
243251.025,182.244,-752.571,0,0
243511.35,180.616,-750.716,0,0
243771.675,178.97,-748.87,0,0
244032.0,177.471,-747.182,0,0
244292.325,175.795,-745.49,0,0
244552.65,174.135,-743.855,0,0
244812.975,172.407,-742.24,0,0
245073.3,170.641,-740.558,0,0
245333.625,168.95,-739.019,0,0
245593.95,167.123,-737.509,0,0
245854.275,165.191,-735.952,0,0
246114.6,163.185,-734.553,0,0
246374.925,161.003,-733.126,0,0
246635.25,158.533,-731.47,0,0
246895.575,156.015,-729.596,0,0
247155.9,153.457,-727.48,0,0
247416.225,151.05,-725.103,0,0
247676.55,148.692,-722.62,0,0
247936.875,146.526,-719.998,0,0
248197.2,144.426,-717.382,0,0
248457.525,142.388,-714.653,0,0
248717.85,140.371,-711.864,0,0
248978.175,138.541,-708.929,0,0
249238.5,136.761,-705.901,0,0
249498.825,135.053,-702.884,0,0
249759.15,133.513,-699.748,0,0
250019.475,132.116,-696.602,0,0
250279.8,130.788,-693.336,0,0
250540,129.617,-690.12,0,0
250800,128.587,-686.905,0,0
251061,127.684,-683.706,0,0
251321,126.867,-680.551,0,0
251581,126.135,-677.417,0,0
251842,125.481,-674.255,0,0
252102,124.845,-671.084,0,0
252362,124.309,-667.918,0,0
252623,123.934,-664.753,0,0
252883,123.658,-661.612,0,0
253143,123.488,-658.54,0,0
253404,123.364,-655.489,0,0
253664,123.293,-652.462,0,0
253924,123.299,-649.418,0,0
254185,123.377,-646.424,0,0
254445,123.549,-643.432,0,0
254705,123.809,-640.423,0,0
254966,124.173,-637.455,0,0
255226,124.691,-634.495,0,0
255486,125.231,-631.598,0,0
255747,125.923,-628.794,0,0
256007,126.724,-626.045,0,0
256267,127.599,-623.367,0,0
256528,128.496,-620.773,0,0
256788,129.488,-618.242,0,0
257048,130.549,-615.75,0,0
257309,131.705,-613.358,0,0
257569,132.922,-611.059,0,0
257829,134.228,-608.861,0,0
258090,135.508,-606.786,0,0
258350,136.84,-604.785,0,0
258610,138.108,-602.885,0,0
258871,139.443,-600.974,0,0
259131,140.84,-599.087,0,0
259391,142.273,-597.277,0,0
259651,143.84,-595.511,0,0
259912,145.482,-593.886,0,0
260172,147.106,-592.383,0,0
260432,148.855,-590.957,0,0
260693,150.582,-589.615,0,0
260953,152.381,-588.383,0,0
261213,154.238,-587.31,0,0
261474,156.162,-586.422,0,0
261734,158.054,-585.733,0,0
261994,159.888,-585.204,0,0
262255,161.665,-584.842,0,0
262515,163.302,-584.631,0,0
262775,164.878,-584.469,0,0
263036,166.388,-584.34,0,0
263296,167.865,-584.351,0,0
263556,169.296,-584.494,0,0
263817,170.614,-584.804,0,0
264077,171.832,-585.252,0,0
264337,172.834,-585.862,0,0
264598,173.606,-586.491,0,0
264858,174.161,-587.105,0,0
265118,174.517,-587.665,0,0
265379,174.73,-588.227,0,0
265639,174.721,-588.652,0,0
265899,174.627,-588.929,0,0
266160,174.404,-588.998,0,0
266420,174.205,-588.905,0,0
266680.25,174.101,-588.704,0,0
266940.575,174.022,-588.425,0,0
267200.9,174.019,-588.166,0,0
267461.225,173.991,-587.891,0,0
267721.55,173.943,-587.657,0,0
267981.875,173.837,-587.37,0,0
268242.2,173.669,-587.029,0,0
268502.525,173.456,-586.591,0,0
268762.85,173.179,-586.073,0,0
269023.175,172.857,-585.414,0,0
269283.5,172.512,-584.52,0,0
269543.825,172.249,-583.422,0,0
269804.15,172.205,-582.107,0,0
270064.475,172.36,-580.689,0,0
270324.8,172.77,-579.204,0,0
270585.125,173.425,-577.711,0,0
270845.45,174.331,-576.241,0,0
271105.775,175.44,-574.865,0,0
271366.1,176.739,-573.618,0,0
271626.425,178.204,-572.515,0,0
271886.75,179.767,-571.527,0,0
272147.075,181.422,-570.674,0,0
272407.4,183.192,-569.877,0,0
272667.725,185.126,-569.193,0,0
272928.05,187.204,-568.617,0,0
273188.375,189.473,-568.199,0,0
273448.7,191.957,-567.938,0,0
273709.025,194.663,-568.001,0,0
273969.35,197.582,-568.401,0,0
274229.675,200.621,-569.29,0,0
274490.0,203.686,-570.685,0,0
274750.325,206.601,-572.614,0,0
275010.65,209.279,-575.02,0,0
275270.975,211.675,-577.83,0,0
275531.3,213.745,-581.033,0,0
275791.625,215.356,-584.592,0,0
276051.95,216.454,-588.443,0,0
276312.275,217,-592.381,0,0
276572.6,217,-596.389,0,0
276832.925,216.463,-600.324,0,0
277093.25,215.377,-604.116,0,0
277353.575,213.887,-607.619,0,0
277613.9,212.054,-610.82,0,0
277874.225,209.991,-613.72,0,0
278134.55,207.693,-616.295,0,0
278394.875,205.336,-618.523,0,0
278655.2,202.938,-620.532,0,0
278915.525,200.459,-622.294,0,0
279175.85,197.974,-623.867,0,0
279436.175,195.523,-625.245,0,0
279696.5,193.075,-626.498,0,0
279956.825,190.553,-627.623,0,0
280217.15,188.131,-628.629,0,0
280477.475,185.658,-629.542,0,0
280737.8,183.153,-630.395,0,0
280998.125,180.587,-631.18,0,0
281258.45,177.968,-631.875,0,0
281518.775,175.311,-632.465,0,0
281779.1,172.58,-632.966,0,0
282039.425,169.745,-633.385,0,0
282299.75,166.777,-633.652,0,0
282560,163.705,-633.718,0,0
282820,160.502,-633.566,0,0
283081,157.265,-633.045,0,0
283341,154.085,-632.17,0,0
283601,151.119,-630.928,0,0
283862,148.518,-629.446,0,0
284122,146.289,-627.961,0,0
284382,144.359,-626.651,0,0
284643,142.485,-625.608,0,0
284903,140.415,-624.721,0,0
285163,138.217,-623.8,0,0
285424,135.73,-622.742,0,0
285684,133.25,-621.46,0,0
285944,130.688,-619.978,0,0
286205,128.163,-618.307,0,0
286465,125.639,-616.395,0,0
286725,123.135,-614.207,0,0
286986,120.742,-611.713,0,0
287246,118.49,-608.909,0,0
287506,116.476,-605.826,0,0
287767,114.755,-602.474,0,0
288027,113.369,-598.889,0,0
288287,112.392,-595.149,0,0
288548,111.835,-591.27,0,0
288808,111.739,-587.329,0,0
289068,112.148,-583.431,0,0
289329,113.051,-579.614,0,0
289589,114.462,-575.995,0,0
289849,116.385,-572.642,0,0
290109,118.777,-569.731,0,0
290370,121.467,-567.365,0,0
290630,124.357,-565.596,0,0
290890,127.325,-564.392,0,0
291151,130.204,-563.723,0,0
291411,132.891,-563.498,0,0
291671,135.435,-563.629,0,0
291932,137.788,-564.121,0,0
292192,139.983,-564.922,0,0
292452,141.925,-566.081,0,0
292713,143.567,-567.564,0,0
292973,144.801,-569.379,0,0
293233,145.503,-571.387,0,0
293494,145.566,-573.403,0,0
293754,145.068,-575.18,0,0
294014,144.16,-576.578,0,0
294275,142.983,-577.471,0,0
294535,141.738,-577.795,0,0
294795,140.759,-577.63,0,0
295056,140.196,-577.084,0,0
295316,140.225,-576.495,0,0
295576,140.751,-576.144,0,0
295837,141.617,-576.236,0,0
296097,142.613,-576.889,0,0
296357,143.449,-578.152,0,0
296618,143.896,-579.875,0,0
296878,143.79,-581.877,0,0
297138,143.102,-583.938,0,0
297399,141.876,-585.816,0,0
297659,140.238,-587.382,0,0
297919,138.401,-588.559,0,0
298180,136.482,-589.387,0,0
298440,134.603,-589.93,0,0
298700.2,132.785,-590.275,0,0
298960.525,131.043,-590.486,0,0
299220.85,129.34,-590.62,0,0
299481.175,127.664,-590.687,0,0
299741.5,125.977,-590.698,0,0
300001.825,124.238,-590.602,0,0
300262.15,122.481,-590.354,0,0
300522.475,120.74,-589.927,0,0
300782.8,119.102,-589.338,0,0
301043.125,117.594,-588.652,0,0
301303.45,116.221,-587.889,0,0
301563.775,114.979,-587.079,0,0
301824.1,113.907,-586.229,0,0
302084.425,113.001,-585.419,0,0
302344.75,112.251,-584.725,0,0
302605.075,111.595,-584.175,0,0
302865.4,110.98,-583.797,0,0
303125.725,110.306,-583.59,0,0
303386.05,109.535,-583.516,0,0
303646.375,108.623,-583.513,0,0
303906.7,107.579,-583.554,0,0
304167.025,106.404,-583.551,0,0
304427.35,105.124,-583.538,0,0
304687.675,103.734,-583.484,0,0
304948.0,102.252,-583.374,0,0
305208.325,100.626,-583.141,0,0
305468.65,98.9321,-582.783,0,0
305728.975,97.2316,-582.276,0,0
305989.3,95.533,-581.648,0,0
306249.625,93.8508,-580.907,0,0
306509.95,92.1928,-580.06,0,0
306770.275,90.6012,-579.1,0,0
307030.6,89.0604,-578.065,0,0
307290.925,87.6002,-576.952,0,0
307551.25,86.221,-575.816,0,0
307811.575,84.9103,-574.641,0,0
308071.9,83.6489,-573.452,0,0
308332.225,82.4315,-572.253,0,0
308592.55,81.2488,-571.041,0,0
308852.875,80.1057,-569.796,0,0
309113.2,79,-568.538,0,0
309373.525,77.9325,-567.22,0,0
309633.85,76.9163,-565.9,0,0
309894.175,75.9494,-564.579,0,0
310154.5,75.0281,-563.254,0,0
310414.825,74.1175,-561.911,0,0
310675.15,73.2535,-560.566,0,0
310935.475,72.4296,-559.181,0,0
311195.8,71.6805,-557.778,0,0
311456.125,70.9635,-556.375,0,0
311716.45,70.3259,-554.986,0,0
311976.775,69.7357,-553.633,0,0
312237.1,69.1889,-552.276,0,0
312497.425,68.6768,-550.964,0,0
312757.75,68.1747,-549.686,0,0
313018.075,67.7028,-548.424,0,0
313278.4,67.2314,-547.169,0,0
313538.725,66.7725,-545.932,0,0
313799.05,66.3399,-544.71,0,0
314059.375,65.911,-543.498,0,0
314319.7,65.5317,-542.29,0,0
314580,65.1099,-541.071,0,0
314840,64.7667,-539.981,0,0
315101,64.3787,-538.784,0,0
315361,63.9733,-537.622,0,0
315621,63.6074,-536.453,0,0
315882,63.2485,-535.259,0,0
316142,62.9056,-534.1,0,0
316402,62.5434,-532.927,0,0
316663,62.3285,-531.704,0,0
316923,62.105,-530.588,0,0
317183,61.8311,-529.442,0,0
317444,61.731,-528.291,0,0
317704,61.4626,-527.208,0,0
317964,61.3232,-526.063,0,0
318225,61.1662,-525.054,0,0
318485,61.0045,-524.098,0,0
318745,60.9014,-523.064,0,0
319006,60.7182,-522.117,0,0
319266,60.6007,-521.124,0,0
319526,60.3524,-520.24,0,0
319787,60.077,-519.243,0,0
320047,59.9023,-518.279,0,0
320307,59.6689,-517.339,0,0
320567,59.4347,-516.38,0,0
320828,59.2128,-515.431,0,0
321088,58.9316,-514.433,0,0
321348,58.6818,-513.525,0,0
321609,58.4549,-512.521,0,0
321869,58.233,-511.561,0,0
322129,57.9818,-510.547,0,0
322390,57.7562,-509.589,0,0
322650,57.4744,-508.548,0,0
322910,57.1809,-507.522,0,0
323171,56.8626,-506.447,0,0
323431,56.6293,-505.257,0,0
323691,56.3326,-504.061,0,0
323952,56.0633,-502.85,0,0
324212,55.9556,-501.473,0,0
324472,55.9114,-500.18,0,0
324733,55.9496,-498.811,0,0
324993,56.0305,-497.476,0,0
325253,56.2678,-496.081,0,0
325514,56.6759,-494.754,0,0
325774,57.1101,-493.5,0,0
326034,57.6231,-492.341,0,0
326295,58.1753,-491.267,0,0
326555,58.8903,-490.364,0,0
326815,59.5339,-489.53,0,0
327076,60.1156,-488.867,0,0
327336,60.6534,-488.301,0,0
327596,61.1402,-487.809,0,0
327857,61.5258,-487.342,0,0
328117,61.9179,-486.852,0,0
328377,62.2068,-486.37,0,0
328638,62.4783,-485.965,0,0
328898,62.7956,-485.541,0,0
329158,62.9955,-485.129,0,0
329419,63.2657,-484.699,0,0
329679,63.5,-484.363,0,0
329939,63.7229,-484.035,0,0
330200,63.8992,-483.76,0,0
330460,64.0384,-483.465,0,0
330720.15,64.1601,-483.206,0,0
330980.475,64.2487,-482.985,0,0
331240.8,64.3274,-482.787,0,0
331501.125,64.3019,-482.626,0,0
331761.45,64.253,-482.447,0,0
332021.775,64.1148,-482.36,0,0
332282.1,63.9077,-482.282,0,0
332542.425,63.6995,-482.094,0,0
332802.75,63.3183,-481.908,0,0
333063.075,62.9208,-481.637,0,0
333323.4,62.488,-481.349,0,0
333583.725,62.034,-480.954,0,0
333844.05,61.5469,-480.532,0,0
334104.375,61.0926,-480.053,0,0
334364.7,60.6649,-479.576,0,0
334625.025,60.1752,-479.016,0,0
334885.35,59.6761,-478.366,0,0
335145.675,59.2901,-477.749,0,0
335406.0,58.8594,-477.106,0,0
335666.325,58.3988,-476.388,0,0
335926.65,58.0689,-475.703,0,0
336186.975,57.6156,-474.917,0,0
336447.3,57.2876,-474.211,0,0
336707.625,56.9437,-473.389,0,0
336967.95,56.6293,-472.604,0,0
337228.275,56.3142,-471.779,0,0
337488.6,56.0696,-470.875,0,0
337748.925,55.7858,-470.033,0,0
338009.25,55.5762,-469.152,0,0
338269.575,55.3367,-468.296,0,0
338529.9,55.1392,-467.468,0,0
338790.225,55.051,-466.557,0,0
339050.55,54.9119,-465.616,0,0
339310.875,54.7481,-464.81,0,0
339571.2,54.7128,-463.905,0,0
339831.525,54.6635,-463.069,0,0
340091.85,54.5694,-462.2,0,0
340352.175,54.5762,-461.316,0,0
340612.5,54.5352,-460.535,0,0
340872.825,54.5018,-459.653,0,0
341133.15,54.491,-458.795,0,0
341393.475,54.4829,-457.973,0,0
341653.8,54.5009,-457.119,0,0
341914.125,54.6088,-456.28,0,0
342174.45,54.6542,-455.484,0,0
342434.775,54.6913,-454.618,0,0
342695.1,54.8057,-453.812,0,0
342955.425,54.9302,-453.036,0,0
343215.75,55.0394,-452.182,0,0
343476.075,55.1643,-451.382,0,0
343736.4,55.3083,-450.607,0,0
343996.725,55.4665,-449.825,0,0
344257.05,55.6159,-449.045,0,0
344517.375,55.8819,-448.299,0,0
344777.7,56.0568,-447.565,0,0
345038.025,56.2385,-446.814,0,0
345298.35,56.4999,-446.105,0,0
345558.675,56.7585,-445.417,0,0
345819.0,56.9228,-444.782,0,0
346079.325,57.1583,-444.115,0,0
346339.65,57.4545,-443.436,0,0
346599.975,57.6673,-442.816,0,0
346860,57.9501,-442.151,0,0
347121,58.1878,-441.554,0,0
347381,58.4448,-440.989,0,0
347641,58.7315,-440.332,0,0
347902,58.9826,-439.771,0,0
348162,59.2374,-439.216,0,0
348422,59.4611,-438.62,0,0
348683,59.7554,-438.025,0,0
348943,60.0685,-437.478,0,0
349203,60.3656,-436.928,0,0
349464,60.7314,-436.381,0,0
349724,61.0808,-435.877,0,0
349984,61.398,-435.396,0,0
350245,61.7847,-434.974,0,0
350505,62.161,-434.584,0,0
350765,62.4757,-434.231,0,0
351025,62.7996,-433.863,0,0
351286,63.0975,-433.596,0,0
351546,63.3747,-433.285,0,0
351806,63.5834,-432.919,0,0
352067,63.8442,-432.661,0,0
352327,63.9994,-432.367,0,0
352587,64.2349,-432.035,0,0
352848,64.4081,-431.741,0,0
353108,64.6628,-431.415,0,0
353368,64.7993,-431.09,0,0
353629,65.0182,-430.777,0,0
353889,65.1862,-430.497,0,0
354149,65.3654,-430.221,0,0
354410,65.5431,-429.883,0,0
354670,65.7072,-429.6,0,0
354930,65.9091,-429.348,0,0
355191,66.0568,-429.034,0,0
355451,66.1433,-428.775,0,0
355711,66.2941,-428.469,0,0
355972,66.435,-428.144,0,0
356232,66.5815,-427.863,0,0
356492,66.7354,-427.513,0,0
356753,66.9025,-427.211,0,0
357013,67.1307,-426.883,0,0
357273,67.3961,-426.575,0,0
357534,67.6358,-426.267,0,0
357794,67.8206,-426.077,0,0
358054,68.1144,-425.814,0,0
358315,68.3934,-425.604,0,0
358575,68.7032,-425.452,0,0
358835,69.0087,-425.332,0,0
359096,69.3449,-425.227,0,0
359356,69.5616,-425.272,0,0
359616,69.848,-425.304,0,0
359877,69.9805,-425.449,0,0
360137,70.1269,-425.485,0,0
360397,70.2106,-425.592,0,0
360658,70.2221,-425.661,0,0
360918,70.2221,-425.822,0,0
361178,70.2041,-425.875,0,0
361438,70.058,-425.924,0,0
361699,69.9224,-425.96,0,0
361959,69.8214,-426.017,0,0
362219,69.6679,-426.018,0,0
362480,69.484,-426,0,0
362740.1,69.3363,-426.082,0,0
363000.425,69.111,-426.053,0,0
363260.75,68.9475,-426.095,0,0
363521.075,68.6618,-426.1,0,0
363781.4,68.3191,-426.055,0,0
364041.725,67.9974,-426.004,0,0
364302.05,67.651,-425.893,0,0
364562.375,67.2642,-425.783,0,0
364822.7,66.9119,-425.609,0,0
365083.025,66.582,-425.44,0,0
365343.35,66.1886,-425.178,0,0
365603.675,65.8441,-424.953,0,0
365864.0,65.4856,-424.652,0,0
366124.325,65.0758,-424.297,0,0
366384.65,64.7892,-423.936,0,0
366644.975,64.4762,-423.54,0,0
366905.3,64.2144,-423.134,0,0
367165.625,63.9948,-422.656,0,0
367425.95,63.8094,-422.284,0,0
367686.275,63.6662,-421.862,0,0
367946.6,63.5393,-421.43,0,0
368206.925,63.4688,-421.06,0,0
368467.25,63.4186,-420.687,0,0
368727.575,63.332,-420.429,0,0
368987.9,63.2764,-420.094,0,0
369248.225,63.2552,-419.931,0,0
369508.55,63.148,-419.688,0,0
369768.875,63.0669,-419.514,0,0
370029.2,62.8958,-419.355,0,0
370289.525,62.7357,-419.186,0,0
370549.85,62.503,-419.021,0,0
370810.175,62.2781,-418.796,0,0
371070.5,62.0021,-418.6,0,0
371330.825,61.7511,-418.323,0,0
371591.15,61.4718,-418.054,0,0
371851.475,61.2664,-417.824,0,0
372111.8,61.033,-417.542,0,0
372372.125,60.7909,-417.298,0,0
372632.45,60.5133,-417,0,0
372892.775,60.3169,-416.721,0,0
373153.1,60.0646,-416.418,0,0
373413.425,59.8239,-416.168,0,0
373673.75,59.5815,-415.934,0,0
373934.075,59.3269,-415.669,0,0
374194.4,59.0729,-415.382,0,0
374454.725,58.8161,-415.118,0,0
374715.05,58.5056,-414.836,0,0
374975.375,58.1984,-414.542,0,0
375235.7,57.9082,-414.299,0,0
375496.025,57.5205,-413.978,0,0
375756.35,57.21,-413.598,0,0
376016.675,56.8291,-413.22,0,0
376277.0,56.5441,-412.899,0,0
376537.325,56.2606,-412.471,0,0
376797.65,56.0407,-412.076,0,0
377057.975,55.7952,-411.698,0,0
377318.3,55.6094,-411.378,0,0
377578.625,55.3882,-411.065,0,0
377838.95,55.1775,-410.81,0,0
378099.275,54.8917,-410.576,0,0
378359.6,54.5224,-410.402,0,0
378619.925,54.1158,-410.184,0,0
378880,53.6117,-409.91,0,0
379141,53.0546,-409.607,0,0
379401,52.419,-409.22,0,0
379661,51.824,-408.683,0,0
379922,51.2329,-408.056,0,0
380182,50.6863,-407.307,0,0
380442,50.2628,-406.485,0,0
380703,50.0235,-405.619,0,0
380963,49.8443,-404.773,0,0
381223,49.8342,-404.036,0,0
381483,49.8767,-403.358,0,0
381744,49.9142,-402.852,0,0
382004,49.8707,-402.423,0,0
382264,49.9018,-402.009,0,0
382525,49.7782,-401.664,0,0
382785,49.6314,-401.326,0,0
383045,49.4959,-400.941,0,0
383306,49.185,-400.599,0,0
383566,48.9896,-400.218,0,0
383826,48.7227,-399.816,0,0
384087,48.4479,-399.375,0,0
384347,48.1658,-398.943,0,0
384607,47.8255,-398.545,0,0
384868,47.5352,-398.029,0,0
385128,47.277,-397.563,0,0
385388,46.9392,-397.042,0,0
385649,46.6173,-396.566,0,0
385909,46.3226,-396.046,0,0
386169,46.0113,-395.464,0,0
386430,45.6894,-394.893,0,0
386690,45.3444,-394.287,0,0
386950,45.0568,-393.62,0,0
387211,44.7876,-392.963,0,0
387471,44.4995,-392.284,0,0
387731,44.3117,-391.612,0,0
387992,44.0878,-390.873,0,0
388252,43.9334,-390.154,0,0
388512,43.7831,-389.384,0,0
388773,43.6544,-388.668,0,0
389033,43.6217,-387.944,0,0
389293,43.5872,-387.211,0,0
389554,43.6224,-386.502,0,0
389814,43.6633,-385.796,0,0
390074,43.7302,-385.151,0,0
390335,43.8664,-384.543,0,0
390595,43.9744,-384.031,0,0
390855,44.1216,-383.52,0,0
391116,44.2058,-383.098,0,0
391376,44.299,-382.756,0,0
391636,44.3422,-382.403,0,0
391896,44.3024,-382.078,0,0
392157,44.2213,-381.764,0,0
392417,44.0525,-381.497,0,0
392677,43.8662,-381.155,0,0
392938,43.5757,-380.798,0,0
393198,43.2877,-380.377,0,0
393458,43.0195,-379.924,0,0
393719,42.6727,-379.411,0,0
393979,42.3536,-378.896,0,0
394239,42.0275,-378.287,0,0
394500,41.7367,-377.603,0,0
394760.05,41.4395,-376.9,0,0
395020.375,41.2201,-376.233,0,0
395280.7,40.9961,-375.449,0,0
395541.025,40.8408,-374.705,0,0
395801.35,40.7075,-373.967,0,0
396061.675,40.6084,-373.204,0,0
396322.0,40.5337,-372.43,0,0
396582.325,40.471,-371.686,0,0
396842.65,40.4241,-370.928,0,0
397102.975,40.4216,-370.174,0,0
397363.3,40.4456,-369.424,0,0
397623.625,40.4894,-368.712,0,0
397883.95,40.5066,-367.958,0,0
398144.275,40.55,-367.249,0,0
398404.6,40.6266,-366.557,0,0
398664.925,40.7118,-365.849,0,0
398925.25,40.8187,-365.195,0,0
399185.575,40.9024,-364.526,0,0
399445.9,41.012,-363.873,0,0
399706.225,41.1346,-363.247,0,0
399966.55,41.2369,-362.621,0,0
400006.6,41.2635,-362.513,0,0