File: Accelerated corrosion test data/2025-10-03_18-00-02/sample_2.csv
Frequency (Hz),Impedance (ohms),Phase (Radians),Temperature (C),Humidity (%)
10000.0,224.546,-11300.8,0,0
10260.325,219.808,-11016,0,0
10520.65,214.563,-10745.8,0,0
10780.975,210.149,-10487.9,0,0
11041.3,204.725,-10242.9,0,0
11301.625,200.573,-10008.4,0,0
11561.95,197.599,-9783.73,0,0
11822.275,193.536,-9573.89,0,0
12082.6,191.516,-9370.41,0,0
12342.925,184.379,-9174.3,0,0
12603.25,180.515,-8985.26,0,0
12863.575,177.421,-8803.17,0,0
13123.9,174.7,-8632.2,0,0
13384.225,171.038,-8463.18,0,0
13644.55,168.872,-8299.43,0,0
13904.875,179.68,-8157.96,0,0
14165.2,162.756,-8003.13,0,0
14425.525,159.801,-7856.63,0,0
14685.8,163.002,-7712.75,0,0
14946.175,159.407,-7585.77,0,0
15206.5,158.105,-7465.84,0,0
15466.825,164.473,-7334.99,0,0
15727.15,149.079,-7219.95,0,0
15987.5,146.007,-7099.93,0,0
16247.8,146.594,-6986.98,0,0
16508.125,141.222,-6878.44,0,0
16768.45,138.913,-6771.47,0,0
17028.775,137.467,-6668.6,0,0
17289.1,135.554,-6569.19,0,0
17549.425,132.845,-6471.22,0,0
17809.75,131.184,-6376.59,0,0
18070.075,130.051,-6284.72,0,0
18330.4,127.903,-6194.74,0,0
18590.725,126.843,-6107.53,0,0
18851.05,125.772,-6022.81,0,0
19111.375,127.029,-5942.48,0,0
19371.7,125.977,-5865.76,0,0
19632.025,121.42,-5787.92,0,0
19892.35,119.141,-5711.16,0,0
20152.675,117.578,-5636.23,0,0
20413.0,116.971,-5563.51,0,0
20673.3,116.3,-5491.54,0,0
20933.65,117.082,-5420.9,0,0
21193.975,119.608,-5355.01,0,0
21454.3,126.296,-5294.89,0,0
21714.625,124.615,-5236.86,0,0
21974.9,122.147,-5173.6,0,0
22235.275,116.777,-5119.16,0,0
22495.6,113.441,-5059.52,0,0
22755.925,111.45,-4999.11,0,0
23016.25,110.099,-4944.55,0,0
23276.6,110.024,-4890.77,0,0
23536.9,106.725,-4836.16,0,0
23797.225,105.483,-4782.47,0,0
24057.55,104.726,-4731.39,0,0
24317.875,101.848,-4681.49,0,0
24578.2,99.9402,-4631.01,0,0
24838.525,98.9498,-4582.18,0,0
25098.85,98.1263,-4533.86,0,0
25359.175,97.1248,-4486.79,0,0
25619.5,96.0499,-4441.17,0,0
25879.8,95.2098,-4394.95,0,0
26140.1,95.6168,-4351.35,0,0
26400.5,94.8573,-4307.52,0,0
26660.8,94.604,-4267.54,0,0
26921.1,94.3627,-4225.17,0,0
27181.4,92.8543,-4186.31,0,0
27441.8,91.2001,-4145.85,0,0
27702.1,89.4814,-4106.33,0,0
27962.4,89.2126,-4067.02,0,0
28222.7,88.8211,-4028.53,0,0
28483.1,88.7404,-3990.93,0,0
28743.4,87.5859,-3953.83,0,0
29003.7,89.8841,-3916.76,0,0
29264,89.9872,-3881.61,0,0
29524.4,93.2195,-3846.8,0,0
29784.7,94.8781,-3819.97,0,0
30045,90.776,-3786.47,0,0
30305.3,93.3295,-3754.64,0,0
30565.7,88.9294,-3725.46,0,0
30826,86.7276,-3693.64,0,0
31086.3,85.9075,-3661.97,0,0
31346.6,84.0736,-3630.76,0,0
31607,84.2142,-3601.14,0,0
31867.3,82.0339,-3571.67,0,0
32127.6,81.4833,-3541.57,0,0
32387.9,81.788,-3511.58,0,0
32648.3,83.301,-3484.63,0,0
32908.6,81.8563,-3458.48,0,0
33168.9,80.7381,-3431.65,0,0
33429.2,79.053,-3404.4,0,0
33689.6,78.7471,-3378.25,0,0
33949.9,77.8438,-3352.79,0,0
34210.2,76.3972,-3326.53,0,0
34470.5,75.7585,-3300.8,0,0
34730.9,75.0547,-3275.5,0,0
34991.2,74.7023,-3250.5,0,0
35251.5,73.9601,-3226.49,0,0
35511.8,73.4217,-3202.32,0,0
35772.2,73.0468,-3178.78,0,0
36032.5,72.5438,-3155.54,0,0
36292.8,72.1992,-3132.37,0,0
36553.1,71.4756,-3109.97,0,0
36813.5,71.1407,-3087.25,0,0
37073.8,70.8799,-3065.13,0,0
37334.1,70.4422,-3043.53,0,0
37594.4,70.2816,-3022.3,0,0
37854.8,70.1032,-3001.14,0,0
38115.1,69.0649,-2980.48,0,0
38375.4,68.7449,-2959.9,0,0
38635.7,68.2925,-2939.48,0,0
38896.1,68.0644,-2919.43,0,0
39156.4,67.6425,-2899.71,0,0
39416.7,67.1749,-2880.08,0,0
39677,66.9875,-2860.87,0,0
39937.4,66.6673,-2841.79,0,0
40197.7,66.1632,-2823.08,0,0
40458,65.7867,-2804.32,0,0
40718.3,65.6811,-2785.8,0,0
40978.7,65.4793,-2767.94,0,0
41239,65.2348,-2750.13,0,0
41499.3,64.8212,-2732.41,0,0
41759.6,64.748,-2715.06,0,0
42020,64.5187,-2697.91,0,0
42280.275,64.4486,-2681.12,0,0
42540.6,63.7571,-2664.4,0,0
42800.925,63.5446,-2647.83,0,0
43061.25,63.4203,-2631.15,0,0
43321.575,63.2832,-2614.93,0,0
43581.9,62.9868,-2599.04,0,0
43842.225,62.7606,-2583.29,0,0
44102.55,62.788,-2567.86,0,0
44362.875,62.1148,-2552.58,0,0
44623.2,61.7975,-2536.9,0,0
44883.525,61.3171,-2521.91,0,0
45143.85,61.6996,-2506.82,0,0
45404.175,61.3457,-2491.85,0,0
45664.5,60.8722,-2477.15,0,0
45924.825,61.2808,-2462.46,0,0
46185.15,61.2851,-2448.74,0,0
46445.475,60.6605,-2434.81,0,0
46705.8,60.5345,-2420.48,0,0
46966.125,60.446,-2406.47,0,0
47226.45,60.3271,-2392.87,0,0
47486.775,60.6046,-2379.39,0,0
47747.1,60.2939,-2366.18,0,0
48007.425,60.1047,-2352.66,0,0
48267.75,60.7641,-2339.53,0,0
48528.075,61.2069,-2327.72,0,0
48788.4,60.5368,-2315.44,0,0
49048.725,60.2632,-2303.19,0,0
49309.05,59.391,-2290.9,0,0
49569.375,58.7964,-2278.33,0,0
49829.7,58.604,-2265.83,0,0
50090.025,58.0667,-2253.88,0,0
50350.35,57.7015,-2241.47,0,0
50610.675,57.612,-2229.38,0,0
50871.0,57.5646,-2217.52,0,0
51131.325,57.3628,-2206.09,0,0
51391.65,56.9951,-2194.8,0,0
51651.975,56.5384,-2183.47,0,0
51912.3,55.9811,-2171.78,0,0
52172.625,55.7225,-2160.36,0,0
52432.95,55.1978,-2148.94,0,0
52693.275,55.0804,-2137.72,0,0
52953.6,54.912,-2126.67,0,0
53213.925,54.729,-2115.54,0,0
53474.25,54.5287,-2104.76,0,0
53734.575,54.364,-2093.95,0,0
53994.9,54.2615,-2083.16,0,0
54255.225,54.1464,-2072.58,0,0
54515.55,54.1406,-2062.17,0,0
54775.875,53.9979,-2051.75,0,0
55036.2,53.8946,-2041.51,0,0
55296.525,53.9077,-2031.28,0,0
55556.85,53.7579,-2021.21,0,0
55817.175,53.8044,-2011.09,0,0
56077.5,53.6512,-2001.29,0,0
56337.825,53.5335,-1991.34,0,0
56598.15,53.5578,-1981.58,0,0
56858.475,53.7411,-1971.87,0,0
57118.8,53.8383,-1962.23,0,0
57379.125,53.7489,-1952.86,0,0
57639.45,53.8602,-1943.39,0,0
57899.775,54.0191,-1934.25,0,0
58160.1,53.8493,-1925.15,0,0
58420.4,53.8121,-1915.91,0,0
58680.7,53.9144,-1906.66,0,0
58941.1,54.0873,-1897.51,0,0
59201.4,54.331,-1888.73,0,0
59461.7,54.5337,-1879.71,0,0
59722,54.8751,-1870.77,0,0
59982.4,55.5748,-1862.33,0,0
60242.7,55.9525,-1854.37,0,0
60503,55.697,-1846.14,0,0
60763.3,55.951,-1837.36,0,0
61023.7,56.4922,-1828.97,0,0
61284,57.371,-1820.9,0,0
61544.3,58.3611,-1813.36,0,0
61804.6,58.8983,-1806.73,0,0
62065,58.4473,-1800.15,0,0
62325.3,57.7014,-1792.54,0,0
62585.6,57.6144,-1785.03,0,0
62845.9,57.3536,-1778.23,0,0
63106.3,56.4092,-1771.03,0,0
63366.6,55.6836,-1763.58,0,0
63626.9,54.8601,-1755.82,0,0
63887.2,54.5634,-1748.3,0,0
64147.6,54.0573,-1741.12,0,0
64407.9,53.2434,-1733.5,0,0
64668.2,52.6341,-1726.03,0,0
64928.5,51.873,-1718.65,0,0
65188.9,50.8671,-1710.82,0,0
65449.2,50.4894,-1702.61,0,0
65709.5,50.5612,-1694.68,0,0
65969.8,50.7396,-1686.97,0,0
66230.2,50.7198,-1679.64,0,0
66490.5,50.7885,-1672.19,0,0
66750.8,50.8719,-1664.9,0,0
67011.1,50.964,-1657.41,0,0
67271.5,51.4272,-1650.02,0,0
67531.8,52.1496,-1642.83,0,0
67792.1,53.017,-1636.14,0,0
68052.4,53.1733,-1630.11,0,0
68312.8,53.0352,-1623.34,0,0
68573.1,53.6479,-1616.69,0,0
68833.4,54.0306,-1610.41,0,0
69093.7,54.2362,-1604.18,0,0
69354.1,54.7936,-1597.81,0,0
69614.4,55.614,-1592.19,0,0
69874.7,55.7762,-1587.06,0,0
70135,55.4625,-1581.95,0,0
70395.4,54.5925,-1576.56,0,0
70655.7,53.5887,-1570.73,0,0
70916,52.9825,-1564.48,0,0
71176.3,52.6917,-1558.72,0,0
71436.7,51.9212,-1553.22,0,0
71697,50.8394,-1547.65,0,0
71957.3,49.4798,-1541.5,0,0
72217.6,48.2736,-1534.94,0,0
72478,47.6306,-1528.24,0,0
72738.3,46.992,-1521.91,0,0
72998.6,46.5109,-1515.41,0,0
73258.9,45.9079,-1509.08,0,0
73519.3,45.3452,-1502.37,0,0
73779.6,45.0486,-1495.76,0,0
74039.9,45.0132,-1489.23,0,0
74300.225,45.0935,-1482.81,0,0
74560.55,45.0997,-1476.49,0,0
74820.875,45.1255,-1470.21,0,0
75081.2,45.3136,-1463.96,0,0
75341.525,45.5779,-1457.83,0,0
75601.85,45.8502,-1451.73,0,0
75862.175,46.1936,-1445.69,0,0
76122.5,46.6696,-1439.86,0,0
76382.825,46.9912,-1434.17,0,0
76643.15,47.3789,-1428.42,0,0
76903.475,47.9239,-1422.64,0,0
77163.8,48.4887,-1417.04,0,0
77424.125,49.1273,-1411.57,0,0
77684.45,49.8013,-1406.19,0,0
77944.775,50.4656,-1401.04,0,0
78205.1,51.2372,-1396.04,0,0
78465.425,51.8578,-1391.35,0,0
78725.75,52.3901,-1386.58,0,0
78986.075,52.944,-1382.3,0,0
79246.4,53.0137,-1377.93,0,0
79506.725,53.3377,-1373.55,0,0
79767.05,53.1471,-1369.77,0,0
80027.375,52.389,-1365.45,0,0
80287.7,51.6826,-1360.85,0,0
80548.025,50.9307,-1356.08,0,0
80808.35,50.3942,-1351.01,0,0
81068.675,49.971,-1346.1,0,0
81329.0,49.6081,-1341.08,0,0
81589.325,49.2096,-1336.13,0,0
81849.65,48.8271,-1331.05,0,0
82109.975,48.5242,-1326.04,0,0
82370.3,48.2712,-1320.89,0,0
82630.625,48.1276,-1315.77,0,0
82890.95,48.0429,-1310.59,0,0
83151.275,48.1295,-1305.52,0,0
83411.6,48.2683,-1300.49,0,0
83671.925,48.4991,-1295.53,0,0
83932.25,48.7087,-1290.77,0,0
84192.575,48.9315,-1286.14,0,0
84452.9,49.0205,-1281.56,0,0
84713.225,49.0822,-1276.8,0,0
84973.55,49.2001,-1272.12,0,0
85233.875,49.4635,-1267.43,0,0
85494.2,49.744,-1262.91,0,0
85754.525,50.0667,-1258.52,0,0
86014.85,50.221,-1254.18,0,0
86275.175,50.3851,-1249.82,0,0
86535.5,50.3391,-1245.41,0,0
86795.825,50.5443,-1240.91,0,0
87056.15,50.9931,-1236.45,0,0
87316.475,51.433,-1232.55,0,0
87576.8,51.3919,-1228.69,0,0
87837.125,51.1605,-1224.46,0,0
88097.45,51.1796,-1220.05,0,0
88357.775,51.6159,-1215.82,0,0
88618.1,51.4439,-1212.16,0,0
88878.425,50.9515,-1207.79,0,0
89138.75,51.0538,-1203.11,0,0
89399.075,51.254,-1198.72,0,0
89659.4,51.6913,-1194.68,0,0
89919.725,52.0183,-1190.72,0,0
90180,52.0749,-1186.97,0,0
90440.4,51.7446,-1183,0,0
90700.7,51.53,-1178.41,0,0
90961,51.9688,-1173.94,0,0
91221.3,52.5297,-1169.98,0,0
91481.7,52.6611,-1166.06,0,0
91742,52.8352,-1161.99,0,0
92002.3,53.2075,-1157.75,0,0
92262.6,53.9799,-1153.71,0,0
92523,54.5569,-1150.17,0,0
92783.3,54.9454,-1146.46,0,0
93043.6,55.6059,-1142.91,0,0
93303.9,55.9975,-1139.69,0,0
93564.3,56.2821,-1136.37,0,0
93824.6,56.3956,-1133.26,0,0
94084.9,56.3577,-1130.17,0,0
94345.2,55.9187,-1126.91,0,0
94605.6,55.6419,-1123.12,0,0
94865.9,55.7174,-1119.59,0,0
95126.2,55.2793,-1116.24,0,0
95386.5,54.6614,-1112.2,0,0
95646.9,54.8047,-1107.68,0,0
95907.2,55.6521,-1103.72,0,0
96167.5,56.3556,-1100.32,0,0
96427.8,56.9405,-1097.13,0,0
96688.2,57.2615,-1094.13,0,0
96948.5,57.3953,-1090.95,0,0
97208.8,57.857,-1087.77,0,0
97469.1,58.2304,-1085.02,0,0
97729.5,58.1923,-1082.38,0,0
97989.8,57.9878,-1079.6,0,0
98250.1,57.747,-1076.79,0,0
98510.4,57.6796,-1073.99,0,0
98770.8,57.3273,-1071.62,0,0
99031.1,56.3673,-1069.11,0,0
99291.4,55.2385,-1066.29,0,0
99551.7,53.834,-1063.03,0,0
99812.1,52.6404,-1059.2,0,0
100072,51.9028,-1055.31,0,0
100333,51.6068,-1051.44,0,0
100593,51.3349,-1048.14,0,0
100853,50.5674,-1044.9,0,0
101114,49.5548,-1041.44,0,0
101374,48.4738,-1037.46,0,0
101634,47.8292,-1033.1,0,0
101895,47.7319,-1028.96,0,0
102155,47.5448,-1025.24,0,0
102415,47.0289,-1021.4,0,0
102676,46.652,-1017.45,0,0
102936,46.2303,-1013.34,0,0
103196,46.0206,-1008.98,0,0
103457,46.0142,-1004.71,0,0
103717,46.1235,-1000.3,0,0
103977,46.603,-995.952,0,0
104238,47.3332,-991.757,0,0
104498,48.202,-987.955,0,0
104758,48.9213,-984.356,0,0
105019,49.6152,-980.592,0,0
105279,50.3789,-977.076,0,0
105539,51.2007,-973.425,0,0
105800,52.3509,-969.915,0,0
106060,53.6014,-966.921,0,0
106320.175,54.6655,-964.185,0,0
106580.5,55.5834,-961.68,0,0
106840.825,56.2702,-959.312,0,0
107101.15,56.5989,-956.969,0,0
107361.475,57.0501,-954.447,0,0
107621.8,57.3311,-952.247,0,0
107882.125,57.2596,-950.134,0,0
108142.45,56.9103,-947.795,0,0
108402.775,56.5282,-945.248,0,0
108663.1,56.1906,-942.752,0,0
108923.425,55.5537,-940.231,0,0
109183.75,54.7317,-937.272,0,0
109444.075,54.1725,-934.188,0,0
109704.4,53.5419,-931.126,0,0
109964.725,52.9145,-927.73,0,0
110225.05,52.5725,-924.258,0,0
110485.375,52.2259,-920.77,0,0
110745.7,51.9956,-917.235,0,0
111006.025,51.9471,-913.9,0,0
111266.35,51.842,-910.31,0,0
111526.675,51.6832,-906.827,0,0
111787.0,51.9127,-903.358,0,0
112047.325,52.0263,-900.015,0,0
112307.65,52.1377,-896.626,0,0
112567.975,52.1583,-893.212,0,0
112828.3,52.3748,-889.647,0,0
113088.625,52.6809,-886.168,0,0
113348.95,52.9928,-882.782,0,0
113609.275,53.3793,-879.355,0,0
113869.6,53.9309,-875.99,0,0
114129.925,54.3833,-872.779,0,0
114390.25,54.8473,-869.53,0,0
114650.575,55.3712,-866.332,0,0
114910.9,55.865,-863.11,0,0
115171.225,56.5106,-859.944,0,0
115431.55,57.1681,-856.887,0,0
115691.875,57.7764,-853.847,0,0
115952.2,58.4077,-850.808,0,0
116212.525,59.0494,-847.75,0,0
116472.85,59.82,-844.748,0,0
116733.175,60.6892,-841.97,0,0
116993.5,61.3922,-839.264,0,0
117253.825,62.0904,-836.542,0,0
117514.15,62.8022,-833.889,0,0
117774.475,63.5251,-831.241,0,0
118034.8,64.1734,-828.724,0,0
118295.125,64.7828,-826.238,0,0
118555.45,65.4069,-823.677,0,0
118815.775,66.1426,-821.192,0,0
119076.1,66.7276,-818.866,0,0
119336.425,67.3355,-816.452,0,0
119596.75,68.1292,-814.329,0,0
119857.075,68.6391,-812.442,0,0
120117.4,68.8676,-810.419,0,0
120377.725,69.0753,-808.385,0,0
120638.05,69.114,-806.475,0,0
120898.375,68.8546,-804.355,0,0
121158.7,68.6651,-801.965,0,0
121419.025,68.5547,-799.56,0,0
121679.35,68.4291,-797.179,0,0
121939.675,68.2695,-794.72,0,0
122200.0,68.0892,-792.189,0,0
122460,67.898,-789.547,0,0
122721,67.8072,-786.87,0,0
122981,67.7351,-784.18,0,0
123241,67.7265,-781.513,0,0
123502,67.6732,-778.895,0,0
123762,67.5676,-776.199,0,0
124022,67.4618,-773.446,0,0
124283,67.3662,-770.657,0,0
124543,67.3189,-767.824,0,0
124803,67.2872,-764.918,0,0
125064,67.2852,-762.002,0,0
125324,67.3675,-759.06,0,0
125584,67.4535,-756.099,0,0
125845,67.5897,-753.068,0,0
126105,67.8102,-750.026,0,0
126365,68.1345,-747.041,0,0
126626,68.4953,-744.025,0,0
126886,68.8762,-741.08,0,0
127146,69.2646,-738.148,0,0
127406,69.8087,-735.112,0,0
127667,70.482,-732.296,0,0
127927,71.0114,-729.547,0,0
128187,71.5449,-726.866,0,0
128448,72.1044,-724.148,0,0
128708,72.6573,-721.489,0,0
128968,73.1619,-718.894,0,0
129229,73.7048,-716.266,0,0
129489,74.1837,-713.702,0,0
129749,74.6659,-711.094,0,0
130010,75.1611,-708.53,0,0
130270,75.6292,-706.054,0,0
130530,76.0617,-703.591,0,0
130791,76.4167,-701.011,0,0
131051,76.8203,-698.466,0,0
131311,77.1733,-695.97,0,0
131572,77.5491,-693.455,0,0
131832,77.8504,-690.947,0,0
132092,78.1197,-688.446,0,0
132353,78.3225,-685.913,0,0
132613,78.4917,-683.292,0,0
132873,78.6759,-680.558,0,0
133134,78.8892,-677.813,0,0
133394,79.1257,-675.004,0,0
133654,79.4253,-672.201,0,0
133915,79.7259,-669.367,0,0
134175,80.0311,-666.492,0,0
134435,80.3464,-663.58,0,0
134696,80.8198,-660.654,0,0
134956,81.2535,-657.791,0,0
135216,81.6767,-654.894,0,0
135477,82.092,-651.995,0,0
135737,82.5938,-649.033,0,0
135997,83.1107,-646.102,0,0
136258,83.5875,-643.168,0,0
136518,84.1121,-640.192,0,0
136778,84.6916,-637.198,0,0
137039,85.2828,-634.207,0,0
137299,85.9271,-631.231,0,0
137559,86.5182,-628.312,0,0
137819,87.0923,-625.347,0,0
138080,87.6507,-622.323,0,0
138340.125,88.2477,-619.25,0,0
138600.45,88.8294,-616.21,0,0
138860.775,89.3461,-613.075,0,0
139121.1,89.9206,-609.795,0,0
139381.425,90.5721,-606.495,0,0
139641.75,91.2115,-603.16,0,0
139902.075,91.8922,-599.65,0,0
140162.4,92.6935,-596.034,0,0
140422.725,93.6434,-592.281,0,0
140683.05,94.8339,-588.591,0,0
140943.375,96.0389,-584.893,0,0
141203.7,97.3391,-581.128,0,0
141464.025,98.8857,-577.319,0,0
141724.35,100.611,-573.566,0,0
141984.675,102.522,-569.919,0,0
142245.0,104.494,-566.42,0,0
142505.325,106.522,-562.882,0,0
142765.65,108.81,-559.454,0,0
143025.975,111.122,-556.323,0,0
143286.3,113.329,-553.275,0,0
143546.625,115.507,-550.237,0,0
143806.95,117.705,-547.15,0,0
144067.275,120.016,-544.111,0,0
144327.6,122.351,-541.138,0,0
144587.925,124.7,-538.137,0,0
144848.25,127.147,-535.126,0,0
145108.575,129.7,-532.165,0,0
145368.9,132.367,-529.262,0,0
145629.225,135.123,-526.483,0,0
145889.55,137.819,-523.829,0,0
146149.875,140.489,-521.117,0,0
146410.2,143.228,-518.29,0,0
146670.525,146.15,-515.441,0,0
146930.85,149.26,-512.607,0,0
147191.175,152.568,-509.885,0,0
147451.5,156.015,-507.251,0,0
147711.825,159.631,-504.76,0,0
147972.15,163.271,-502.465,0,0
148232.475,166.956,-500.085,0,0
148492.8,170.887,-497.651,0,0
148753.125,175.213,-495.233,0,0
149013.45,180.125,-493.004,0,0
149273.775,185.543,-491.44,0,0
149534.1,191.036,-490.612,0,0
149794.425,196.461,-490.39,0,0
150054.75,201.652,-490.662,0,0
150315.075,206.841,-491.217,0,0
150575.4,211.99,-492.438,0,0
150835.725,216.788,-494.328,0,0
151096.05,221.144,-496.69,0,0
151356.375,224.877,-499.413,0,0
151616.7,228.285,-502.252,0,0
151877.025,231.181,-505.595,0,0
152137.35,233.309,-509.154,0,0
152397.675,234.676,-512.665,0,0
152658.0,235.396,-516.007,0,0
152918.325,235.549,-518.988,0,0
153178.65,235.31,-521.655,0,0
153438.975,234.779,-523.952,0,0
153699.3,233.952,-525.932,0,0
153959.625,232.872,-527.593,0,0
154219.95,231.606,-528.826,0,0
154480,230.264,-529.559,0,0
154741,228.967,-529.944,0,0
155001,227.819,-530.175,0,0
155261,226.733,-530.021,0,0
155522,225.709,-529.802,0,0
155782,224.75,-529.335,0,0
156042,223.909,-528.762,0,0
156303,223.184,-528.175,0,0
156563,222.508,-527.602,0,0
156823,221.592,-526.865,0,0
157084,221.003,-525.667,0,0
157344,220.462,-524.689,0,0
157604,219.689,-523.482,0,0
157864,219.406,-522.034,0,0
158125,219.42,-520.792,0,0
158385,219.165,-519.77,0,0
158645,218.644,-518.368,0,0
158906,218.548,-516.766,0,0
159166,218.503,-515.419,0,0
159426,218.275,-513.712,0,0
159687,218.69,-511.712,0,0
159947,219.443,-510.134,0,0
160207,220.049,-508.826,0,0
160468,220.461,-507.317,0,0
160728,221.283,-505.68,0,0
160988,222.346,-503.917,0,0
161249,224.139,-502.47,0,0
161509,226.258,-501.909,0,0
161769,228.164,-501.919,0,0
162030,229.875,-502.451,0,0
162290,231.37,-503.551,0,0
162550,232.534,-505.432,0,0
162811,232.56,-508.148,0,0
163071,230.786,-510.959,0,0
163331,227.903,-512.28,0,0
163592,224.951,-512.593,0,0
163852,222.19,-512.344,0,0
164112,219.472,-511.903,0,0
164373,216.456,-511.127,0,0
164633,213.41,-509.744,0,0
164893,210.729,-507.939,0,0
165154,207.826,-506.311,0,0
165414,204.582,-504.006,0,0
165674,201.337,-500.978,0,0
165935,198.537,-497.185,0,0
166195,196.414,-493.16,0,0
166455,194.868,-489.016,0,0
166716,193.553,-485.07,0,0
166976,192.427,-481.07,0,0
167236,191.345,-477.073,0,0
167497,190.445,-473.092,0,0
167757,189.471,-469.006,0,0
168017,188.541,-464.657,0,0
168277,187.834,-459.883,0,0
168538,187.653,-454.969,0,0
168798,188.002,-450.178,0,0
169058,188.512,-445.69,0,0
169319,189.016,-441.343,0,0
169579,189.481,-436.922,0,0
169839,190.124,-432.495,0,0
170100,190.975,-428.083,0,0
170360.075,191.619,-423.883,0,0
170620.4,192.095,-419.411,0,0
170880.725,192.651,-414.5,0,0
171141.05,193.776,-409.284,0,0
171401.375,195.283,-404.19,0,0
171661.7,197.009,-399.199,0,0
171922.025,198.844,-394.314,0,0
172182.35,200.718,-389.482,0,0
172442.675,202.69,-384.486,0,0
172703.0,205.056,-379.265,0,0
172963.325,207.667,-374.3,0,0
173223.65,210.414,-369.403,0,0
173483.975,213.311,-364.492,0,0
173744.3,216.403,-359.478,0,0
174004.625,219.783,-354.474,0,0
174264.95,223.451,-349.461,0,0
174525.275,227.536,-344.501,0,0
174785.6,232.136,-339.75,0,0
175045.925,237.02,-335.444,0,0
175306.25,241.965,-331.651,0,0
175566.575,246.795,-328.016,0,0
175826.9,251.668,-324.383,0,0
176087.225,256.801,-320.876,0,0
176347.55,262.243,-317.323,0,0
176607.875,268.138,-314.087,0,0
176868.2,274.553,-311.305,0,0
177128.525,281.403,-309.387,0,0
177388.85,288.239,-308.699,0,0
177649.175,294.403,-309.077,0,0
177909.5,299.501,-310.021,0,0
178169.825,303.389,-310.93,0,0
178430.15,306.239,-310.06,0,0
178690.475,310.336,-309.92,0,0
178950.8,314.106,-310.26,0,0
179211.125,317.338,-310.663,0,0
179471.45,320.285,-311.113,0,0
179731.775,322.624,-311.798,0,0
179992.1,323.999,-312.328,0,0
180252.425,324.683,-312.236,0,0
180512.75,324.716,-311.156,0,0
180773.075,324.808,-308.881,0,0
181033.4,325.3,-305.797,0,0
181293.725,326.37,-302.199,0,0
181554.05,327.72,-298.252,0,0
181814.375,329.521,-293.9,0,0
182074.7,331.694,-289.096,0,0
182335.025,334.751,-283.803,0,0
182595.35,338.736,-278.689,0,0
182855.675,343.172,-274.051,0,0
183116.0,347.693,-269.655,0,0
183376.325,352.288,-265.221,0,0
183636.65,357.059,-260.682,0,0
183896.975,362.336,-255.951,0,0
184157.3,368.124,-251.164,0,0
184417.625,374.502,-246.426,0,0
184677.95,381.517,-241.935,0,0
184938.275,389.109,-238.006,0,0
185198.6,396.811,-234.531,0,0
185458.925,404.874,-231.33,0,0
185719.25,413.271,-228.726,0,0
185979.575,421.799,-226.935,0,0
186239.9,429.888,-225.887,0,0
186500,437.164,-224.865,0,0
186761,444.128,-223.402,0,0
187021,451.328,-221.161,0,0
187281,459.68,-218.61,0,0
187542,469.062,-216.983,0,0
187802,478.547,-216.467,0,0
188062,487.319,-216.985,0,0
188322,495.209,-217.513,0,0
188583,502.707,-217.393,0,0
188843,510.456,-216.826,0,0
189103,518.716,-216.274,0,0
189364,527.103,-215.945,0,0
189624,535.45,-215.417,0,0
189884,544.089,-214.82,0,0
190145,553.1,-213.71,0,0
190405,562.987,-212.736,0,0
190665,573.464,-212.075,0,0
190926,584.637,-211.488,0,0
191186,596.862,-211.546,0,0
191446,609.584,-212.682,0,0
191707,622.305,-214.698,0,0
191967,635.098,-217.157,0,0
192227,648.303,-220.095,0,0
192488,662.099,-223.804,0,0
192748,676.227,-228.771,0,0
193008,690.237,-234.861,0,0
193269,704.127,-242.109,0,0
193529,717.465,-250.683,0,0
193789,729.804,-259.917,0,0
194050,741.66,-269.523,0,0
194310,752.959,-279.719,0,0
194570,763.608,-290.173,0,0
194831,774.147,-300.751,0,0
195091,784.691,-311.935,0,0
195351,794.74,-324.208,0,0
195612,803.751,-337.151,0,0
195872,811.639,-350.094,0,0
196132,819.18,-362.679,0,0
196393,826.875,-375.213,0,0
196653,834.679,-388.484,0,0
196913,841.933,-402.677,0,0
197174,848.376,-417.474,0,0
197434,853.797,-432.721,0,0
197694,858.304,-447.669,0,0
197955,862.626,-462.53,0,0
198215,866.974,-477.603,0,0
198475,871.014,-493.661,0,0
198735,873.972,-510.619,0,0
198996,875.42,-527.737,0,0
199256,875.655,-544.785,0,0
199516,874.727,-561.181,0,0
199777,873.592,-576.651,0,0
200037,872.821,-592.17,0,0
200297,871.786,-608.68,0,0
200558,869.363,-625.943,0,0
200818,865.504,-643.044,0,0
201078,860.532,-659.774,0,0
201339,854.624,-676.353,0,0
201599,847.422,-692.273,0,0
201859,839.374,-707.28,0,0
202120,830.634,-721.948,0,0
202380.025,820.986,-735.992,0,0
202640.35,809.945,-749.161,0,0
202900.675,798.075,-760.666,0,0
203161.0,786.27,-770.32,0,0
203421.325,774.864,-779.011,0,0
203681.65,763.721,-786.807,0,0
203941.975,752.956,-793.73,0,0
204202.3,742.807,-800.082,0,0
204462.625,733.338,-806.214,0,0
204722.95,724.226,-812.858,0,0
204983.275,714.318,-820.062,0,0
205243.6,703.557,-826.701,0,0
205503.925,691.966,-832.254,0,0
205764.25,680.245,-836.23,0,0
206024.575,669.178,-839.323,0,0
206284.9,658.883,-841.745,0,0
206545.225,648.977,-843.669,0,0
206805.55,639.651,-845.364,0,0
207065.875,630.738,-846.692,0,0
207326.2,622.153,-848.166,0,0
207586.525,613.714,-849.391,0,0
207846.85,605.254,-850.072,0,0
208107.175,597.588,-850.166,0,0
208367.5,590.916,-850.249,0,0
208627.825,584.854,-850.809,0,0
208888.15,578.988,-851.916,0,0
209148.475,573.178,-853.455,0,0
209408.8,567.226,-855.556,0,0
209669.125,560.665,-858.027,0,0
209929.45,553.325,-860.328,0,0
210189.775,545.678,-862.197,0,0
210450.1,537.812,-863.463,0,0
210710.425,529.988,-864.519,0,0
210970.75,521.94,-865.297,0,0
211231.075,513.514,-865.569,0,0
211491.4,504.981,-865.003,0,0
211751.725,496.867,-863.626,0,0
212012.05,489.259,-861.637,0,0
212272.375,482.45,-859.379,0,0
212532.7,476.191,-857.284,0,0
212793.025,470.159,-854.949,0,0
213053.35,464.344,-852.727,0,0
213313.675,458.844,-850.377,0,0
213574.0,453.657,-847.892,0,0
213834.325,448.822,-845.516,0,0
214094.65,444.039,-843.281,0,0
214354.975,439.515,-840.969,0,0
214615.3,435.139,-838.714,0,0
214875.625,430.975,-836.483,0,0
215135.95,426.859,-834.377,0,0
215396.275,422.73,-832.128,0,0
215656.6,418.707,-829.77,0,0
215916.925,414.861,-827.336,0,0
216177.25,411.279,-824.725,0,0
216437.575,407.853,-822.237,0,0
216697.9,404.578,-819.728,0,0
216958.225,401.487,-817.15,0,0
217218.55,398.633,-814.452,0,0
217478.875,396.018,-811.887,0,0
217739.2,393.638,-809.418,0,0
217999.525,391.369,-807.024,0,0
218259.85,389.158,-804.674,0,0
218520,387.111,-802.3,0,0
218780,385.155,-799.931,0,0
219041,383.579,-797.672,0,0
219301,382.163,-795.542,0,0
219561,380.734,-793.51,0,0
219822,379.565,-791.681,0,0
220082,378.35,-789.851,0,0
220342,377.149,-788.217,0,0
220603,376.015,-786.527,0,0
220863,374.923,-784.826,0,0
221123,374.057,-783.025,0,0
221384,373.499,-781.411,0,0
221644,373.136,-779.884,0,0
221904,373.1,-778.608,0,0
222165,373.077,-777.602,0,0
222425,373.123,-776.946,0,0
222685,373.199,-776.557,0,0
222946,373.252,-776.465,0,0
223206,373.238,-776.665,0,0
223466,373.007,-777.118,0,0
223727,372.522,-777.685,0,0
223987,371.854,-778.319,0,0
224247,371.063,-778.955,0,0
224508,370.073,-779.561,0,0
224768,369.178,-780.201,0,0
225028,368.013,-780.799,0,0
225289,366.769,-781.522,0,0
225549,365.597,-781.954,0,0
225809,364.53,-782.296,0,0
226070,363.679,-782.763,0,0
226330,362.833,-783.501,0,0
226590,361.912,-784.362,0,0
226851,360.981,-785.363,0,0
227111,359.901,-786.467,0,0
227371,358.831,-787.658,0,0
227632,357.683,-789.023,0,0
227892,356.489,-790.463,0,0
228152,355.209,-792.172,0,0
228413,353.608,-794.007,0,0
228673,351.912,-795.971,0,0
228933,349.912,-798.118,0,0
229193,347.613,-800.217,0,0
229454,345.002,-802.268,0,0
229714,342.134,-804.167,0,0
229974,339.047,-806.103,0,0
230235,335.685,-807.712,0,0
230495,332.206,-809.201,0,0
230755,328.593,-810.505,0,0
231016,324.858,-811.699,0,0
231276,320.968,-812.659,0,0
231536,317.007,-813.342,0,0
231797,313.133,-813.799,0,0
232057,309.206,-814.181,0,0
232317,305.316,-814.4,0,0
232578,301.451,-814.459,0,0
232838,297.609,-814.397,0,0
233098,293.707,-814.267,0,0
233359,289.84,-814.003,0,0
233619,286.052,-813.486,0,0
233879,282.347,-813.015,0,0
234140,278.689,-812.387,0,0
234400,274.991,-811.826,0,0
234660.3,271.337,-811.157,0,0
234920.625,267.571,-810.408,0,0
235180.95,263.879,-809.473,0,0
235441.275,260.185,-808.549,0,0
235701.6,256.476,-807.334,0,0
235961.925,252.896,-806.108,0,0
236222.25,249.377,-804.725,0,0
236482.575,245.978,-803.306,0,0
236742.9,242.593,-801.872,0,0
237003.225,239.185,-800.364,0,0
237263.55,235.83,-798.756,0,0
237523.875,232.481,-796.967,0,0
237784.2,229.307,-795.05,0,0
238044.525,226.305,-793.074,0,0
238304.85,223.401,-791.113,0,0
238565.175,220.612,-789.162,0,0
238825.5,217.827,-787.24,0,0
239085.825,215.15,-785.321,0,0
239346.15,212.408,-783.345,0,0
239606.475,209.802,-781.202,0,0
239866.8,207.274,-779.178,0,0
240127.125,204.838,-777.032,0,0
240387.45,202.386,-774.869,0,0
240647.775,200.075,-772.818,0,0
240908.1,197.758,-770.651,0,0
241168.425,195.578,-768.458,0,0
241428.75,193.571,-766.252,0,0
241689.075,191.561,-764.11,0,0
241949.4,189.515,-762.036,0,0
242209.725,187.74,-759.903,0,0
242470.05,185.835,-757.849,0,0
242730.375,183.938,-755.685,0,0
242990.7,182.395,-753.721,0,0
243251.025,180.662,-751.727,0,0
243511.35,179.111,-749.791,0,0
243771.675,177.37,-747.979,0,0
244032.0,175.755,-746.174,0,0
244292.325,174.086,-744.431,0,0
244552.65,172.393,-742.694,0,0
244812.975,170.614,-740.924,0,0
245073.3,168.877,-739.261,0,0
245333.625,167.226,-737.588,0,0
245593.95,165.416,-735.94,0,0
245854.275,163.567,-734.473,0,0
246114.6,161.504,-732.902,0,0
246374.925,159.391,-731.294,0,0
246635.25,156.986,-729.589,0,0
246895.575,154.522,-727.573,0,0
247155.9,152.093,-725.306,0,0
247416.225,149.738,-722.925,0,0
247676.55,147.515,-720.336,0,0
247936.875,145.453,-717.697,0,0
248197.2,143.467,-715.032,0,0
248457.525,141.484,-712.289,0,0
248717.85,139.626,-709.48,0,0
248978.175,137.798,-706.505,0,0
249238.5,136.131,-703.488,0,0
249498.825,134.565,-700.433,0,0
249759.15,133.167,-697.316,0,0
250019.475,131.848,-694.185,0,0
250279.8,130.572,-690.957,0,0
250540,129.579,-687.778,0,0
250800,128.628,-684.629,0,0
251061,127.781,-681.493,0,0
251321,126.963,-678.355,0,0
251581,126.278,-675.241,0,0
251842,125.603,-672.125,0,0
252102,125.062,-668.97,0,0
252362,124.6,-665.83,0,0
252623,124.255,-662.667,0,0
252883,124.041,-659.536,0,0
253143,123.888,-656.454,0,0
253404,123.82,-653.414,0,0
253664,123.844,-650.403,0,0
253924,123.893,-647.394,0,0
254185,124.054,-644.416,0,0
254445,124.287,-641.453,0,0
254705,124.532,-638.486,0,0
254966,124.965,-635.552,0,0
255226,125.495,-632.657,0,0
255486,126.138,-629.745,0,0
255747,126.914,-626.954,0,0
256007,127.79,-624.26,0,0
256267,128.691,-621.664,0,0
256528,129.646,-619.113,0,0
256788,130.692,-616.627,0,0
257048,131.841,-614.218,0,0
257309,133.047,-611.909,0,0
257569,134.299,-609.705,0,0
257829,135.586,-607.616,0,0
258090,136.871,-605.595,0,0
258350,138.159,-603.666,0,0
258610,139.471,-601.773,0,0
258871,140.834,-599.913,0,0
259131,142.227,-598.028,0,0
259391,143.734,-596.276,0,0
259651,145.315,-594.608,0,0
259912,146.954,-593.013,0,0
260172,148.622,-591.533,0,0
260432,150.341,-590.175,0,0
260693,152.152,-588.907,0,0
260953,153.995,-587.78,0,0
261213,155.881,-586.787,0,0
261474,157.817,-586.01,0,0
261734,159.721,-585.41,0,0
261994,161.552,-585.027,0,0
262255,163.299,-584.75,0,0
262515,164.915,-584.627,0,0
262775,166.463,-584.555,0,0
263036,167.943,-584.58,0,0
263296,169.346,-584.754,0,0
263556,170.713,-585.006,0,0
263817,171.906,-585.415,0,0
264077,172.977,-585.976,0,0
264337,173.832,-586.614,0,0
264598,174.473,-587.261,0,0
264858,174.895,-587.936,0,0
265118,175.111,-588.548,0,0
265379,175.182,-589.071,0,0
265639,175.025,-589.457,0,0
265899,174.734,-589.632,0,0
266160,174.47,-589.578,0,0
266420,174.219,-589.395,0,0
266680.25,174.059,-589.106,0,0
266940.575,173.964,-588.784,0,0
267200.9,173.88,-588.459,0,0
267461.225,173.817,-588.146,0,0
267721.55,173.693,-587.813,0,0
267981.875,173.567,-587.386,0,0
268242.2,173.352,-586.949,0,0
268502.525,173.14,-586.431,0,0
268762.85,172.867,-585.799,0,0
269023.175,172.578,-584.987,0,0
269283.5,172.284,-583.97,0,0
269543.825,172.142,-582.761,0,0
269804.15,172.22,-581.364,0,0
270064.475,172.509,-579.84,0,0
270324.8,173.039,-578.346,0,0
270585.125,173.857,-576.818,0,0
270845.45,174.912,-575.365,0,0
271105.775,176.154,-574.064,0,0
271366.1,177.64,-572.826,0,0
271626.425,179.17,-571.816,0,0
271886.75,180.828,-570.901,0,0
272147.075,182.525,-570.111,0,0
272407.4,184.4,-569.402,0,0
272667.725,186.416,-568.778,0,0
272928.05,188.611,-568.32,0,0
273188.375,190.968,-568.021,0,0
273448.7,193.575,-567.939,0,0
273709.025,196.37,-568.175,0,0
273969.35,199.32,-568.808,0,0
274229.675,202.377,-569.918,0,0
274490.0,205.386,-571.552,0,0
274750.325,208.198,-573.688,0,0
275010.65,210.81,-576.275,0,0
275270.975,213.097,-579.291,0,0
275531.3,214.955,-582.68,0,0
275791.625,216.39,-586.411,0,0
276051.95,217.292,-590.328,0,0
276312.275,217.615,-594.402,0,0
276572.6,217.359,-598.447,0,0
276832.925,216.579,-602.417,0,0
277093.25,215.274,-606.153,0,0
277353.575,213.526,-609.583,0,0
277613.9,211.534,-612.674,0,0
277874.225,209.294,-615.46,0,0
278134.55,206.919,-617.911,0,0
278394.875,204.459,-620.061,0,0
278655.2,201.925,-621.96,0,0
278915.525,199.41,-623.592,0,0
279175.85,196.868,-625.067,0,0
279436.175,194.363,-626.375,0,0
279696.5,191.827,-627.516,0,0
279956.825,189.329,-628.578,0,0
280217.15,186.819,-629.46,0,0
280477.475,184.248,-630.315,0,0
280737.8,181.757,-631.035,0,0
280998.125,179.208,-631.708,0,0
281258.45,176.638,-632.307,0,0
281518.775,173.999,-632.818,0,0
281779.1,171.269,-633.307,0,0
282039.425,168.428,-633.683,0,0
282299.75,165.454,-633.899,0,0
282560,162.34,-633.918,0,0
282820,159.115,-633.67,0,0
283081,155.872,-633.05,0,0
283341,152.703,-632.075,0,0
283601,149.799,-630.73,0,0
283862,147.259,-629.183,0,0
284122,145.12,-627.683,0,0
284382,143.231,-626.383,0,0
284643,141.298,-625.344,0,0
284903,139.275,-624.422,0,0
285163,136.984,-623.465,0,0
285424,134.538,-622.328,0,0
285684,132.057,-620.975,0,0
285944,129.594,-619.417,0,0
286205,127.086,-617.688,0,0
286465,124.567,-615.714,0,0
286725,122.118,-613.458,0,0
286986,119.798,-610.862,0,0
287246,117.636,-608.013,0,0
287506,115.726,-604.88,0,0
287767,114.089,-601.48,0,0
288027,112.831,-597.875,0,0
288287,111.944,-594.127,0,0
288548,111.522,-590.251,0,0
288808,111.551,-586.334,0,0
289068,112.109,-582.465,0,0
289329,113.129,-578.745,0,0
289589,114.701,-575.195,0,0
289849,116.742,-572.028,0,0
290109,119.159,-569.316,0,0
290370,121.861,-567.134,0,0
290630,124.715,-565.504,0,0
290890,127.578,-564.437,0,0
291151,130.353,-563.842,0,0
291411,133.011,-563.66,0,0
291671,135.499,-563.839,0,0
291932,137.847,-564.392,0,0
292192,139.968,-565.281,0,0
292452,141.899,-566.507,0,0
292713,143.465,-568.124,0,0
292973,144.538,-570.038,0,0
293233,145.039,-572.105,0,0
293494,144.916,-574.065,0,0
293754,144.282,-575.763,0,0
294014,143.225,-577.031,0,0
294275,142.013,-577.81,0,0
294535,140.814,-578.015,0,0
294795,139.854,-577.747,0,0
295056,139.371,-577.208,0,0
295316,139.444,-576.692,0,0
295576,139.973,-576.415,0,0
295837,140.751,-576.578,0,0
296097,141.623,-577.305,0,0
296357,142.307,-578.578,0,0
296618,142.552,-580.263,0,0
296878,142.293,-582.153,0,0
297138,141.492,-584.024,0,0
297399,140.212,-585.716,0,0
297659,138.591,-587.099,0,0
297919,136.811,-588.11,0,0
298180,135,-588.82,0,0
298440,133.209,-589.285,0,0
298700.2,131.479,-589.602,0,0
298960.525,129.821,-589.793,0,0
299220.85,128.18,-589.924,0,0
299481.175,126.519,-590.009,0,0
299741.5,124.821,-590.011,0,0
300001.825,123.078,-589.871,0,0
300262.15,121.356,-589.574,0,0
300522.475,119.666,-589.116,0,0
300782.8,118.092,-588.526,0,0
301043.125,116.627,-587.847,0,0
301303.45,115.263,-587.08,0,0
301563.775,114.03,-586.258,0,0
301824.1,112.991,-585.402,0,0
302084.425,112.099,-584.61,0,0
302344.75,111.364,-583.924,0,0
302605.075,110.693,-583.384,0,0
302865.4,110.066,-582.986,0,0
303125.725,109.386,-582.752,0,0
303386.05,108.612,-582.657,0,0
303646.375,107.734,-582.632,0,0
303906.7,106.698,-582.642,0,0
304167.025,105.547,-582.646,0,0
304427.35,104.294,-582.634,0,0
304687.675,102.915,-582.582,0,0
304948.0,101.416,-582.481,0,0
305208.325,99.7811,-582.234,0,0
305468.65,98.0828,-581.874,0,0
305728.975,96.3633,-581.323,0,0
305989.3,94.6613,-580.677,0,0
306249.625,92.9789,-579.881,0,0
306509.95,91.3276,-578.998,0,0
306770.275,89.7548,-577.993,0,0
307030.6,88.2285,-576.917,0,0
307290.925,86.798,-575.782,0,0
307551.25,85.455,-574.597,0,0
307811.575,84.1746,-573.393,0,0
308071.9,82.9574,-572.19,0,0
308332.225,81.7773,-570.958,0,0
308592.55,80.6315,-569.719,0,0
308852.875,79.5315,-568.46,0,0
309113.2,78.4876,-567.167,0,0
309373.525,77.4614,-565.869,0,0
309633.85,76.4912,-564.564,0,0
309894.175,75.5704,-563.245,0,0
310154.5,74.6842,-561.93,0,0
310414.825,73.8227,-560.603,0,0
310675.15,72.9934,-559.25,0,0
310935.475,72.1926,-557.887,0,0
311195.8,71.4551,-556.51,0,0
311456.125,70.7859,-555.111,0,0
311716.45,70.1698,-553.751,0,0
311976.775,69.5978,-552.4,0,0
312237.1,69.0571,-551.068,0,0
312497.425,68.5509,-549.755,0,0
312757.75,68.078,-548.489,0,0
313018.075,67.6141,-547.227,0,0
313278.4,67.1601,-545.995,0,0
313538.725,66.7156,-544.757,0,0
313799.05,66.3003,-543.538,0,0
314059.375,65.9169,-542.308,0,0
314319.7,65.5342,-541.133,0,0
314580,65.1565,-539.949,0,0
314840,64.7858,-538.845,0,0
315101,64.4247,-537.553,0,0
315361,64.0464,-536.52,0,0
315621,63.7688,-535.317,0,0
315882,63.4097,-534.236,0,0
316142,63.0633,-533.061,0,0
316402,62.8304,-531.842,0,0
316663,62.5194,-530.763,0,0
316923,62.3403,-529.593,0,0
317183,62.1118,-528.429,0,0
317444,61.9232,-527.33,0,0
317704,61.7887,-526.28,0,0
317964,61.6016,-525.237,0,0
318225,61.4404,-524.2,0,0
318485,61.3236,-523.243,0,0
318745,61.2474,-522.253,0,0
319006,60.979,-521.385,0,0
319266,60.8687,-520.415,0,0
319526,60.6322,-519.504,0,0
319787,60.3761,-518.637,0,0
320047,60.1631,-517.712,0,0
320307,59.8729,-516.689,0,0
320567,59.669,-515.787,0,0
320828,59.4254,-514.841,0,0
321088,59.1806,-513.855,0,0
321348,58.9539,-512.857,0,0
321609,58.7215,-511.927,0,0
321869,58.4385,-511.036,0,0
322129,58.2258,-510.005,0,0
322390,57.8474,-509.046,0,0
322650,57.5933,-508.076,0,0
322910,57.3287,-507.034,0,0
323171,57.0356,-505.892,0,0
323431,56.7529,-504.849,0,0
323691,56.5143,-503.605,0,0
323952,56.255,-502.363,0,0
324212,56.0911,-501.009,0,0
324472,56.0196,-499.704,0,0
324733,56.0403,-498.283,0,0
324993,56.0935,-496.904,0,0
325253,56.3737,-495.518,0,0
325514,56.7032,-494.2,0,0
325774,57.1802,-492.946,0,0
326034,57.7772,-491.807,0,0
326295,58.2974,-490.827,0,0
326555,58.9848,-489.874,0,0
326815,59.5596,-489.13,0,0
327076,60.2073,-488.465,0,0
327336,60.7293,-487.944,0,0
327596,61.1913,-487.363,0,0
327857,61.6031,-486.884,0,0
328117,61.9394,-486.483,0,0
328377,62.2522,-485.997,0,0
328638,62.5559,-485.54,0,0
328898,62.7967,-485.174,0,0
329158,63.0675,-484.769,0,0
329419,63.2789,-484.456,0,0
329679,63.4967,-484.037,0,0
329939,63.6857,-483.654,0,0
330200,63.8516,-483.4,0,0
330460,63.9514,-483.124,0,0
330720.15,64.1375,-482.856,0,0
330980.475,64.1833,-482.646,0,0
331240.8,64.1696,-482.382,0,0
331501.125,64.2237,-482.285,0,0
331761.45,64.1039,-482.094,0,0
332021.775,63.9679,-481.916,0,0
332282.1,63.7297,-481.858,0,0
332542.425,63.4572,-481.622,0,0
332802.75,63.1252,-481.435,0,0
333063.075,62.7471,-481.163,0,0
333323.4,62.3176,-480.869,0,0
333583.725,61.8585,-480.482,0,0
333844.05,61.3647,-480.034,0,0
334104.375,60.884,-479.556,0,0
334364.7,60.3956,-479.018,0,0
334625.025,59.9424,-478.406,0,0
334885.35,59.4207,-477.781,0,0
335145.675,59.084,-477.133,0,0
335406.0,58.637,-476.454,0,0
335666.325,58.2764,-475.771,0,0
335926.65,57.7977,-475.053,0,0
336186.975,57.4469,-474.202,0,0
336447.3,57.148,-473.49,0,0
336707.625,56.7605,-472.668,0,0
336967.95,56.4241,-471.819,0,0
337228.275,56.1975,-471.015,0,0
337488.6,55.9374,-470.12,0,0
337748.925,55.7375,-469.225,0,0
338009.25,55.511,-468.453,0,0
338269.575,55.3346,-467.536,0,0
338529.9,55.1827,-466.635,0,0
338790.225,55.0067,-465.813,0,0
339050.55,54.9002,-464.896,0,0
339310.875,54.8148,-464.058,0,0
339571.2,54.7341,-463.172,0,0
339831.525,54.6909,-462.278,0,0
340091.85,54.6614,-461.426,0,0
340352.175,54.6201,-460.577,0,0
340612.5,54.6425,-459.744,0,0
340872.825,54.7075,-458.865,0,0
341133.15,54.6773,-458.003,0,0
341393.475,54.6965,-457.2,0,0
341653.8,54.7591,-456.39,0,0
341914.125,54.8384,-455.534,0,0
342174.45,54.9368,-454.743,0,0
342434.775,55.0229,-453.927,0,0
342695.1,55.0741,-453.119,0,0
342955.425,55.257,-452.332,0,0
343215.75,55.3646,-451.492,0,0
343476.075,55.5055,-450.723,0,0
343736.4,55.6727,-449.975,0,0
343996.725,55.8641,-449.21,0,0
344257.05,56.0527,-448.485,0,0
344517.375,56.2508,-447.708,0,0
344777.7,56.4885,-447.011,0,0
345038.025,56.6898,-446.3,0,0
345298.35,56.8784,-445.634,0,0
345558.675,57.1539,-444.979,0,0
345819.0,57.3401,-444.344,0,0
346079.325,57.6573,-443.653,0,0
346339.65,57.8555,-443.066,0,0
346599.975,58.0947,-442.398,0,0
346860,58.3478,-441.839,0,0
347121,58.604,-441.248,0,0
347381,58.868,-440.63,0,0
347641,59.1346,-440.075,0,0
347902,59.3225,-439.524,0,0
348162,59.6102,-438.98,0,0
348422,59.8514,-438.368,0,0
348683,60.1041,-437.747,0,0
348943,60.4307,-437.251,0,0
349203,60.7365,-436.702,0,0
349464,61.0744,-436.198,0,0
349724,61.4209,-435.698,0,0
349984,61.7998,-435.239,0,0
350245,62.1495,-434.814,0,0
350505,62.5103,-434.451,0,0
350765,62.8194,-434.101,0,0
351025,63.1407,-433.741,0,0
351286,63.408,-433.447,0,0
351546,63.6655,-433.204,0,0
351806,63.9067,-432.896,0,0
352067,64.0939,-432.599,0,0
352327,64.3368,-432.312,0,0
352587,64.5204,-431.992,0,0
352848,64.7342,-431.717,0,0
353108,64.906,-431.425,0,0
353368,65.0433,-431.154,0,0
353629,65.2354,-430.843,0,0
353889,65.405,-430.569,0,0
354149,65.5932,-430.287,0,0
354410,65.6906,-429.989,0,0
354670,65.8477,-429.744,0,0
354930,65.9818,-429.474,0,0
355191,66.083,-429.154,0,0
355451,66.2359,-428.869,0,0
355711,66.3431,-428.596,0,0
355972,66.4951,-428.249,0,0
356232,66.6018,-427.953,0,0
356492,66.8088,-427.603,0,0
356753,66.9886,-427.255,0,0
357013,67.1796,-426.954,0,0
357273,67.4379,-426.687,0,0
357534,67.6492,-426.4,0,0
357794,67.9,-426.138,0,0
358054,68.1139,-425.931,0,0
358315,68.4289,-425.689,0,0
358575,68.7287,-425.586,0,0
358835,69.0622,-425.499,0,0
359096,69.3102,-425.455,0,0
359356,69.5891,-425.47,0,0
359616,69.7367,-425.494,0,0
359877,69.9022,-425.627,0,0
360137,69.9669,-425.72,0,0
360397,70.0592,-425.842,0,0
360658,70.0616,-425.894,0,0
360918,70.0133,-425.962,0,0
361178,69.9662,-426.095,0,0
361438,69.8633,-426.135,0,0
361699,69.7279,-426.137,0,0
361959,69.5725,-426.215,0,0
362219,69.4108,-426.245,0,0
362480,69.261,-426.29,0,0
362740.1,69.0326,-426.278,0,0
363000.425,68.8171,-426.315,0,0
363260.75,68.5347,-426.312,0,0
363521.075,68.1977,-426.328,0,0
363781.4,67.8912,-426.267,0,0
364041.725,67.4985,-426.148,0,0
364302.05,67.1048,-426.088,0,0
364562.375,66.8038,-425.91,0,0
364822.7,66.3955,-425.701,0,0
365083.025,65.9921,-425.524,0,0
365343.35,65.6384,-425.245,0,0
365603.675,65.2725,-424.934,0,0
365864.0,64.8722,-424.645,0,0
366124.325,64.4949,-424.325,0,0
366384.65,64.1903,-423.914,0,0
366644.975,63.8796,-423.519,0,0
366905.3,63.5351,-423.076,0,0
367165.625,63.3481,-422.627,0,0
367425.95,63.156,-422.183,0,0
367686.275,62.9807,-421.733,0,0
367946.6,62.8677,-421.324,0,0
368206.925,62.7833,-420.917,0,0
368467.25,62.7222,-420.513,0,0
368727.575,62.6808,-420.228,0,0
368987.9,62.6029,-419.939,0,0
369248.225,62.579,-419.666,0,0
369508.55,62.49,-419.411,0,0
369768.875,62.362,-419.257,0,0
370029.2,62.2394,-419.097,0,0
370289.525,62.0476,-418.919,0,0
370549.85,61.8388,-418.715,0,0
370810.175,61.5617,-418.512,0,0
371070.5,61.3741,-418.254,0,0
371330.825,61.1186,-417.983,0,0
371591.15,60.8212,-417.723,0,0
371851.475,60.628,-417.5,0,0
372111.8,60.3705,-417.189,0,0
372372.125,60.1478,-416.904,0,0
372632.45,59.8939,-416.623,0,0
372892.775,59.6697,-416.348,0,0
373153.1,59.4767,-416.044,0,0
373413.425,59.1883,-415.749,0,0
373673.75,58.9524,-415.522,0,0
373934.075,58.6891,-415.246,0,0
374194.4,58.4205,-414.986,0,0
374454.725,58.1366,-414.687,0,0
374715.05,57.8617,-414.425,0,0
374975.375,57.5196,-414.108,0,0
375235.7,57.2281,-413.792,0,0
375496.025,56.89,-413.436,0,0
375756.35,56.5559,-413.093,0,0
376016.675,56.2373,-412.708,0,0
376277.0,55.979,-412.272,0,0
376537.325,55.7208,-411.884,0,0
376797.65,55.4792,-411.505,0,0
377057.975,55.2712,-411.118,0,0
377318.3,55.0267,-410.762,0,0
377578.625,54.8401,-410.441,0,0
377838.95,54.5341,-410.212,0,0
378099.275,54.2507,-409.953,0,0
378359.6,53.9206,-409.728,0,0
378619.925,53.5329,-409.508,0,0
378880,53.0526,-409.232,0,0
379141,52.4746,-408.893,0,0
379401,51.9021,-408.508,0,0
379661,51.2829,-407.95,0,0
379922,50.7213,-407.351,0,0
380182,50.2017,-406.576,0,0
380442,49.8152,-405.748,0,0
380703,49.5723,-404.883,0,0
380963,49.4054,-404.066,0,0
381223,49.4137,-403.284,0,0
381483,49.4151,-402.634,0,0
381744,49.4932,-402.144,0,0
382004,49.5228,-401.69,0,0
382264,49.4497,-401.261,0,0
382525,49.419,-400.889,0,0
382785,49.2804,-400.603,0,0
383045,49.0853,-400.19,0,0
383306,48.8515,-399.832,0,0
383566,48.645,-399.429,0,0
383826,48.3746,-399.047,0,0
384087,48.1469,-398.68,0,0
384347,47.8379,-398.197,0,0
384607,47.5269,-397.739,0,0
384868,47.2733,-397.28,0,0
385128,46.9327,-396.758,0,0
385388,46.6952,-396.31,0,0
385649,46.3786,-395.776,0,0
385909,46.023,-395.259,0,0
386169,45.7284,-394.734,0,0
386430,45.4068,-394.102,0,0
386690,45.0951,-393.491,0,0
386950,44.8317,-392.844,0,0
387211,44.5568,-392.196,0,0
387471,44.3106,-391.5,0,0
387731,44.1074,-390.799,0,0
387992,43.8882,-390.062,0,0
388252,43.7577,-389.337,0,0
388512,43.6185,-388.618,0,0
388773,43.5143,-387.824,0,0
389033,43.4642,-387.16,0,0
389293,43.4632,-386.411,0,0
389554,43.4725,-385.709,0,0
389814,43.5307,-385.025,0,0
390074,43.6491,-384.406,0,0
390335,43.7724,-383.811,0,0
390595,43.9136,-383.298,0,0
390855,44.0048,-382.798,0,0
391116,44.1547,-382.354,0,0
391376,44.2357,-382.021,0,0
391636,44.2439,-381.706,0,0
391896,44.22,-381.383,0,0
392157,44.1472,-381.065,0,0
392417,43.9554,-380.777,0,0
392677,43.7538,-380.457,0,0
392938,43.5354,-380.09,0,0
393198,43.2876,-379.703,0,0
393458,42.9765,-379.247,0,0
393719,42.6326,-378.749,0,0
393979,42.2988,-378.216,0,0
394239,41.9998,-377.589,0,0
394500,41.7066,-376.951,0,0
394760.05,41.4128,-376.254,0,0
395020.375,41.2246,-375.531,0,0
395280.7,40.9876,-374.804,0,0
395541.025,40.8224,-374.051,0,0
395801.35,40.6833,-373.323,0,0
396061.675,40.5677,-372.565,0,0
396322.0,40.4899,-371.809,0,0
396582.325,40.4461,-371.051,0,0
396842.65,40.4014,-370.291,0,0
397102.975,40.3689,-369.536,0,0
397363.3,40.4329,-368.84,0,0
397623.625,40.4182,-368.096,0,0
397883.95,40.491,-367.359,0,0
398144.275,40.5049,-366.675,0,0
398404.6,40.6216,-365.956,0,0
398664.925,40.6663,-365.302,0,0
398925.25,40.7554,-364.63,0,0
399185.575,40.8903,-363.976,0,0
399445.9,40.9788,-363.335,0,0
399706.225,41.0652,-362.682,0,0
399966.55,41.1713,-362.038,0,0
400006.6,41.21,-361.958,0,0