File: Accelerated corrosion test data/2025-10-03_18-00-02/sample_7.csv
Frequency (Hz),Impedance (ohms),Phase (Radians),Temperature (C),Humidity (%)
10000.0,279.146,-11968.5,0,0
10260.325,277.622,-11680.8,0,0
10520.65,263.181,-11385.1,0,0
10780.975,257.626,-11107.3,0,0
11041.3,254.276,-10842,0,0
11301.625,251.338,-10589.3,0,0
11561.95,253.602,-10343.2,0,0
11822.275,260.89,-10116.4,0,0
12082.6,268.101,-9891.42,0,0
12342.925,325.567,-9721.86,0,0
12603.25,264.126,-9551.11,0,0
12863.575,270.047,-9360.04,0,0
13123.9,242.347,-9178.89,0,0
13384.225,233.987,-9009.71,0,0
13644.55,228.338,-8828.58,0,0
13904.875,213.391,-8662.59,0,0
14165.2,212.112,-8494.25,0,0
14425.525,209.26,-8356.68,0,0
14685.8,208.347,-8206.35,0,0
14946.175,202.029,-8062.05,0,0
15206.5,200.689,-7932.12,0,0
15466.825,189.89,-7792.13,0,0
15727.15,187.983,-7666.45,0,0
15987.5,183.127,-7537.71,0,0
16247.8,182.246,-7419.71,0,0
16508.125,175.304,-7299.19,0,0
16768.45,175.037,-7182.25,0,0
17028.775,174.243,-7073.55,0,0
17289.1,170.072,-6965.53,0,0
17549.425,169.632,-6857.8,0,0
17809.75,174.168,-6750.4,0,0
18070.075,173.006,-6653.94,0,0
18330.4,183.783,-6549.31,0,0
18590.725,201.562,-6468.36,0,0
18851.05,194.89,-6399.09,0,0
19111.375,182.884,-6314.69,0,0
19371.7,203.758,-6245.66,0,0
19632.025,171.341,-6172.03,0,0
19892.35,160.378,-6074.91,0,0
20152.675,172.136,-5994.06,0,0
20413.0,173.69,-5923.7,0,0
20673.3,171.872,-5845.26,0,0
20933.65,179.378,-5786.03,0,0
21193.975,162.101,-5722.67,0,0
21454.3,154.882,-5648.26,0,0
21714.625,157.334,-5583.18,0,0
21974.9,148.765,-5519.58,0,0
22235.275,144.385,-5452.15,0,0
22495.6,142.246,-5390.19,0,0
22755.925,137.26,-5327.29,0,0
23016.25,133.571,-5264.47,0,0
23276.6,131.706,-5202.53,0,0
23536.9,132.442,-5142.72,0,0
23797.225,131.295,-5088.45,0,0
24057.55,127.671,-5031.85,0,0
24317.875,125.965,-4974.89,0,0
24578.2,126.845,-4921.2,0,0
24838.525,125.422,-4868.09,0,0
25098.85,123.386,-4816.72,0,0
25359.175,123.115,-4765.25,0,0
25619.5,122.163,-4714.09,0,0
25879.8,122.041,-4664.7,0,0
26140.1,122.427,-4613.78,0,0
26400.5,126.875,-4566.74,0,0
26660.8,124.83,-4521.4,0,0
26921.1,125.824,-4471.43,0,0
27181.4,132.872,-4424.77,0,0
27441.8,134.916,-4379.54,0,0
27702.1,147.622,-4334.01,0,0
27962.4,163.201,-4293.33,0,0
28222.7,182.013,-4272.68,0,0
28483.1,180.119,-4254.16,0,0
28743.4,171.832,-4233.29,0,0
29003.7,157.073,-4204.14,0,0
29264,142.888,-4166.7,0,0
29524.4,136.741,-4126.17,0,0
29784.7,131.654,-4088.98,0,0
30045,129.108,-4046.37,0,0
30305.3,133.039,-4010.12,0,0
30565.7,133.925,-3976.25,0,0
30826,137.236,-3946.87,0,0
31086.3,137.415,-3918.83,0,0
31346.6,133.865,-3890.53,0,0
31607,131.362,-3865.68,0,0
31867.3,122.452,-3833.63,0,0
32127.6,119.967,-3802.4,0,0
32387.9,116.284,-3772.1,0,0
32648.3,112.581,-3742.08,0,0
32908.6,110.149,-3711.54,0,0
33168.9,107.283,-3682.02,0,0
33429.2,103.991,-3652.91,0,0
33689.6,102.3,-3623,0,0
33949.9,100.812,-3594.31,0,0
34210.2,98.3591,-3565.91,0,0
34470.5,96.6913,-3537.89,0,0
34730.9,95.6623,-3510.23,0,0
34991.2,94.5291,-3483,0,0
35251.5,93.4378,-3456.43,0,0
35511.8,92.2484,-3429.7,0,0
35772.2,91.837,-3403.44,0,0
36032.5,91.4657,-3378.11,0,0
36292.8,90.9041,-3353.2,0,0
36553.1,90.1704,-3328.56,0,0
36813.5,89.4671,-3303.93,0,0
37073.8,89.198,-3279.79,0,0
37334.1,89.0224,-3256.05,0,0
37594.4,88.7948,-3232.88,0,0
37854.8,87.8231,-3209.68,0,0
38115.1,87.6953,-3185.96,0,0
38375.4,88.039,-3163.32,0,0
38635.7,88.8066,-3140.51,0,0
38896.1,90.4078,-3118.42,0,0
39156.4,91.3928,-3097.09,0,0
39416.7,94.2497,-3075.92,0,0
39677,97.444,-3057.51,0,0
39937.4,98.3351,-3040.96,0,0
40197.7,98.0725,-3024.46,0,0
40458,96.4365,-3008.3,0,0
40718.3,93.8291,-2990.24,0,0
40978.7,91.5318,-2971.69,0,0
41239,89.0157,-2953.25,0,0
41499.3,87.1917,-2933.71,0,0
41759.6,86.4973,-2915.35,0,0
42020,84.7067,-2896.66,0,0
42280.275,83.4025,-2877.68,0,0
42540.6,82.7325,-2858.57,0,0
42800.925,83.0862,-2840.59,0,0
43061.25,83.0883,-2822.38,0,0
43321.575,83.5556,-2805.93,0,0
43581.9,82.4116,-2788.85,0,0
43842.225,82.247,-2770.74,0,0
44102.55,83.7161,-2753.43,0,0
44362.875,85.3566,-2738.54,0,0
44623.2,85.3134,-2723.9,0,0
44883.525,84.0528,-2709.89,0,0
45143.85,82.6556,-2694.09,0,0
45404.175,81.5809,-2678.58,0,0
45664.5,82.3464,-2662.46,0,0
45924.825,82.7848,-2649.09,0,0
46185.15,81.7278,-2635.71,0,0
46445.475,79.7188,-2622.02,0,0
46705.8,77.1782,-2607.43,0,0
46966.125,75.5325,-2592.15,0,0
47226.45,74.2858,-2576.34,0,0
47486.775,74.0019,-2561.45,0,0
47747.1,73.7068,-2546.75,0,0
48007.425,73.3767,-2532.57,0,0
48267.75,72.9111,-2518.7,0,0
48528.075,71.9671,-2504.9,0,0
48788.4,71.5832,-2491.02,0,0
49048.725,70.9519,-2477.34,0,0
49309.05,70.4809,-2463.85,0,0
49569.375,69.8411,-2450.43,0,0
49829.7,69.6034,-2436.94,0,0
50090.025,69.1413,-2423.92,0,0
50350.35,68.819,-2411.05,0,0
50610.675,68.6502,-2398.03,0,0
50871.0,68.3518,-2385.5,0,0
51131.325,67.928,-2372.86,0,0
51391.65,67.5806,-2360.39,0,0
51651.975,67.1903,-2348.04,0,0
51912.3,66.9312,-2335.74,0,0
52172.625,66.8415,-2323.55,0,0
52432.95,66.4764,-2311.71,0,0
52693.275,66.1948,-2299.8,0,0
52953.6,66.2803,-2288.06,0,0
53213.925,66.1197,-2276.51,0,0
53474.25,66.0189,-2265.26,0,0
53734.575,65.6013,-2254.08,0,0
53994.9,65.4084,-2242.77,0,0
54255.225,65.0232,-2231.66,0,0
54515.55,64.7789,-2220.61,0,0
54775.875,64.4922,-2209.65,0,0
55036.2,64.4055,-2198.62,0,0
55296.525,64.1311,-2187.99,0,0
55556.85,63.9919,-2177.44,0,0
55817.175,63.7731,-2166.91,0,0
56077.5,63.5791,-2156.28,0,0
56337.825,63.6043,-2145.93,0,0
56598.15,63.4437,-2135.84,0,0
56858.475,63.2189,-2125.66,0,0
57118.8,63.0114,-2115.59,0,0
57379.125,62.9297,-2105.61,0,0
57639.45,62.6633,-2095.68,0,0
57899.775,62.5806,-2085.62,0,0
58160.1,62.7183,-2075.73,0,0
58420.4,62.9791,-2066.19,0,0
58680.7,63.045,-2057.03,0,0
58941.1,62.7967,-2047.85,0,0
59201.4,62.5161,-2038.45,0,0
59461.7,62.5924,-2028.99,0,0
59722,62.8038,-2020.05,0,0
59982.4,62.737,-2011.06,0,0
60242.7,62.7788,-2002.42,0,0
60503,62.5508,-1994.08,0,0
60763.3,62.1422,-1985.38,0,0
61023.7,61.6886,-1976.82,0,0
61284,61.4331,-1968,0,0
61544.3,61.1403,-1959.64,0,0
61804.6,60.6983,-1951.15,0,0
62065,60.2743,-1942.38,0,0
62325.3,59.9752,-1933.87,0,0
62585.6,59.7491,-1925.35,0,0
62845.9,59.5448,-1917.07,0,0
63106.3,59.3373,-1908.65,0,0
63366.6,59.2212,-1900.42,0,0
63626.9,59.1364,-1892.41,0,0
63887.2,58.9233,-1884.41,0,0
64147.6,58.5561,-1876.24,0,0
64407.9,58.2702,-1868.19,0,0
64668.2,58.2202,-1860.11,0,0
64928.5,58.3093,-1852.17,0,0
65188.9,58.4567,-1844.3,0,0
65449.2,58.6825,-1836.72,0,0
65709.5,58.5949,-1829.56,0,0
65969.8,58.3476,-1822.25,0,0
66230.2,58.1118,-1815.02,0,0
66490.5,57.7956,-1807.66,0,0
66750.8,57.5101,-1800.51,0,0
67011.1,56.9599,-1793.23,0,0
67271.5,56.6026,-1785.86,0,0
67531.8,56.144,-1778.4,0,0
67792.1,55.9076,-1771.23,0,0
68052.4,55.6992,-1763.9,0,0
68312.8,55.5269,-1756.48,0,0
68573.1,55.3098,-1749.39,0,0
68833.4,55.2426,-1742.27,0,0
69093.7,54.9933,-1735.16,0,0
69354.1,54.9372,-1728.12,0,0
69614.4,54.9544,-1721.27,0,0
69874.7,54.9576,-1714.53,0,0
70135,54.73,-1707.75,0,0
70395.4,54.6934,-1701.03,0,0
70655.7,54.56,-1694.31,0,0
70916,54.5829,-1687.84,0,0
71176.3,54.3435,-1681.31,0,0
71436.7,54.2667,-1674.87,0,0
71697,54.0244,-1668.45,0,0
71957.3,53.8305,-1661.93,0,0
72217.6,53.5796,-1655.52,0,0
72478,53.385,-1649.15,0,0
72738.3,53.1779,-1642.77,0,0
72998.6,53.0485,-1636.35,0,0
73258.9,52.8648,-1630.16,0,0
73519.3,52.7567,-1623.86,0,0
73779.6,52.5287,-1617.61,0,0
74039.9,52.4716,-1611.4,0,0
74300.225,52.3882,-1605.22,0,0
74560.55,52.334,-1599.2,0,0
74820.875,52.2123,-1593.13,0,0
75081.2,52.1031,-1587.1,0,0
75341.525,51.9711,-1581.07,0,0
75601.85,51.9327,-1575.19,0,0
75862.175,51.8907,-1569.27,0,0
76122.5,51.7349,-1563.41,0,0
76382.825,51.7077,-1557.58,0,0
76643.15,51.683,-1551.8,0,0
76903.475,51.5566,-1546.03,0,0
77163.8,51.4902,-1540.36,0,0
77424.125,51.3473,-1534.74,0,0
77684.45,51.3116,-1528.99,0,0
77944.775,51.2695,-1523.41,0,0
78205.1,51.1777,-1517.89,0,0
78465.425,51.1157,-1512.23,0,0
78725.75,51.0994,-1506.78,0,0
78986.075,51.0998,-1501.27,0,0
79246.4,51.0648,-1495.85,0,0
79506.725,50.9911,-1490.43,0,0
79767.05,51.0653,-1485.08,0,0
80027.375,51.0059,-1479.74,0,0
80287.7,50.99,-1474.5,0,0
80548.025,50.9455,-1469.28,0,0
80808.35,50.8422,-1464.1,0,0
81068.675,50.7983,-1458.8,0,0
81329.0,50.8194,-1453.61,0,0
81589.325,50.7485,-1448.48,0,0
81849.65,50.6964,-1443.37,0,0
82109.975,50.599,-1438.24,0,0
82370.3,50.6814,-1433.13,0,0
82630.625,50.7267,-1428.12,0,0
82890.95,50.6467,-1423.16,0,0
83151.275,50.5837,-1418.19,0,0
83411.6,50.4633,-1413.13,0,0
83671.925,50.5034,-1408.1,0,0
83932.25,50.5305,-1403.17,0,0
84192.575,50.636,-1398.24,0,0
84452.9,50.6918,-1393.41,0,0
84713.225,50.788,-1388.65,0,0
84973.55,50.8313,-1383.95,0,0
85233.875,50.839,-1379.14,0,0
85494.2,50.856,-1374.57,0,0
85754.525,50.8098,-1369.8,0,0
86014.85,50.8007,-1365.13,0,0
86275.175,50.8925,-1360.45,0,0
86535.5,50.9379,-1355.99,0,0
86795.825,50.7974,-1351.36,0,0
87056.15,50.8532,-1346.63,0,0
87316.475,50.9626,-1342.14,0,0
87576.8,51.0556,-1337.59,0,0
87837.125,51.0418,-1333.22,0,0
88097.45,51.1168,-1328.7,0,0
88357.775,51.0709,-1324.34,0,0
88618.1,51.1017,-1319.98,0,0
88878.425,51.1191,-1315.56,0,0
89138.75,51.0536,-1311.15,0,0
89399.075,51.0951,-1306.8,0,0
89659.4,50.9436,-1302.34,0,0
89919.725,51.0406,-1297.91,0,0
90180,51.1552,-1293.53,0,0
90440.4,51.3596,-1289.23,0,0
90700.7,51.3972,-1285.02,0,0
90961,51.4071,-1280.86,0,0
91221.3,51.3411,-1276.52,0,0
91481.7,51.5082,-1272.39,0,0
91742,51.5111,-1268.19,0,0
92002.3,51.6223,-1263.94,0,0
92262.6,51.7619,-1259.82,0,0
92523,51.7888,-1255.75,0,0
92783.3,51.5947,-1251.73,0,0
93043.6,51.5949,-1247.28,0,0
93303.9,51.82,-1242.89,0,0
93564.3,52.1314,-1238.56,0,0
93824.6,52.6634,-1234.27,0,0
94084.9,53.5315,-1230.34,0,0
94345.2,54.1314,-1226.92,0,0
94605.6,54.5342,-1223.59,0,0
94865.9,54.4098,-1220.29,0,0
95126.2,54.2825,-1216.68,0,0
95386.5,54.2365,-1213.26,0,0
95646.9,53.7402,-1209.7,0,0
95907.2,53.3451,-1205.69,0,0
96167.5,53.3498,-1201.75,0,0
96427.8,53.1779,-1198,0,0
96688.2,52.9792,-1193.95,0,0
96948.5,52.9592,-1189.93,0,0
97208.8,53.0279,-1186.06,0,0
97469.1,52.9724,-1182.09,0,0
97729.5,53.2502,-1177.95,0,0
97989.8,53.6671,-1174.25,0,0
98250.1,53.8461,-1170.49,0,0
98510.4,54.2021,-1166.98,0,0
98770.8,54.1752,-1163.63,0,0
99031.1,54.0315,-1159.97,0,0
99291.4,54.001,-1156.29,0,0
99551.7,53.8159,-1152.5,0,0
99812.1,54.0083,-1148.47,0,0
100072,54.3224,-1144.74,0,0
100333,54.5333,-1141.09,0,0
100593,54.5963,-1137.5,0,0
100853,54.7205,-1133.63,0,0
101114,55.2515,-1129.86,0,0
101374,55.7169,-1126.43,0,0
101634,55.8508,-1122.99,0,0
101895,56.066,-1119.48,0,0
102155,56.2463,-1115.85,0,0
102415,56.6679,-1112.2,0,0
102676,57.1058,-1108.73,0,0
102936,57.5752,-1105.19,0,0
103196,58.2392,-1101.74,0,0
103457,58.9084,-1098.66,0,0
103717,59.4401,-1095.77,0,0
103977,59.5577,-1093.05,0,0
104238,59.3548,-1089.77,0,0
104498,59.7414,-1086.33,0,0
104758,60.3417,-1083.33,0,0
105019,60.4912,-1080.64,0,0
105279,60.2964,-1077.69,0,0
105539,60.2487,-1074.54,0,0
105800,60.2089,-1071.38,0,0
106060,60.078,-1068.14,0,0
106320.175,60.048,-1064.76,0,0
106580.5,60.143,-1061.26,0,0
106840.825,60.4801,-1057.75,0,0
107101.15,61.0428,-1054.52,0,0
107361.475,61.3519,-1051.63,0,0
107621.8,61.5505,-1048.47,0,0
107882.125,61.7439,-1045.39,0,0
108142.45,62.0767,-1042.31,0,0
108402.775,62.2495,-1039.39,0,0
108663.1,62.3525,-1036.34,0,0
108923.425,62.3487,-1033.27,0,0
109183.75,62.4245,-1030,0,0
109444.075,62.7302,-1026.94,0,0
109704.4,62.6155,-1023.75,0,0
109964.725,62.604,-1020.38,0,0
110225.05,62.7628,-1016.82,0,0
110485.375,63.1877,-1013.26,0,0
110745.7,63.804,-1009.79,0,0
111006.025,64.7195,-1006.3,0,0
111266.35,65.6172,-1003.32,0,0
111526.675,66.2406,-1000.41,0,0
111787.0,66.7593,-997.16,0,0
112047.325,67.5091,-993.969,0,0
112307.65,68.4998,-990.763,0,0
112567.975,69.5298,-987.868,0,0
112828.3,70.6667,-984.958,0,0
113088.625,71.81,-982.397,0,0
113348.95,72.9208,-979.973,0,0
113609.275,73.78,-977.727,0,0
113869.6,74.4003,-975.323,0,0
114129.925,75.1471,-972.833,0,0
114390.25,76.0332,-970.372,0,0
114650.575,76.8325,-968.062,0,0
114910.9,77.5925,-965.649,0,0
115171.225,78.5242,-963.181,0,0
115431.55,79.4574,-960.838,0,0
115691.875,80.698,-958.463,0,0
115952.2,81.9539,-956.569,0,0
116212.525,83.1973,-954.756,0,0
116472.85,84.5413,-953.327,0,0
116733.175,85.6614,-952.157,0,0
116993.5,86.3771,-951.341,0,0
117253.825,86.5147,-950.412,0,0
117514.15,86.566,-949.209,0,0
117774.475,86.5282,-947.944,0,0
118034.8,86.3222,-946.377,0,0
118295.125,86.4998,-944.464,0,0
118555.45,87.2029,-942.918,0,0
118815.775,87.6897,-942.001,0,0
119076.1,87.7887,-941.02,0,0
119336.425,88.0853,-940.215,0,0
119596.75,88.1178,-940.022,0,0
119857.075,87.1213,-939.925,0,0
120117.4,85.7481,-939.299,0,0
120377.725,84.3261,-938.408,0,0
120638.05,82.5855,-937.448,0,0
120898.375,80.638,-936.099,0,0
121158.7,78.4088,-934.259,0,0
121419.025,76.422,-931.773,0,0
121679.35,75.0462,-929.046,0,0
121939.675,73.669,-926.697,0,0
122200.0,72.2311,-924.184,0,0
122460,70.9593,-921.386,0,0
122721,69.8686,-918.576,0,0
122981,68.8358,-915.84,0,0
123241,67.8641,-913.093,0,0
123502,66.832,-910.3,0,0
123762,65.9084,-907.257,0,0
124022,65.2768,-904.18,0,0
124283,64.8125,-901.33,0,0
124543,64.3051,-898.531,0,0
124803,63.8755,-895.882,0,0
125064,63.3637,-893.416,0,0
125324,62.5611,-890.872,0,0
125584,61.6666,-888.09,0,0
125845,60.9577,-885.123,0,0
126105,60.4611,-882.21,0,0
126365,59.8492,-879.334,0,0
126626,59.3036,-876.412,0,0
126886,58.7693,-873.51,0,0
127146,58.2658,-870.607,0,0
127406,57.7927,-867.482,0,0
127667,57.5747,-864.508,0,0
127927,57.2404,-861.619,0,0
128187,57.0228,-858.736,0,0
128448,56.6133,-855.788,0,0
128708,56.3947,-852.882,0,0
128968,56.1133,-849.876,0,0
129229,55.9719,-846.903,0,0
129489,55.8858,-844.049,0,0
129749,55.7146,-841.188,0,0
130010,55.4568,-838.313,0,0
130270,55.3511,-835.344,0,0
130530,55.3224,-832.461,0,0
130791,55.2777,-829.708,0,0
131051,55.0477,-826.896,0,0
131311,54.777,-823.989,0,0
131572,54.6199,-820.923,0,0
131832,54.5508,-817.87,0,0
132092,54.6056,-814.808,0,0
132353,54.6656,-811.842,0,0
132613,54.6822,-808.797,0,0
132873,54.8176,-805.73,0,0
133134,54.9714,-802.616,0,0
133394,55.1635,-799.584,0,0
133654,55.507,-796.474,0,0
133915,55.9541,-793.331,0,0
134175,56.4478,-790.315,0,0
134435,57.048,-787.228,0,0
134696,57.8269,-784.342,0,0
134956,58.597,-781.51,0,0
135216,59.5111,-778.715,0,0
135477,60.5266,-776.268,0,0
135737,61.4862,-773.875,0,0
135997,62.5272,-771.67,0,0
136258,63.4777,-769.821,0,0
136518,64.1032,-768.171,0,0
136778,64.4477,-766.538,0,0
137039,64.5447,-764.94,0,0
137299,64.3607,-763.019,0,0
137559,64.344,-760.985,0,0
137819,64.2153,-759.002,0,0
138080,63.9336,-756.924,0,0
138340.125,63.5882,-754.695,0,0
138600.45,63.225,-752.329,0,0
138860.775,62.8616,-749.783,0,0
139121.1,62.6844,-747.032,0,0
139381.425,62.7491,-744.365,0,0
139641.75,62.7196,-741.79,0,0
139902.075,62.6683,-739.093,0,0
140162.4,62.826,-736.424,0,0
140422.725,62.9768,-733.869,0,0
140683.05,63.058,-731.334,0,0
140943.375,63.074,-728.728,0,0
141203.7,63.1502,-726.117,0,0
141464.025,63.1926,-723.526,0,0
141724.35,63.1564,-720.783,0,0
141984.675,63.2941,-717.89,0,0
142245.0,63.5496,-715.148,0,0
142505.325,63.7449,-712.438,0,0
142765.65,63.961,-709.605,0,0
143025.975,64.2462,-706.808,0,0
143286.3,64.6628,-704.016,0,0
143546.625,65.13,-701.236,0,0
143806.95,65.6561,-698.554,0,0
144067.275,66.1316,-695.976,0,0
144327.6,66.5999,-693.428,0,0
144587.925,66.9979,-690.947,0,0
144848.25,67.3031,-688.401,0,0
145108.575,67.7402,-685.823,0,0
145368.9,68.12,-683.413,0,0
145629.225,68.241,-680.973,0,0
145889.55,68.3011,-678.253,0,0
146149.875,68.5628,-675.371,0,0
146410.2,68.9746,-672.563,0,0
146670.525,69.4199,-669.816,0,0
146930.85,69.846,-667.029,0,0
147191.175,70.4202,-664.324,0,0
147451.5,70.8286,-661.779,0,0
147711.825,71.1763,-659.041,0,0
147972.15,71.6821,-656.253,0,0
148232.475,72.2029,-653.592,0,0
148492.8,72.7238,-651.004,0,0
148753.125,73.0731,-648.491,0,0
149013.45,73.2908,-645.877,0,0
149273.775,73.4002,-643.125,0,0
149534.1,73.5461,-640.168,0,0
149794.425,73.8083,-637.134,0,0
150054.75,74.1519,-634.021,0,0
150315.075,74.5514,-630.905,0,0
150575.4,74.9615,-627.733,0,0
150835.725,75.3737,-624.541,0,0
151096.05,75.8644,-621.206,0,0
151356.375,76.4489,-617.793,0,0
151616.7,77.1473,-614.335,0,0
151877.025,77.9489,-610.889,0,0
152137.35,78.8523,-607.429,0,0
152397.675,79.8094,-603.913,0,0
152658.0,80.8899,-600.361,0,0
152918.325,82.1214,-596.855,0,0
153178.65,83.4612,-593.4,0,0
153438.975,84.8249,-590.059,0,0
153699.3,86.1402,-586.704,0,0
153959.625,87.5359,-583.247,0,0
154219.95,89.0927,-579.749,0,0
154480,90.7341,-576.252,0,0
154741,92.6228,-572.891,0,0
155001,94.5078,-569.7,0,0
155261,96.4387,-566.418,0,0
155522,98.4263,-563.038,0,0
155782,100.624,-559.995,0,0
156042,102.827,-556.974,0,0
156303,105.055,-554.14,0,0
156563,107.375,-551.33,0,0
156823,109.582,-548.624,0,0
157084,111.789,-545.949,0,0
157344,114.203,-543.434,0,0
157604,116.474,-541.095,0,0
157864,118.755,-538.987,0,0
158125,120.798,-536.821,0,0
158385,122.61,-534.691,0,0
158645,124.558,-532.61,0,0
158906,126.284,-530.63,0,0
159166,127.775,-528.736,0,0
159426,128.775,-526.753,0,0
159687,129.424,-524.397,0,0
159947,129.916,-521.429,0,0
160207,130.626,-517.996,0,0
160468,131.628,-514.183,0,0
160728,132.892,-510.286,0,0
160988,134.149,-506.132,0,0
161249,135.751,-501.527,0,0
161509,137.736,-496.532,0,0
161769,140.426,-491.544,0,0
162030,143.549,-486.708,0,0
162290,147.002,-481.974,0,0
162550,150.711,-477.505,0,0
162811,154.345,-473.147,0,0
163071,158.249,-468.394,0,0
163331,162.681,-463.558,0,0
163592,167.759,-458.813,0,0
163852,173.286,-454.595,0,0
164112,178.918,-450.655,0,0
164373,184.771,-446.886,0,0
164633,190.989,-443.474,0,0
164893,197.244,-440.597,0,0
165154,203.043,-437.76,0,0
165414,208.878,-434.501,0,0
165674,215.195,-430.935,0,0
165935,222.096,-427.135,0,0
166195,230.034,-423.29,0,0
166455,239.09,-419.954,0,0
166716,248.989,-417.764,0,0
166976,259.055,-416.471,0,0
167236,269.292,-415.948,0,0
167497,279.823,-416.239,0,0
167757,290.325,-417.355,0,0
168017,301.037,-419.147,0,0
168277,312.009,-421.991,0,0
168538,322.898,-426.05,0,0
168798,332.879,-431.446,0,0
169058,342.477,-437.074,0,0
169319,351.564,-443.666,0,0
169579,359.827,-450.804,0,0
169839,367.573,-457.743,0,0
170100,375.549,-465.134,0,0
170360.075,383.93,-473.36,0,0
170620.4,392.235,-483.786,0,0
170880.725,398.434,-496.159,0,0
171141.05,402.115,-508.8,0,0
171401.375,403.946,-520.781,0,0
171661.7,404.816,-531.587,0,0
171922.025,405.991,-541.849,0,0
172182.35,407.13,-553.207,0,0
172442.675,406.644,-565.704,0,0
172703.0,403.701,-578.168,0,0
172963.325,398.741,-589.391,0,0
173223.65,392.792,-598.81,0,0
173483.975,386.624,-607.025,0,0
173744.3,380.014,-614.306,0,0
174004.625,373.009,-620.748,0,0
174264.95,365.479,-626.032,0,0
174525.275,357.943,-629.984,0,0
174785.6,350.442,-632.987,0,0
175045.925,343.073,-634.672,0,0
175306.25,336.319,-635.441,0,0
175566.575,329.455,-635.311,0,0
175826.9,323.388,-632.9,0,0
176087.225,320.159,-629.334,0,0
176347.55,319.354,-626.802,0,0
176607.875,319.54,-625.692,0,0
176868.2,320.185,-625.847,0,0
177128.525,320.796,-627.009,0,0
177388.85,321.372,-628.802,0,0
177649.175,321.876,-631.21,0,0
177909.5,322.73,-634.023,0,0
178169.825,324.158,-638.646,0,0
178430.15,324.354,-645.504,0,0
178690.475,321.824,-653.533,0,0
178950.8,316.727,-660.743,0,0
179211.125,310.25,-666.407,0,0
179471.45,303.346,-670.745,0,0
179731.775,295.984,-674.317,0,0
179992.1,288.043,-676.364,0,0
180252.425,281.007,-676.888,0,0
180512.75,275.075,-677.193,0,0
180773.075,269.697,-677.915,0,0
181033.4,264.234,-679.56,0,0
181293.725,257.25,-681.716,0,0
181554.05,248.631,-682.438,0,0
181814.375,240.201,-681.107,0,0
182074.7,232.708,-679.012,0,0
182335.025,225.521,-676.636,0,0
182595.35,218.407,-673.753,0,0
182855.675,211.528,-669.978,0,0
183116.0,205.567,-665.412,0,0
183376.325,200.57,-660.864,0,0
183636.65,195.884,-656.669,0,0
183896.975,191.082,-652.316,0,0
184157.3,186.563,-647.343,0,0
184417.625,182.69,-641.925,0,0
184677.95,179.853,-636.298,0,0
184938.275,178.074,-631.433,0,0
185198.6,176.164,-627.678,0,0
185458.925,173.658,-624.166,0,0
185719.25,170.575,-620.438,0,0
185979.575,167.294,-615.962,0,0
186239.9,164.539,-610.811,0,0
186500,162.535,-605.574,0,0
186761,160.881,-600.575,0,0
187021,159.233,-595.502,0,0
187281,158.063,-590.031,0,0
187542,157.749,-584.729,0,0
187802,157.892,-579.954,0,0
188062,158.345,-575.697,0,0
188322,158.932,-572.225,0,0
188583,159.035,-569.547,0,0
188843,158.185,-567.101,0,0
189103,156.67,-564.11,0,0
189364,155.096,-560.46,0,0
189624,153.729,-556.463,0,0
189884,152.469,-552.311,0,0
190145,151.319,-547.864,0,0
190405,150.484,-543.264,0,0
190665,149.719,-538.703,0,0
190926,148.91,-533.754,0,0
191186,148.554,-528.393,0,0
191446,148.918,-523.015,0,0
191707,149.676,-518.042,0,0
191967,150.501,-513.424,0,0
192227,151.106,-508.911,0,0
192488,151.725,-504.194,0,0
192748,152.604,-499.35,0,0
193008,153.687,-494.532,0,0
193269,154.975,-489.725,0,0
193529,156.493,-484.999,0,0
193789,158.094,-480.353,0,0
194050,159.877,-475.685,0,0
194310,161.868,-471.097,0,0
194570,164.038,-466.618,0,0
194831,166.361,-462.213,0,0
195091,168.931,-457.913,0,0
195351,171.596,-453.894,0,0
195612,174.267,-449.994,0,0
195872,176.98,-446.072,0,0
196132,179.897,-442.295,0,0
196393,182.928,-438.762,0,0
196653,185.893,-435.39,0,0
196913,188.944,-432.178,0,0
197174,191.851,-429.039,0,0
197434,194.701,-425.897,0,0
197694,197.503,-422.747,0,0
197955,200.338,-419.531,0,0
198215,203.241,-416.203,0,0
198475,206.362,-412.852,0,0
198735,209.72,-409.666,0,0
198996,213.112,-406.649,0,0
199256,216.359,-403.654,0,0
199516,219.475,-400.696,0,0
199777,222.724,-397.376,0,0
200037,226.266,-393.869,0,0
200297,230.175,-390.416,0,0
200558,234.482,-387.213,0,0
200818,238.831,-384.344,0,0
201078,243.031,-381.626,0,0
201339,247.098,-378.604,0,0
201599,251.555,-375.281,0,0
201859,256.66,-372.035,0,0
202120,262.157,-369.095,0,0
202380.025,267.969,-366.617,0,0
202640.35,273.724,-364.518,0,0
202900.675,279.546,-362.559,0,0
203161.0,285.64,-360.773,0,0
203421.325,291.929,-359.3,0,0
203681.65,298.291,-358.327,0,0
203941.975,304.606,-357.632,0,0
204202.3,310.869,-357.129,0,0
204462.625,317.161,-356.936,0,0
204722.95,323.499,-357.111,0,0
204983.275,329.59,-357.542,0,0
205243.6,335.664,-357.734,0,0
205503.925,342.273,-358.191,0,0
205764.25,349.115,-359.635,0,0
206024.575,355.39,-361.667,0,0
206284.9,361.096,-364.086,0,0
206545.225,366.45,-366.622,0,0
206805.55,371.221,-369.308,0,0
207065.875,375.314,-371.863,0,0
207326.2,378.971,-374.027,0,0
207586.525,382.304,-375.716,0,0
207846.85,385.479,-376.53,0,0
208107.175,389.052,-376.424,0,0
208367.5,393.585,-375.414,0,0
208627.825,399.572,-374.111,0,0
208888.15,407.204,-373.13,0,0
209148.475,416.326,-373.508,0,0
209408.8,426.162,-375.532,0,0
209669.125,435.965,-379.426,0,0
209929.45,445.291,-384.628,0,0
210189.775,453.976,-390.825,0,0
210450.1,462.541,-398.056,0,0
210710.425,470.277,-406.883,0,0
210970.75,476.487,-416.735,0,0
211231.075,481.118,-427.152,0,0
211491.4,484.027,-437.563,0,0
211751.725,485.571,-447.416,0,0
212012.05,486.211,-456.536,0,0
212272.375,486.385,-464.828,0,0
212532.7,486.345,-472.718,0,0
212793.025,486.238,-480.412,0,0
213053.35,485.721,-488.161,0,0
213313.675,484.547,-495.689,0,0
213574.0,482.976,-502.66,0,0
213834.325,481.372,-509.48,0,0
214094.65,479.321,-516.293,0,0
214354.975,476.625,-523.012,0,0
214615.3,472.892,-529.209,0,0
214875.625,468.655,-534.043,0,0
215135.95,464.784,-537.622,0,0
215396.275,461.88,-540.606,0,0
215656.6,459.644,-543.693,0,0
215916.925,457.593,-547.042,0,0
216177.25,455.655,-550.536,0,0
216437.575,453.84,-554.344,0,0
216697.9,451.75,-558.667,0,0
216958.225,448.896,-563.24,0,0
217218.55,445.28,-567.461,0,0
217478.875,441.163,-571.077,0,0
217739.2,436.803,-574.089,0,0
217999.525,432.466,-576.486,0,0
218259.85,428.334,-578.421,0,0
218520,424.327,-580.281,0,0
218780,420.112,-582.074,0,0
219041,415.4,-583.503,0,0
219301,410.397,-584.168,0,0
219561,405.541,-583.929,0,0
219822,401.023,-582.969,0,0
220082,396.961,-581.469,0,0
220342,393.478,-579.481,0,0
220603,390.608,-577.142,0,0
220863,388.31,-574.672,0,0
221123,386.562,-572.126,0,0
221384,385.346,-569.523,0,0
221644,384.578,-566.932,0,0
221904,384.318,-564.386,0,0
222165,384.621,-562.03,0,0
222425,385.309,-559.904,0,0
222685,386.365,-558.175,0,0
222946,387.55,-556.802,0,0
223206,388.77,-555.652,0,0
223466,390.081,-554.685,0,0
223727,391.454,-553.671,0,0
223987,393.112,-552.762,0,0
224247,395.009,-552.154,0,0
224508,396.932,-551.731,0,0
224768,398.832,-551.436,0,0
225028,401.124,-550.806,0,0
225289,403.703,-550.338,0,0
225549,406.809,-550.206,0,0
225809,410.253,-550.567,0,0
226070,414.038,-551.436,0,0
226330,417.972,-553.031,0,0
226590,421.802,-555.416,0,0
226851,425.095,-558.294,0,0
227111,428.028,-561.248,0,0
227371,430.889,-564.299,0,0
227632,433.726,-567.442,0,0
227892,436.811,-570.826,0,0
228152,440.058,-574.731,0,0
228413,443.353,-579.397,0,0
228673,446.206,-584.774,0,0
228933,448.662,-590.788,0,0
229193,450.462,-597.389,0,0
229454,451.275,-604.2,0,0
229714,451.4,-610.843,0,0
229974,451.31,-617.178,0,0
230235,451.353,-623.767,0,0
230495,450.871,-631.222,0,0
230755,449.153,-639.066,0,0
231016,446.261,-646.5,0,0
231276,442.726,-653.166,0,0
231536,439.064,-659.188,0,0
231797,435.352,-665.087,0,0
232057,431.444,-670.846,0,0
232317,427.338,-676.498,0,0
232578,422.973,-682.242,0,0
232838,418.131,-687.951,0,0
233098,412.786,-693.596,0,0
233359,406.993,-699.202,0,0
233619,400.346,-704.904,0,0
233879,392.461,-710.212,0,0
234140,383.697,-714.421,0,0
234400,374.37,-717.544,0,0
234660.3,364.66,-719.341,0,0
234920.625,354.921,-719.931,0,0
235180.95,345.435,-719.057,0,0
235441.275,336.784,-716.94,0,0
235701.6,329.21,-714.112,0,0
235961.925,322.455,-711.076,0,0
236222.25,316.501,-707.721,0,0
236482.575,311.268,-704.239,0,0
236742.9,307.007,-700.942,0,0
237003.225,303.246,-698.45,0,0
237263.55,299.104,-696.612,0,0
237523.875,294.409,-694.555,0,0
237784.2,289.544,-692.026,0,0
238044.525,284.604,-689.048,0,0
238304.85,279.768,-685.294,0,0
238565.175,275.49,-680.709,0,0
238825.5,272.324,-675.569,0,0
239085.825,270.231,-670.555,0,0
239346.15,268.903,-666.007,0,0
239606.475,268.122,-661.749,0,0
239866.8,267.818,-657.896,0,0
240127.125,268.3,-654.574,0,0
240387.45,269.111,-652.465,0,0
240647.775,269.394,-651.432,0,0
240908.1,268.487,-650.693,0,0
241168.425,267.425,-649.712,0,0
241428.75,266.288,-648.62,0,0
241689.075,265.047,-647.74,0,0
241949.4,263.314,-647.096,0,0
242209.725,260.902,-646.18,0,0
242470.05,257.938,-644.69,0,0
242730.375,254.966,-642.105,0,0
242990.7,252.71,-638.803,0,0
243251.025,251.137,-635.475,0,0
243511.35,249.855,-632.286,0,0
243771.675,248.663,-628.869,0,0
244032.0,247.869,-625.064,0,0
244292.325,247.809,-621.177,0,0
244552.65,248.467,-617.487,0,0
244812.975,249.708,-614.133,0,0
245073.3,251.49,-611.48,0,0
245333.625,253.408,-609.515,0,0
245593.95,255.125,-608.261,0,0
245854.275,256.491,-607.502,0,0
246114.6,257.453,-606.814,0,0
246374.925,258.226,-606.071,0,0
246635.25,258.999,-605.393,0,0
246895.575,259.724,-604.851,0,0
247155.9,260.184,-604.427,0,0
247416.225,260.373,-603.867,0,0
247676.55,260.642,-603.078,0,0
247936.875,261.129,-602.284,0,0
248197.2,261.745,-601.675,0,0
248457.525,262.344,-601.166,0,0
248717.85,262.868,-600.769,0,0
248978.175,263.368,-600.372,0,0
249238.5,263.839,-599.992,0,0
249498.825,264.491,-599.666,0,0
249759.15,265.25,-599.493,0,0
250019.475,265.974,-599.683,0,0
250279.8,266.399,-600.033,0,0
250540,266.656,-600.381,0,0
250800,266.826,-600.522,0,0
251061,267.065,-600.708,0,0
251321,267.437,-600.896,0,0
251581,267.843,-601.316,0,0
251842,268.237,-601.911,0,0
252102,268.449,-602.772,0,0
252362,268.452,-603.732,0,0
252623,268.22,-604.739,0,0
252883,267.844,-605.702,0,0
253143,267.359,-606.623,0,0
253404,266.834,-607.601,0,0
253664,266.178,-608.674,0,0
253924,265.289,-609.891,0,0
254185,264.095,-611.119,0,0
254445,262.566,-612.213,0,0
254705,260.818,-613.026,0,0
254966,258.962,-613.718,0,0
255226,256.905,-614.185,0,0
255486,254.751,-614.466,0,0
255747,252.46,-614.506,0,0
256007,250.111,-614.162,0,0
256267,247.898,-613.534,0,0
256528,245.813,-612.661,0,0
256788,243.906,-611.68,0,0
257048,242.07,-610.729,0,0
257309,240.145,-609.635,0,0
257569,238.202,-608.254,0,0
257829,236.477,-606.645,0,0
258090,234.911,-604.884,0,0
258350,233.52,-602.963,0,0
258610,232.37,-600.91,0,0
258871,231.499,-598.821,0,0
259131,230.811,-596.854,0,0
259391,230.196,-594.944,0,0
259651,229.607,-592.953,0,0
259912,229.109,-590.912,0,0
260172,228.744,-588.792,0,0
260432,228.465,-586.503,0,0
260693,228.422,-584.102,0,0
260953,228.629,-581.647,0,0
261213,229.111,-579.115,0,0
261474,229.896,-576.541,0,0
261734,231.104,-573.924,0,0
261994,232.729,-571.403,0,0
262255,234.916,-569.063,0,0
262515,237.55,-567.249,0,0
262775,240.42,-565.944,0,0
263036,243.355,-565.087,0,0
263296,246.421,-564.724,0,0
263556,249.476,-564.874,0,0
263817,252.444,-565.573,0,0
264077,255.128,-566.787,0,0
264337,257.424,-568.431,0,0
264598,259.23,-570.248,0,0
264858,260.731,-572.161,0,0
265118,261.853,-574.088,0,0
265379,262.624,-575.963,0,0
265639,263.273,-577.747,0,0
265899,263.736,-579.427,0,0
266160,264.173,-581.109,0,0
266420,264.558,-582.642,0,0
266680.25,264.916,-584.29,0,0
266940.575,265.212,-585.999,0,0
267200.9,265.419,-587.844,0,0
267461.225,265.382,-589.794,0,0
267721.55,265.098,-591.743,0,0
267981.875,264.563,-593.633,0,0
268242.2,263.87,-595.329,0,0
268502.525,263.038,-596.859,0,0
268762.85,262.101,-598.196,0,0
269023.175,261.186,-599.211,0,0
269283.5,260.451,-599.984,0,0
269543.825,259.994,-600.611,0,0
269804.15,259.957,-601.321,0,0
270064.475,260.067,-602.261,0,0
270324.8,260.358,-603.511,0,0
270585.125,260.689,-604.998,0,0
270845.45,260.973,-606.762,0,0
271105.775,261.18,-608.672,0,0
271366.1,261.421,-610.689,0,0
271626.425,261.844,-613.004,0,0
271886.75,262.386,-615.805,0,0
272147.075,262.864,-619.343,0,0
272407.4,262.91,-623.794,0,0
272667.725,262.01,-628.848,0,0
272928.05,260.015,-634.09,0,0
273188.375,257.112,-639.169,0,0
273448.7,253.462,-644.066,0,0
273709.025,248.99,-648.672,0,0
273969.35,243.735,-652.825,0,0
274229.675,237.763,-656.316,0,0
274490.0,231.274,-658.921,0,0
274750.325,224.674,-660.69,0,0
275010.65,217.945,-661.758,0,0
275270.975,211.273,-662.258,0,0
275531.3,204.522,-662.18,0,0
275791.625,197.707,-661.385,0,0
276051.95,191.08,-659.837,0,0
276312.275,184.81,-657.676,0,0
276572.6,178.9,-655.036,0,0
276832.925,173.31,-652.02,0,0
277093.25,168.036,-648.575,0,0
277353.575,163.152,-644.697,0,0
277613.9,158.739,-640.434,0,0
277874.225,154.898,-635.937,0,0
278134.55,151.614,-631.26,0,0
278394.875,148.919,-626.533,0,0
278655.2,146.76,-621.893,0,0
278915.525,145.04,-617.425,0,0
279175.85,143.619,-613.151,0,0
279436.175,142.456,-609,0,0
279696.5,141.59,-604.989,0,0
279956.825,140.972,-601.027,0,0
280217.15,140.656,-597.376,0,0
280477.475,140.583,-593.892,0,0
280737.8,140.758,-590.693,0,0
280998.125,141.006,-587.883,0,0
281258.45,141.229,-585.422,0,0
281518.775,141.307,-583.228,0,0
281779.1,141.229,-581.163,0,0
282039.425,140.978,-579.175,0,0
282299.75,140.591,-577.223,0,0
282560,140.011,-575.238,0,0
282820,139.303,-573.096,0,0
283081,138.609,-570.751,0,0
283341,137.985,-568.327,0,0
283601,137.366,-565.716,0,0
283862,136.857,-562.946,0,0
284122,136.613,-559.994,0,0
284382,136.695,-557.033,0,0
284643,137.008,-554.164,0,0
284903,137.508,-551.442,0,0
285163,138.178,-548.862,0,0
285424,138.929,-546.435,0,0
285684,139.746,-544.197,0,0
285944,140.571,-542.061,0,0
286205,141.419,-540.044,0,0
286465,142.299,-538.151,0,0
286725,143.177,-536.382,0,0
286986,143.991,-534.741,0,0
287246,144.72,-533.149,0,0
287506,145.347,-531.583,0,0
287767,145.922,-529.983,0,0
288027,146.458,-528.316,0,0
288287,147.01,-526.588,0,0
288548,147.619,-524.75,0,0
288808,148.337,-522.86,0,0
289068,149.22,-520.98,0,0
289329,150.243,-519.175,0,0
289589,151.356,-517.469,0,0
289849,152.468,-515.89,0,0
290109,153.592,-514.376,0,0
290370,154.734,-512.847,0,0
290630,155.942,-511.369,0,0
290890,157.245,-509.973,0,0
291151,158.539,-508.72,0,0
291411,159.807,-507.574,0,0
291671,160.981,-506.457,0,0
291932,162.135,-505.334,0,0
292192,163.287,-504.184,0,0
292452,164.469,-503.038,0,0
292713,165.651,-501.932,0,0
292973,166.836,-500.831,0,0
293233,167.989,-499.709,0,0
293494,169.149,-498.526,0,0
293754,170.355,-497.304,0,0
294014,171.616,-496.025,0,0
294275,172.941,-494.703,0,0
294535,174.379,-493.311,0,0
294795,175.918,-491.858,0,0
295056,177.65,-490.343,0,0
295316,179.608,-488.844,0,0
295576,181.794,-487.404,0,0
295837,184.195,-486.042,0,0
296097,186.801,-484.849,0,0
296357,189.585,-483.83,0,0
296618,192.498,-483.02,0,0
296878,195.519,-482.377,0,0
297138,198.671,-481.926,0,0
297399,201.936,-481.67,0,0
297659,205.324,-481.672,0,0
297919,208.788,-481.954,0,0
298180,212.256,-482.5,0,0
298440,215.724,-483.292,0,0
298700.2,219.189,-484.371,0,0
298960.525,222.598,-485.61,0,0
299220.85,226.087,-487.102,0,0
299481.175,229.459,-488.92,0,0
299741.5,232.908,-490.843,0,0
300001.825,236.293,-493.096,0,0
300262.15,239.623,-495.648,0,0
300522.475,242.933,-498.546,0,0
300782.8,246.295,-501.838,0,0
301043.125,249.377,-505.587,0,0
301303.45,252.215,-509.671,0,0
301563.775,254.92,-514.16,0,0
301824.1,257.302,-519.06,0,0
302084.425,259.226,-524.486,0,0
302344.75,260.644,-530.327,0,0
302605.075,261.326,-536.51,0,0
302865.4,261.121,-542.842,0,0
303125.725,260.07,-549.03,0,0
303386.05,258.29,-554.89,0,0
303646.375,255.961,-560.329,0,0
303906.7,253.267,-565.312,0,0
304167.025,250.329,-569.911,0,0
304427.35,247.176,-574.206,0,0
304687.675,243.772,-578.253,0,0
304948.0,240.122,-581.996,0,0
305208.325,236.233,-585.408,0,0
305468.65,232.175,-588.44,0,0
305728.975,227.98,-591.148,0,0
305989.3,223.637,-593.512,0,0
306249.625,219.169,-595.509,0,0
306509.95,214.628,-597.074,0,0
306770.275,210.144,-598.212,0,0
307030.6,205.765,-598.973,0,0
307290.925,201.581,-599.459,0,0
307551.25,197.528,-599.714,0,0
307811.575,193.589,-599.831,0,0
308071.9,189.73,-599.748,0,0
308332.225,185.944,-599.49,0,0
308592.55,182.23,-598.995,0,0
308852.875,178.662,-598.283,0,0
309113.2,175.29,-597.369,0,0
309373.525,172.089,-596.359,0,0
309633.85,169.089,-595.233,0,0
309894.175,166.225,-594.018,0,0
310154.5,163.525,-592.763,0,0
310414.825,161.002,-591.435,0,0
310675.15,158.632,-590.097,0,0
310935.475,156.362,-588.764,0,0
311195.8,154.223,-587.415,0,0
311456.125,152.19,-586.031,0,0
311716.45,150.281,-584.686,0,0
311976.775,148.496,-583.363,0,0
312237.1,146.761,-582.089,0,0
312497.425,145.053,-580.902,0,0
312757.75,143.338,-579.689,0,0
313018.075,141.639,-578.455,0,0
313278.4,139.973,-577.199,0,0
313538.725,138.31,-575.936,0,0
313799.05,136.692,-574.612,0,0
314059.375,135.091,-573.237,0,0
314319.7,133.542,-571.792,0,0
314580,132.068,-570.339,0,0
314840,130.711,-568.719,0,0
315101,129.452,-567.108,0,0
315361,128.305,-565.532,0,0
315621,127.253,-563.952,0,0
315882,126.274,-562.446,0,0
316142,125.388,-560.961,0,0
316402,124.69,-559.472,0,0
316663,123.915,-558.021,0,0
316923,123.289,-556.65,0,0
317183,122.598,-555.286,0,0
317444,121.999,-554.057,0,0
317704,121.446,-552.846,0,0
317964,120.851,-551.707,0,0
318225,120.151,-550.536,0,0
318485,119.629,-549.348,0,0
318745,119.07,-548.082,0,0
319006,118.648,-546.889,0,0
319266,118.237,-545.716,0,0
319526,117.954,-544.534,0,0
319787,117.721,-543.551,0,0
320047,117.49,-542.599,0,0
320307,117.245,-541.717,0,0
320567,117.015,-540.958,0,0
320828,116.777,-540.223,0,0
321088,116.418,-539.588,0,0
321348,116.052,-538.966,0,0
321609,115.612,-538.416,0,0
321869,115.193,-537.84,0,0
322129,114.698,-537.212,0,0
322390,114.129,-536.71,0,0
322650,113.564,-536.051,0,0
322910,112.937,-535.529,0,0
323171,112.308,-534.921,0,0
323431,111.611,-534.302,0,0
323691,110.926,-533.669,0,0
323952,110.209,-532.953,0,0
324212,109.554,-532.179,0,0
324472,108.922,-531.434,0,0
324733,108.219,-530.557,0,0
324993,107.639,-529.843,0,0
325253,106.989,-528.978,0,0
325514,106.419,-528.104,0,0
325774,105.888,-527.228,0,0
326034,105.503,-526.424,0,0
326295,105.096,-525.651,0,0
326555,104.589,-524.918,0,0
326815,104.173,-524.182,0,0
327076,103.716,-523.576,0,0
327336,103.276,-522.867,0,0
327596,102.76,-522.242,0,0
327857,102.273,-521.634,0,0
328117,101.696,-521.032,0,0
328377,101.169,-520.391,0,0
328638,100.622,-519.778,0,0
328898,100.078,-519.136,0,0
329158,99.4769,-518.41,0,0
329419,98.8702,-517.791,0,0
329679,98.2883,-517.109,0,0
329939,97.7145,-516.372,0,0
330200,97.0485,-515.731,0,0
330460,96.5746,-514.991,0,0
330720.15,96.0497,-514.271,0,0
330980.475,95.5226,-513.619,0,0
331240.8,94.986,-512.992,0,0
331501.125,94.4192,-512.384,0,0
331761.45,93.8121,-511.881,0,0
332021.775,93.1398,-511.333,0,0
332282.1,92.3485,-510.732,0,0
332542.425,91.5871,-510.13,0,0
332802.75,90.8076,-509.475,0,0
333063.075,89.8807,-508.759,0,0
333323.4,89.0432,-507.975,0,0
333583.725,88.1986,-507.158,0,0
333844.05,87.3314,-506.223,0,0
334104.375,86.4953,-505.325,0,0
334364.7,85.7542,-504.336,0,0
334625.025,84.9513,-503.25,0,0
334885.35,84.2121,-502.307,0,0
335145.675,83.5288,-501.207,0,0
335406.0,82.8191,-500.209,0,0
335666.325,82.1758,-499.109,0,0
335926.65,81.4661,-497.999,0,0
336186.975,80.8547,-496.923,0,0
336447.3,80.2391,-495.775,0,0
336707.625,79.6839,-494.638,0,0
336967.95,79.049,-493.443,0,0
337228.275,78.562,-492.185,0,0
337488.6,77.9994,-490.986,0,0
337748.925,77.5654,-489.753,0,0
338009.25,77.1605,-488.543,0,0
338269.575,76.7506,-487.311,0,0
338529.9,76.3642,-486.09,0,0
338790.225,76.0188,-484.908,0,0
339050.55,75.7092,-483.704,0,0
339310.875,75.3709,-482.435,0,0
339571.2,75.0459,-481.273,0,0
339831.525,74.7908,-480.069,0,0
340091.85,74.5862,-478.91,0,0
340352.175,74.3837,-477.678,0,0
340612.5,74.0962,-476.462,0,0
340872.825,73.9166,-475.281,0,0
341133.15,73.7532,-474.065,0,0
341393.475,73.5814,-472.854,0,0
341653.8,73.5214,-471.631,0,0
341914.125,73.4579,-470.384,0,0
342174.45,73.3849,-469.205,0,0
342434.775,73.3374,-468.016,0,0
342695.1,73.3702,-466.813,0,0
342955.425,73.4175,-465.651,0,0
343215.75,73.4511,-464.511,0,0
343476.075,73.5696,-463.345,0,0
343736.4,73.69,-462.26,0,0
343996.725,73.8298,-461.175,0,0
344257.05,74.0957,-460.103,0,0
344517.375,74.3104,-459.09,0,0
344777.7,74.5305,-458.133,0,0
345038.025,74.7594,-457.183,0,0
345298.35,74.9512,-456.328,0,0
345558.675,75.2052,-455.51,0,0
345819.0,75.4102,-454.739,0,0
346079.325,75.6217,-453.922,0,0
346339.65,75.7597,-453.174,0,0
346599.975,75.9739,-452.439,0,0
346860,76.1532,-451.764,0,0
347121,76.2924,-451.137,0,0
347381,76.3677,-450.471,0,0
347641,76.4362,-449.896,0,0
347902,76.4303,-449.251,0,0
348162,76.3714,-448.632,0,0
348422,76.2802,-447.951,0,0
348683,76.1218,-447.264,0,0
348943,76.0379,-446.498,0,0
349203,75.895,-445.754,0,0
349464,75.7548,-444.919,0,0
349724,75.7267,-444.056,0,0
349984,75.6058,-443.252,0,0
350245,75.506,-442.375,0,0
350505,75.4174,-441.526,0,0
350765,75.3263,-440.595,0,0
351025,75.2594,-439.61,0,0
351286,75.2426,-438.618,0,0
351546,75.3259,-437.608,0,0
351806,75.415,-436.579,0,0
352067,75.5568,-435.563,0,0
352327,75.8006,-434.543,0,0
352587,76.0296,-433.585,0,0
352848,76.3137,-432.652,0,0
353108,76.6537,-431.717,0,0
353368,77.0085,-430.874,0,0
353629,77.4194,-430.062,0,0
353889,77.8161,-429.291,0,0
354149,78.2187,-428.606,0,0
354410,78.5992,-427.907,0,0
354670,79.0257,-427.34,0,0
354930,79.3649,-426.768,0,0
355191,79.7587,-426.273,0,0
355451,80.1465,-425.751,0,0
355711,80.4537,-425.41,0,0
355972,80.6877,-425.065,0,0
356232,80.9194,-424.687,0,0
356492,80.9917,-424.463,0,0
356753,81.0686,-424.168,0,0
357013,81.0321,-423.826,0,0
357273,80.9146,-423.522,0,0
357534,80.7297,-423.132,0,0
357794,80.4891,-422.708,0,0
358054,80.2192,-422.216,0,0
358315,79.8731,-421.608,0,0
358575,79.5593,-420.949,0,0
358835,79.2154,-420.218,0,0
359096,78.9136,-419.331,0,0
359356,78.6771,-418.414,0,0
359616,78.4634,-417.41,0,0
359877,78.3877,-416.366,0,0
360137,78.361,-415.245,0,0
360397,78.435,-414.176,0,0
360658,78.512,-413.174,0,0
360918,78.6808,-412.115,0,0
361178,78.9054,-411.123,0,0
361438,79.177,-410.097,0,0
361699,79.4841,-409.153,0,0
361959,79.7865,-408.221,0,0
362219,80.1497,-407.326,0,0
362480,80.5575,-406.412,0,0
362740.1,80.9393,-405.531,0,0
363000.425,81.3235,-404.744,0,0
363260.75,81.745,-403.892,0,0
363521.075,82.1787,-403.101,0,0
363781.4,82.5723,-402.29,0,0
364041.725,83.0318,-401.514,0,0
364302.05,83.5483,-400.754,0,0
364562.375,84.0374,-400.051,0,0
364822.7,84.5804,-399.257,0,0
365083.025,85.1787,-398.612,0,0
365343.35,85.7161,-398.019,0,0
365603.675,86.3437,-397.429,0,0
365864.0,86.9002,-396.922,0,0
366124.325,87.4815,-396.46,0,0
366384.65,87.9652,-396.002,0,0
366644.975,88.4745,-395.609,0,0
366905.3,88.9287,-395.209,0,0
367165.625,89.4088,-394.819,0,0
367425.95,89.8843,-394.354,0,0
367686.275,90.312,-393.952,0,0
367946.6,90.7967,-393.548,0,0
368206.925,91.3429,-393.192,0,0
368467.25,91.8271,-392.939,0,0
368727.575,92.3429,-392.689,0,0
368987.9,92.8418,-392.529,0,0
369248.225,93.2978,-392.41,0,0
369508.55,93.6746,-392.404,0,0
369768.875,93.9805,-392.41,0,0
370029.2,94.1535,-392.512,0,0
370289.525,94.205,-392.555,0,0
370549.85,94.1423,-392.612,0,0
370810.175,93.9581,-392.538,0,0
371070.5,93.6659,-392.429,0,0
371330.825,93.3382,-392.145,0,0
371591.15,92.959,-391.735,0,0
371851.475,92.5803,-391.187,0,0
372111.8,92.2832,-390.541,0,0
372372.125,92.0515,-389.791,0,0
372632.45,91.9386,-388.965,0,0
372892.775,91.9093,-388.106,0,0
373153.1,91.9286,-387.24,0,0
373413.425,92.0292,-386.408,0,0
373673.75,92.1646,-385.558,0,0
373934.075,92.3865,-384.751,0,0
374194.4,92.6511,-383.948,0,0
374454.725,92.9339,-383.172,0,0
374715.05,93.1913,-382.432,0,0
374975.375,93.4943,-381.677,0,0
375235.7,93.803,-380.966,0,0
375496.025,94.1338,-380.229,0,0
375756.35,94.5202,-379.506,0,0
376016.675,94.8623,-378.784,0,0
376277.0,95.2974,-378.108,0,0
376537.325,95.6924,-377.44,0,0
376797.65,96.0662,-376.813,0,0
377057.975,96.4641,-376.162,0,0
377318.3,96.8137,-375.53,0,0
377578.625,97.1424,-374.836,0,0
377838.95,97.5355,-374.156,0,0
378099.275,97.9508,-373.346,0,0
378359.6,98.4666,-372.591,0,0
378619.925,99.014,-371.805,0,0
378880,99.5688,-371.094,0,0
379141,100.234,-370.394,0,0
379401,100.907,-369.712,0,0
379661,101.603,-369.104,0,0
379922,102.332,-368.524,0,0
380182,103.058,-367.986,0,0
380442,103.804,-367.546,0,0
380703,104.49,-367.096,0,0
380963,105.202,-366.617,0,0
381223,105.858,-366.23,0,0
381483,106.623,-365.758,0,0
381744,107.297,-365.342,0,0
382004,108.074,-364.976,0,0
382264,108.845,-364.581,0,0
382525,109.603,-364.28,0,0
382785,110.404,-363.983,0,0
383045,111.184,-363.763,0,0
383306,111.984,-363.571,0,0
383566,112.719,-363.489,0,0
383826,113.442,-363.327,0,0
384087,114.12,-363.266,0,0
384347,114.764,-363.205,0,0
384607,115.399,-363.103,0,0
384868,115.997,-363.045,0,0
385128,116.593,-363.076,0,0
385388,117.15,-363.024,0,0
385649,117.615,-363.008,0,0
385909,118.085,-362.946,0,0
386169,118.517,-362.818,0,0
386430,118.986,-362.658,0,0
386690,119.451,-362.543,0,0
386950,119.976,-362.424,0,0
387211,120.416,-362.317,0,0
387471,120.862,-362.237,0,0
387731,121.27,-362.144,0,0
387992,121.692,-361.962,0,0
388252,122.078,-361.728,0,0
388512,122.502,-361.432,0,0
388773,122.957,-361.099,0,0
389033,123.511,-360.769,0,0
389293,124.116,-360.464,0,0
389554,124.788,-360.138,0,0
389814,125.485,-359.918,0,0
390074,126.192,-359.704,0,0
390335,126.957,-359.507,0,0
390595,127.683,-359.366,0,0
390855,128.454,-359.264,0,0
391116,129.197,-359.17,0,0
391376,129.96,-359.134,0,0
391636,130.669,-359.086,0,0
391896,131.421,-359.026,0,0
392157,132.199,-358.955,0,0
392417,132.963,-358.935,0,0
392677,133.804,-358.956,0,0
392938,134.645,-358.974,0,0
393198,135.464,-359.033,0,0
393458,136.316,-359.135,0,0
393719,137.13,-359.29,0,0
393979,137.976,-359.372,0,0
394239,138.802,-359.462,0,0
394500,139.706,-359.652,0,0
394760.05,140.614,-359.816,0,0
395020.375,141.602,-360.057,0,0
395280.7,142.606,-360.352,0,0
395541.025,143.548,-360.682,0,0
395801.35,144.534,-361.081,0,0
396061.675,145.556,-361.569,0,0
396322.0,146.535,-362.092,0,0
396582.325,147.577,-362.673,0,0
396842.65,148.595,-363.3,0,0
397102.975,149.626,-364.091,0,0
397363.3,150.621,-364.927,0,0
397623.625,151.583,-365.975,0,0
397883.95,152.464,-366.985,0,0
398144.275,153.314,-368.059,0,0
398404.6,154.048,-369.277,0,0
398664.925,154.737,-370.555,0,0
398925.25,155.323,-371.924,0,0
399185.575,155.827,-373.342,0,0
399445.9,156.189,-374.814,0,0
399706.225,156.451,-376.344,0,0
399966.55,156.566,-377.89,0,0
400006.6,156.51,-378.101,0,0