File: Accelerated corrosion test data/2025-10-03_18-00-02/sample_3.csv
Frequency (Hz),Impedance (ohms),Phase (Radians),Temperature (C),Humidity (%)
10000.0,256.466,-11658.1,0,0
10260.325,250.649,-11365,0,0
10520.65,244.813,-11085.5,0,0
10780.975,240.032,-10818.3,0,0
11041.3,234.026,-10569.2,0,0
11301.625,228.389,-10326.9,0,0
11561.95,223.676,-10096.3,0,0
11822.275,219.08,-9875.2,0,0
12082.6,215.568,-9664.21,0,0
12342.925,213.094,-9460.42,0,0
12603.25,206.581,-9268.8,0,0
12863.575,203.193,-9081.02,0,0
13123.9,203.969,-8900.22,0,0
13384.225,196.142,-8733.68,0,0
13644.55,192.854,-8567.32,0,0
13904.875,189.121,-8405.84,0,0
14165.2,188.608,-8250.54,0,0
14425.525,183.061,-8103.34,0,0
14685.8,181.147,-7960.8,0,0
14946.175,179.251,-7823.16,0,0
15206.5,176.229,-7685.08,0,0
15466.825,180.139,-7548.71,0,0
15727.15,197.525,-7443.24,0,0
15987.5,175.514,-7334.06,0,0
16247.8,170.976,-7207.82,0,0
16508.125,164.648,-7096.19,0,0
16768.45,167.41,-6977.44,0,0
17028.775,160.476,-6879.57,0,0
17289.1,164.201,-6768.27,0,0
17549.425,158.467,-6676.46,0,0
17809.75,160.066,-6574.42,0,0
18070.075,165.193,-6486.02,0,0
18330.4,153.214,-6395.63,0,0
18590.725,150.939,-6304.62,0,0
18851.05,147.337,-6215.51,0,0
19111.375,148.611,-6127.44,0,0
19371.7,147.31,-6045.22,0,0
19632.025,147.487,-5963.15,0,0
19892.35,151.805,-5881.82,0,0
20152.675,149.398,-5810.03,0,0
20413.0,158.933,-5731.12,0,0
20673.3,166.818,-5664.69,0,0
20933.65,161.212,-5612.01,0,0
21193.975,163.094,-5550.93,0,0
21454.3,145.208,-5486.66,0,0
21714.625,139.911,-5412.67,0,0
21974.9,144.222,-5348.2,0,0
22235.275,139.872,-5289.63,0,0
22495.6,139.99,-5229.65,0,0
22755.925,131.392,-5168.98,0,0
23016.25,129.39,-5110.74,0,0
23276.6,129.992,-5049.54,0,0
23536.9,129.96,-5003.75,0,0
23797.225,123.089,-4945.9,0,0
24057.55,121.071,-4889.7,0,0
24317.875,121.002,-4834.61,0,0
24578.2,118.874,-4784.83,0,0
24838.525,120.129,-4733.15,0,0
25098.85,117.993,-4687.17,0,0
25359.175,115.448,-4638.34,0,0
25619.5,114.888,-4590.7,0,0
25879.8,112.427,-4544.51,0,0
26140.1,110.158,-4497.86,0,0
26400.5,109.569,-4450.99,0,0
26660.8,109.621,-4407.07,0,0
26921.1,110.323,-4363.27,0,0
27181.4,109.18,-4323.03,0,0
27441.8,108.288,-4279.72,0,0
27702.1,110.108,-4241.31,0,0
27962.4,106.496,-4201.57,0,0
28222.7,105.435,-4158.69,0,0
28483.1,112.747,-4118.31,0,0
28743.4,114.808,-4083.66,0,0
29003.7,115.14,-4052.7,0,0
29264,107.275,-4018.55,0,0
29524.4,111.332,-3983.5,0,0
29784.7,106.259,-3949.26,0,0
30045,103.527,-3915.49,0,0
30305.3,101.586,-3878.39,0,0
30565.7,104.002,-3845.45,0,0
30826,101.869,-3812.44,0,0
31086.3,104.027,-3781.75,0,0
31346.6,99.4674,-3750.77,0,0
31607,98.4798,-3716.77,0,0
31867.3,99.8546,-3683.63,0,0
32127.6,102.38,-3650.84,0,0
32387.9,110.219,-3622.56,0,0
32648.3,112.093,-3605.36,0,0
32908.6,103.902,-3579.58,0,0
33168.9,102.317,-3551.83,0,0
33429.2,100.571,-3527.24,0,0
33689.6,95.4034,-3499.85,0,0
33949.9,92.348,-3470.22,0,0
34210.2,91.7044,-3443.05,0,0
34470.5,90.8708,-3416.99,0,0
34730.9,89.3208,-3390.52,0,0
34991.2,87.9612,-3364.21,0,0
35251.5,87.3928,-3339.18,0,0
35511.8,86.1462,-3313.61,0,0
35772.2,85.414,-3289.01,0,0
36032.5,84.8795,-3264.36,0,0
36292.8,84.2978,-3240.15,0,0
36553.1,84.0886,-3216.82,0,0
36813.5,83.0148,-3193.98,0,0
37073.8,82.1133,-3170.93,0,0
37334.1,81.825,-3148.03,0,0
37594.4,81.4257,-3125.74,0,0
37854.8,80.5422,-3103.79,0,0
38115.1,80.0896,-3082.34,0,0
38375.4,79.8685,-3060.56,0,0
38635.7,79.3779,-3039.33,0,0
38896.1,79.0241,-3018.72,0,0
39156.4,78.6343,-2997.97,0,0
39416.7,78.4859,-2977.87,0,0
39677,77.5767,-2958.06,0,0
39937.4,76.9965,-2938.06,0,0
40197.7,76.8364,-2918.22,0,0
40458,76.3571,-2899.12,0,0
40718.3,76.0643,-2879.98,0,0
40978.7,75.7411,-2860.84,0,0
41239,75.6025,-2842.55,0,0
41499.3,75.1168,-2824.22,0,0
41759.6,75.4454,-2806.09,0,0
42020,75.1173,-2788.15,0,0
42280.275,74.8756,-2770.87,0,0
42540.6,74.4257,-2753.56,0,0
42800.925,74.3045,-2736.52,0,0
43061.25,73.6839,-2719.54,0,0
43321.575,73.3099,-2702.61,0,0
43581.9,72.7546,-2685.39,0,0
43842.225,73.0186,-2668.92,0,0
44102.55,73.24,-2652.98,0,0
44362.875,72.8763,-2637.06,0,0
44623.2,72.4352,-2621.48,0,0
44883.525,72.1863,-2605.46,0,0
45143.85,71.8927,-2590.12,0,0
45404.175,71.5777,-2574.61,0,0
45664.5,71.337,-2558.86,0,0
45924.825,72.0563,-2544.13,0,0
46185.15,71.4479,-2529.92,0,0
46445.475,70.9488,-2514.98,0,0
46705.8,70.8866,-2500.23,0,0
46966.125,71.2646,-2486.08,0,0
47226.45,70.4828,-2471.8,0,0
47486.775,70.376,-2457.5,0,0
47747.1,71.3845,-2443.15,0,0
48007.425,71.6714,-2430.52,0,0
48267.75,71.5091,-2418.02,0,0
48528.075,70.6097,-2404.34,0,0
48788.4,70.3975,-2391.47,0,0
49048.725,69.5258,-2378.44,0,0
49309.05,69.1616,-2365.15,0,0
49569.375,68.8138,-2352.1,0,0
49829.7,68.801,-2339.35,0,0
50090.025,68.1117,-2326.86,0,0
50350.35,67.826,-2313.85,0,0
50610.675,67.7001,-2301.1,0,0
50871.0,67.6487,-2288.69,0,0
51131.325,67.511,-2276.43,0,0
51391.65,67.4721,-2264.15,0,0
51651.975,67.4921,-2252.12,0,0
51912.3,67.3094,-2240.18,0,0
52172.625,67.1696,-2228.34,0,0
52432.95,67.0793,-2216.26,0,0
52693.275,67.4691,-2204.42,0,0
52953.6,67.8359,-2192.81,0,0
53213.925,68.7378,-2181.4,0,0
53474.25,69.3967,-2170.93,0,0
53734.575,69.3952,-2160.08,0,0
53994.9,69.9018,-2149.23,0,0
54255.225,70.8989,-2139.05,0,0
54515.55,71.7733,-2129.95,0,0
54775.875,70.9547,-2120.86,0,0
55036.2,70.1895,-2110.96,0,0
55296.525,69.5435,-2101.7,0,0
55556.85,67.8658,-2092.49,0,0
55817.175,66.3984,-2081.58,0,0
56077.5,65.3807,-2071.25,0,0
56337.825,64.5201,-2061.01,0,0
56598.15,63.4523,-2050.47,0,0
56858.475,62.6415,-2039.65,0,0
57118.8,62.335,-2028.93,0,0
57379.125,62.2976,-2018.47,0,0
57639.45,62.2334,-2008.17,0,0
57899.775,62.3038,-1997.98,0,0
58160.1,62.3905,-1988.2,0,0
58420.4,62.1442,-1978.28,0,0
58680.7,62.2763,-1968.42,0,0
58941.1,62.4623,-1958.72,0,0
59201.4,62.6196,-1948.96,0,0
59461.7,62.9522,-1939.47,0,0
59722,63.2334,-1930.14,0,0
59982.4,63.4375,-1920.76,0,0
60242.7,63.7254,-1911.52,0,0
60503,63.9753,-1902.33,0,0
60763.3,64.3672,-1893.15,0,0
61023.7,64.7621,-1884.16,0,0
61284,65.273,-1875.12,0,0
61544.3,66.1312,-1866.4,0,0
61804.6,66.2343,-1858,0,0
62065,66.5775,-1849.24,0,0
62325.3,67.0458,-1840.38,0,0
62585.6,67.6443,-1831.6,0,0
62845.9,68.6916,-1822.76,0,0
63106.3,69.8929,-1814.42,0,0
63366.6,70.2923,-1806.08,0,0
63626.9,71.5644,-1797.3,0,0
63887.2,73.1676,-1788.93,0,0
64147.6,74.9812,-1780.86,0,0
64407.9,76.9509,-1772.88,0,0
64668.2,79.5907,-1765.17,0,0
64928.5,82.6214,-1757.94,0,0
65188.9,86.2674,-1752.73,0,0
65449.2,88.6215,-1748.17,0,0
65709.5,90.8867,-1743.58,0,0
65969.8,93.6826,-1741.72,0,0
66230.2,91.9491,-1741.79,0,0
66490.5,87.1402,-1738.66,0,0
66750.8,81.0587,-1732.87,0,0
67011.1,78.4694,-1723.43,0,0
67271.5,77.3227,-1715.63,0,0
67531.8,75.8367,-1707.47,0,0
67792.1,75.7153,-1699.65,0,0
68052.4,75.9623,-1691.7,0,0
68312.8,77.0407,-1685.2,0,0
68573.1,76.9451,-1679.26,0,0
68833.4,76.8037,-1672.87,0,0
69093.7,77.1182,-1666.54,0,0
69354.1,77.135,-1661.03,0,0
69614.4,76.6667,-1656.05,0,0
69874.7,75.7869,-1650.24,0,0
70135,74.4124,-1644.65,0,0
70395.4,73.2843,-1638.46,0,0
70655.7,72.2563,-1632.16,0,0
70916,71.1174,-1625.79,0,0
71176.3,70.2823,-1618.92,0,0
71436.7,69.5279,-1612.58,0,0
71697,68.9071,-1605.72,0,0
71957.3,68.9219,-1599.06,0,0
72217.6,68.8413,-1592.81,0,0
72478,68.8284,-1586.83,0,0
72738.3,68.6884,-1581.03,0,0
72998.6,68.4537,-1575.5,0,0
73258.9,67.7539,-1569.84,0,0
73519.3,67.2712,-1564.04,0,0
73779.6,66.8189,-1558.26,0,0
74039.9,66.1126,-1552.72,0,0
74300.225,65.4223,-1546.96,0,0
74560.55,64.7107,-1541.23,0,0
74820.875,64.0311,-1535.42,0,0
75081.2,63.2323,-1529.6,0,0
75341.525,62.6237,-1523.73,0,0
75601.85,61.9657,-1517.93,0,0
75862.175,61.2819,-1512.04,0,0
76122.5,60.7106,-1506.15,0,0
76382.825,60.1979,-1500.3,0,0
76643.15,59.6944,-1494.43,0,0
76903.475,59.2697,-1488.56,0,0
77163.8,58.8719,-1482.85,0,0
77424.125,58.5335,-1477.21,0,0
77684.45,58.1224,-1471.51,0,0
77944.775,57.6728,-1465.82,0,0
78205.1,57.3127,-1460.19,0,0
78465.425,56.8225,-1454.48,0,0
78725.75,56.5467,-1448.87,0,0
78986.075,56.2255,-1443.26,0,0
79246.4,55.9111,-1437.63,0,0
79506.725,55.5594,-1432.1,0,0
79767.05,55.2757,-1426.57,0,0
80027.375,55.1284,-1421.02,0,0
80287.7,54.9084,-1415.59,0,0
80548.025,54.6573,-1410.16,0,0
80808.35,54.5108,-1404.78,0,0
81068.675,54.3239,-1399.36,0,0
81329.0,54.1425,-1393.98,0,0
81589.325,54.061,-1388.64,0,0
81849.65,53.8882,-1383.38,0,0
82109.975,53.7582,-1378.11,0,0
82370.3,53.6789,-1372.81,0,0
82630.625,53.5921,-1367.66,0,0
82890.95,53.6251,-1362.46,0,0
83151.275,53.5085,-1357.34,0,0
83411.6,53.4981,-1352.24,0,0
83671.925,53.3898,-1347.12,0,0
83932.25,53.4073,-1342.1,0,0
84192.575,53.3746,-1337.07,0,0
84452.9,53.3984,-1332.09,0,0
84713.225,53.2891,-1327.15,0,0
84973.55,53.3323,-1322.14,0,0
85233.875,53.3565,-1317.24,0,0
85494.2,53.4084,-1312.28,0,0
85754.525,53.515,-1307.43,0,0
86014.85,53.5798,-1302.62,0,0
86275.175,53.6447,-1297.86,0,0
86535.5,53.64,-1293.01,0,0
86795.825,53.6944,-1288.3,0,0
87056.15,53.7649,-1283.48,0,0
87316.475,53.9269,-1278.65,0,0
87576.8,53.9927,-1273.92,0,0
87837.125,54.2664,-1269.25,0,0
88097.45,54.3193,-1264.61,0,0
88357.775,54.5432,-1259.92,0,0
88618.1,54.6279,-1255.16,0,0
88878.425,54.9246,-1250.29,0,0
89138.75,55.3008,-1245.65,0,0
89399.075,55.8523,-1241,0,0
89659.4,56.2482,-1236.49,0,0
89919.725,56.9917,-1232.07,0,0
90180,57.4895,-1227.98,0,0
90440.4,57.8225,-1223.69,0,0
90700.7,58.3903,-1219.33,0,0
90961,58.8961,-1215.21,0,0
91221.3,59.432,-1210.98,0,0
91481.7,60.1275,-1206.93,0,0
91742,60.7002,-1202.99,0,0
92002.3,61.2409,-1198.95,0,0
92262.6,62.045,-1195.09,0,0
92523,62.8506,-1191.5,0,0
92783.3,63.3144,-1188.08,0,0
93043.6,63.8544,-1184.49,0,0
93303.9,64.5554,-1181.1,0,0
93564.3,65.1715,-1177.93,0,0
93824.6,65.6627,-1174.97,0,0
94084.9,65.9504,-1172.36,0,0
94345.2,65.911,-1169.7,0,0
94605.6,65.5803,-1167.14,0,0
94865.9,64.9222,-1164.82,0,0
95126.2,63.3004,-1162.19,0,0
95386.5,61.4452,-1158.31,0,0
95646.9,60.4161,-1154.01,0,0
95907.2,59.634,-1149.78,0,0
96167.5,58.9572,-1145.35,0,0
96427.8,58.7811,-1140.91,0,0
96688.2,58.7695,-1136.84,0,0
96948.5,58.6622,-1132.96,0,0
97208.8,58.5847,-1128.94,0,0
97469.1,58.5967,-1125.09,0,0
97729.5,58.6005,-1121.27,0,0
97989.8,58.4577,-1117.52,0,0
98250.1,58.3441,-1113.78,0,0
98510.4,58.2573,-1110.05,0,0
98770.8,58.1704,-1106.31,0,0
99031.1,58.0579,-1102.66,0,0
99291.4,57.7825,-1099.05,0,0
99551.7,57.5391,-1095.27,0,0
99812.1,57.2959,-1091.42,0,0
100072,57.0707,-1087.63,0,0
100333,56.9066,-1083.75,0,0
100593,56.7003,-1079.83,0,0
100853,56.5323,-1075.83,0,0
101114,56.4749,-1071.78,0,0
101374,56.5035,-1067.63,0,0
101634,56.7633,-1063.52,0,0
101895,56.9931,-1059.53,0,0
102155,57.3551,-1055.39,0,0
102415,57.9449,-1051.26,0,0
102676,58.8857,-1047.38,0,0
102936,59.7401,-1043.95,0,0
103196,60.4215,-1040.65,0,0
103457,61.0403,-1037.31,0,0
103717,61.5735,-1033.91,0,0
103977,62.3675,-1030.46,0,0
104238,63.4552,-1027.36,0,0
104498,64.5168,-1024.95,0,0
104758,64.7842,-1022.84,0,0
105019,64.702,-1020.37,0,0
105279,64.5559,-1017.73,0,0
105539,64.3985,-1014.92,0,0
105800,64.2936,-1012.29,0,0
106060,63.8325,-1009.72,0,0
106320.175,63.2305,-1006.68,0,0
106580.5,62.7537,-1003.7,0,0
106840.825,62.218,-1000.62,0,0
107101.15,61.6204,-997.418,0,0
107361.475,61.0479,-993.998,0,0
107621.8,60.6053,-990.489,0,0
107882.125,60.1919,-986.952,0,0
108142.45,59.9245,-983.39,0,0
108402.775,59.6245,-979.894,0,0
108663.1,59.3158,-976.291,0,0
108923.425,59.0631,-972.533,0,0
109183.75,58.9496,-968.752,0,0
109444.075,59.0393,-964.927,0,0
109704.4,59.1457,-961.205,0,0
109964.725,59.2638,-957.553,0,0
110225.05,59.4245,-953.825,0,0
110485.375,59.7784,-949.973,0,0
110745.7,60.3159,-946.204,0,0
111006.025,61.005,-942.76,0,0
111266.35,61.6909,-939.489,0,0
111526.675,62.1845,-936.17,0,0
111787.0,62.5959,-932.859,0,0
112047.325,63.0258,-929.547,0,0
112307.65,63.5383,-926.371,0,0
112567.975,64.0141,-923.264,0,0
112828.3,64.3999,-920.107,0,0
113088.625,64.6962,-916.908,0,0
113348.95,65.0821,-913.725,0,0
113609.275,65.5387,-910.46,0,0
113869.6,65.9068,-907.238,0,0
114129.925,66.3779,-903.986,0,0
114390.25,66.8389,-900.758,0,0
114650.575,67.2908,-897.484,0,0
114910.9,67.9405,-894.178,0,0
115171.225,68.5676,-890.969,0,0
115431.55,69.1346,-887.781,0,0
115691.875,69.9197,-884.454,0,0
115952.2,70.7078,-881.372,0,0
116212.525,71.4908,-878.249,0,0
116472.85,72.3074,-875.024,0,0
116733.175,73.3745,-871.887,0,0
116993.5,74.3057,-869.001,0,0
117253.825,75.1849,-866.014,0,0
117514.15,76.2753,-862.819,0,0
117774.475,77.6335,-859.794,0,0
118034.8,79.0962,-857.04,0,0
118295.125,80.7661,-854.496,0,0
118555.45,82.2502,-852.415,0,0
118815.775,83.3737,-850.438,0,0
119076.1,84.3628,-848.23,0,0
119336.425,85.7464,-845.796,0,0
119596.75,87.5699,-843.941,0,0
119857.075,89.1752,-842.899,0,0
120117.4,89.9949,-842.31,0,0
120377.725,90.0691,-841.409,0,0
120638.05,90.0563,-840.058,0,0
120898.375,89.9258,-838.627,0,0
121158.7,89.801,-837.229,0,0
121419.025,89.1569,-835.726,0,0
121679.35,88.3893,-833.689,0,0
121939.675,87.8624,-831.191,0,0
122200.0,87.6626,-828.653,0,0
122460,87.6336,-826.089,0,0
122721,87.6706,-823.641,0,0
122981,87.891,-821.158,0,0
123241,88.2471,-818.896,0,0
123502,88.4037,-816.78,0,0
123762,88.4882,-814.633,0,0
124022,88.5845,-812.405,0,0
124283,88.755,-810.174,0,0
124543,88.9149,-808.064,0,0
124803,89.0241,-805.977,0,0
125064,89.1533,-803.906,0,0
125324,89.1655,-801.898,0,0
125584,89.159,-799.854,0,0
125845,89.1705,-797.854,0,0
126105,89.0242,-795.96,0,0
126365,88.8056,-793.986,0,0
126626,88.4511,-791.992,0,0
126886,88.0983,-789.858,0,0
127146,87.7138,-787.703,0,0
127406,87.3368,-785.551,0,0
127667,86.7802,-783.231,0,0
127927,86.3402,-780.848,0,0
128187,85.9,-778.443,0,0
128448,85.3361,-775.987,0,0
128708,84.8401,-773.19,0,0
128968,84.5779,-770.349,0,0
129229,84.3707,-767.651,0,0
129489,84.1598,-764.895,0,0
129749,83.962,-761.93,0,0
130010,84.068,-758.975,0,0
130270,84.4616,-756.095,0,0
130530,84.9405,-753.494,0,0
130791,85.4247,-751.138,0,0
131051,85.6541,-749.038,0,0
131311,85.6719,-746.848,0,0
131572,85.6907,-744.609,0,0
131832,85.66,-742.445,0,0
132092,85.4076,-740.202,0,0
132353,85.156,-737.752,0,0
132613,85.0807,-735.224,0,0
132873,85.0663,-732.841,0,0
133134,84.9354,-730.542,0,0
133394,84.7127,-728.226,0,0
133654,84.494,-725.845,0,0
133915,84.1223,-723.408,0,0
134175,83.8358,-720.863,0,0
134435,83.6167,-718.362,0,0
134696,83.2593,-715.834,0,0
134956,82.7743,-713.217,0,0
135216,82.5036,-710.391,0,0
135477,82.3241,-707.604,0,0
135737,82.0508,-704.927,0,0
135997,81.7067,-702.074,0,0
136258,81.4088,-699.113,0,0
136518,81.1842,-696.142,0,0
136778,81.0663,-692.995,0,0
137039,81.072,-689.907,0,0
137299,81.2347,-686.741,0,0
137559,81.5255,-683.804,0,0
137819,81.7156,-680.91,0,0
138080,82.0358,-677.929,0,0
138340.125,82.5158,-675.159,0,0
138600.45,82.8591,-672.699,0,0
138860.775,82.8785,-670.317,0,0
139121.1,82.6935,-667.66,0,0
139381.425,82.643,-664.864,0,0
139641.75,82.5319,-662.098,0,0
139902.075,82.3849,-659.227,0,0
140162.4,82.2943,-656.191,0,0
140422.725,82.392,-653.161,0,0
140683.05,82.5247,-650.185,0,0
140943.375,82.6099,-647.322,0,0
141203.7,82.5974,-644.443,0,0
141464.025,82.5131,-641.505,0,0
141724.35,82.3755,-638.445,0,0
141984.675,82.2935,-635.239,0,0
142245.0,82.3317,-631.995,0,0
142505.325,82.3767,-628.796,0,0
142765.65,82.3635,-625.503,0,0
143025.975,82.4311,-622.134,0,0
143286.3,82.5572,-618.726,0,0
143546.625,82.6915,-615.246,0,0
143806.95,82.9461,-611.697,0,0
144067.275,83.2861,-608.215,0,0
144327.6,83.6278,-604.702,0,0
144587.925,83.9952,-601.228,0,0
144848.25,84.3211,-597.646,0,0
145108.575,84.7371,-594.021,0,0
145368.9,85.155,-590.345,0,0
145629.225,85.6518,-586.633,0,0
145889.55,86.1732,-582.852,0,0
146149.875,86.7718,-579.023,0,0
146410.2,87.4664,-575.107,0,0
146670.525,88.2854,-571.193,0,0
146930.85,89.1695,-567.285,0,0
147191.175,90.0929,-563.338,0,0
147451.5,91.1396,-559.35,0,0
147711.825,92.2324,-555.406,0,0
147972.15,93.407,-551.385,0,0
148232.475,94.6988,-547.346,0,0
148492.8,96.0582,-543.309,0,0
148753.125,97.5038,-539.244,0,0
149013.45,99.0664,-535.109,0,0
149273.775,100.777,-530.976,0,0
149534.1,102.702,-526.821,0,0
149794.425,104.789,-522.751,0,0
150054.75,107.002,-518.715,0,0
150315.075,109.489,-514.753,0,0
150575.4,112.149,-511.04,0,0
150835.725,114.849,-507.539,0,0
151096.05,117.572,-504.176,0,0
151356.375,120.371,-501.021,0,0
151616.7,123.073,-498.1,0,0
151877.025,125.678,-495.22,0,0
152137.35,128.268,-492.348,0,0
152397.675,130.964,-489.598,0,0
152658.0,133.645,-487.05,0,0
152918.325,136.225,-484.739,0,0
153178.65,138.543,-482.613,0,0
153438.975,140.526,-480.372,0,0
153699.3,142.432,-477.952,0,0
153959.625,144.383,-475.412,0,0
154219.95,146.47,-472.967,0,0
154480,148.229,-470.794,0,0
154741,149.448,-468.457,0,0
155001,150.488,-465.215,0,0
155261,152.114,-461.455,0,0
155522,154.519,-457.803,0,0
155782,156.984,-454.902,0,0
156042,158.968,-451.983,0,0
156303,160.741,-448.682,0,0
156563,162.862,-444.9,0,0
156823,165.516,-440.962,0,0
157084,168.566,-437.351,0,0
157344,171.933,-433.926,0,0
157604,175.366,-431.05,0,0
157864,178.767,-428.382,0,0
158125,182.029,-426.28,0,0
158385,184.56,-424.39,0,0
158645,186.694,-422.527,0,0
158906,187.902,-419.87,0,0
159166,189.647,-416.332,0,0
159426,191.461,-413.14,0,0
159687,192.566,-409.21,0,0
159947,194.222,-404.013,0,0
160207,196.917,-398.522,0,0
160468,200.011,-392.761,0,0
160728,204.089,-386.54,0,0
160988,209.577,-380.866,0,0
161249,215.345,-376.259,0,0
161509,220.344,-372.186,0,0
161769,225.186,-366.817,0,0
162030,231.887,-360.901,0,0
162290,239.877,-356.188,0,0
162550,248.042,-352.766,0,0
162811,255.828,-349.652,0,0
163071,263.901,-346.663,0,0
163331,272.26,-343.877,0,0
163592,281.255,-341.616,0,0
163852,290.539,-340.127,0,0
164112,299.679,-339.304,0,0
164373,308.668,-338.45,0,0
164633,318.555,-337.577,0,0
164893,329.784,-337.675,0,0
165154,341.511,-340.063,0,0
165414,352.053,-344.237,0,0
165674,361.372,-348.946,0,0
165935,370.264,-353.534,0,0
166195,379.312,-359.285,0,0
166455,387.044,-366.22,0,0
166716,393.928,-372.949,0,0
166976,400.414,-380.348,0,0
167236,405.682,-388.031,0,0
167497,410.187,-395.39,0,0
167757,414.609,-402.849,0,0
168017,418.453,-410.866,0,0
168277,421.108,-419.732,0,0
168538,422.128,-428.227,0,0
168798,422.358,-435.54,0,0
169058,422.949,-442.138,0,0
169319,423.941,-449.5,0,0
169579,423.517,-458.436,0,0
169839,420.149,-466.978,0,0
170100,414.961,-473.036,0,0
170360.075,410.134,-476.629,0,0
170620.4,406.298,-479.378,0,0
170880.725,402.557,-481.74,0,0
171141.05,398.675,-483.284,0,0
171401.375,395.113,-483.292,0,0
171661.7,393.126,-482.453,0,0
171922.025,392.049,-482.082,0,0
172182.35,391.451,-481.616,0,0
172442.675,391.353,-481.5,0,0
172703.0,391.301,-481.21,0,0
172963.325,392.18,-480.759,0,0
173223.65,393.836,-480.924,0,0
173483.975,395.591,-481.769,0,0
173744.3,397.423,-482.915,0,0
174004.625,399.873,-484.583,0,0
174264.95,402.368,-487.723,0,0
174525.275,403.594,-491.955,0,0
174785.6,403.63,-496.149,0,0
175045.925,402.908,-499.558,0,0
175306.25,402.527,-502.387,0,0
175566.575,402.414,-506.005,0,0
175826.9,401.291,-510.336,0,0
176087.225,398.766,-514.22,0,0
176347.55,395.876,-516.766,0,0
176607.875,393.832,-518.945,0,0
176868.2,391.797,-521.759,0,0
177128.525,388.84,-524.858,0,0
177388.85,384.963,-527.305,0,0
177649.175,380.925,-529.153,0,0
177909.5,376.247,-530.755,0,0
178169.825,370.59,-531.005,0,0
178430.15,365.339,-529.546,0,0
178690.475,361.233,-526.919,0,0
178950.8,358.478,-523.99,0,0
179211.125,356.569,-521.659,0,0
179471.45,354.368,-519.698,0,0
179731.775,352.074,-516.972,0,0
179992.1,350.606,-513.556,0,0
180252.425,350.448,-509.952,0,0
180512.75,351.506,-507.172,0,0
180773.075,352.803,-505.667,0,0
181033.4,353.55,-504.702,0,0
181293.725,354.175,-503.728,0,0
181554.05,355.429,-502.813,0,0
181814.375,357.124,-503.196,0,0
182074.7,357.837,-505.267,0,0
182335.025,356.542,-507.71,0,0
182595.35,353.834,-508.836,0,0
182855.675,351.091,-508.807,0,0
183116.0,348.432,-508.161,0,0
183376.325,346.005,-507.107,0,0
183636.65,343.694,-505.737,0,0
183896.975,341.459,-504.132,0,0
184157.3,339.26,-502.27,0,0
184417.625,337.183,-500.027,0,0
184677.95,335.355,-497.673,0,0
184938.275,333.426,-495.087,0,0
185198.6,331.771,-492.033,0,0
185458.925,330.366,-488.919,0,0
185719.25,329.042,-485.575,0,0
185979.575,327.807,-481.925,0,0
186239.9,326.82,-477.786,0,0
186500,326.428,-473.257,0,0
186761,326.851,-468.406,0,0
187021,328.155,-463.929,0,0
187281,329.869,-460.048,0,0
187542,331.553,-456.628,0,0
187802,333.438,-453.37,0,0
188062,335.522,-450.09,0,0
188322,338.049,-447.297,0,0
188583,340.449,-445.406,0,0
188843,342.194,-443.986,0,0
189103,343.264,-442.121,0,0
189364,344.181,-439.59,0,0
189624,345.557,-436.748,0,0
189884,347.434,-434.063,0,0
190145,349.513,-431.564,0,0
190405,351.52,-429.52,0,0
190665,353.395,-427.469,0,0
190926,354.985,-425.484,0,0
191186,356.407,-423.257,0,0
191446,357.734,-420.645,0,0
191707,359.426,-417.69,0,0
191967,361.368,-414.712,0,0
192227,363.417,-411.828,0,0
192488,365.437,-408.781,0,0
192748,367.638,-405.424,0,0
193008,370.191,-401.67,0,0
193269,373.362,-397.931,0,0
193529,376.859,-394.137,0,0
193789,380.749,-390.246,0,0
194050,385.362,-386.214,0,0
194310,390.879,-382.334,0,0
194570,397.4,-379.163,0,0
194831,404.55,-376.941,0,0
195091,411.766,-375.895,0,0
195351,418.974,-376.02,0,0
195612,425.514,-376.804,0,0
195872,431.706,-378.068,0,0
196132,437.55,-379.483,0,0
196393,443.049,-381.357,0,0
196653,448.562,-383.735,0,0
196913,453.891,-386.944,0,0
197174,457.761,-390.812,0,0
197434,460.434,-394.155,0,0
197694,462.882,-396.924,0,0
197955,465.421,-400.03,0,0
198215,467.367,-403.128,0,0
198475,468.294,-406.205,0,0
198735,468.057,-408.317,0,0
198996,468.008,-408.813,0,0
199256,468.961,-408.596,0,0
199516,470.755,-408.647,0,0
199777,472.782,-409.332,0,0
200037,474.118,-410.693,0,0
200297,474.208,-411.61,0,0
200558,473.934,-410.983,0,0
200818,474.529,-409.209,0,0
201078,476.172,-407.291,0,0
201339,478.154,-405.632,0,0
201599,480.175,-403.919,0,0
201859,482.376,-401.679,0,0
202120,485.228,-398.878,0,0
202380.025,489.211,-395.946,0,0
202640.35,494.229,-393.359,0,0
202900.675,499.886,-391.432,0,0
203161.0,506.05,-390.075,0,0
203421.325,512.61,-389.425,0,0
203681.65,519.499,-389.612,0,0
203941.975,526.334,-390.705,0,0
204202.3,532.866,-392.494,0,0
204462.625,539.094,-394.693,0,0
204722.95,545.003,-397.25,0,0
204983.275,551.014,-400.339,0,0
205243.6,556.69,-404.315,0,0
205503.925,561.158,-408.911,0,0
205764.25,564.589,-413.329,0,0
206024.575,567.099,-417.35,0,0
206284.9,569.048,-420.514,0,0
206545.225,570.963,-422.76,0,0
206805.55,573.252,-424.417,0,0
207065.875,575.999,-425.666,0,0
207326.2,579.04,-426.816,0,0
207586.525,582.424,-427.88,0,0
207846.85,586.099,-428.725,0,0
208107.175,590.318,-429.329,0,0
208367.5,595.357,-430.007,0,0
208627.825,600.977,-431.276,0,0
208888.15,606.905,-433.036,0,0
209148.475,613.138,-435.235,0,0
209408.8,619.649,-438.11,0,0
209669.125,626.19,-441.69,0,0
209929.45,632.508,-445.891,0,0
210189.775,638.489,-450.404,0,0
210450.1,644.509,-455.259,0,0
210710.425,650.3,-460.524,0,0
210970.75,655.842,-466.246,0,0
211231.075,661.01,-472.115,0,0
211491.4,666.065,-478.212,0,0
211751.725,670.918,-484.547,0,0
212012.05,675.541,-491.073,0,0
212272.375,679.988,-497.847,0,0
212532.7,684.139,-504.464,0,0
212793.025,688.498,-511.409,0,0
213053.35,692.795,-518.749,0,0
213313.675,696.926,-526.487,0,0
213574.0,700.765,-534.651,0,0
213834.325,704.273,-543.225,0,0
214094.65,707.192,-552.256,0,0
214354.975,709.368,-561.217,0,0
214615.3,711.378,-569.907,0,0
214875.625,713.487,-578.82,0,0
215135.95,715.27,-588.068,0,0
215396.275,716.433,-597.51,0,0
215656.6,717.266,-606.97,0,0
215916.925,718.059,-616.505,0,0
216177.25,718.579,-626.475,0,0
216437.575,718.457,-636.944,0,0
216697.9,717.489,-647.868,0,0
216958.225,715.265,-658.512,0,0
217218.55,712.201,-668.29,0,0
217478.875,709.336,-677.669,0,0
217739.2,706.107,-687.185,0,0
217999.525,702.24,-696.427,0,0
218259.85,697.925,-705.048,0,0
218520,693.578,-713.423,0,0
218780,688.566,-721.545,0,0
219041,683.13,-728.784,0,0
219301,677.991,-735.188,0,0
219561,673.304,-741.056,0,0
219822,669.229,-746.936,0,0
220082,665.777,-753.055,0,0
220342,662.433,-760.067,0,0
220603,658.5,-767.966,0,0
220863,653.386,-775.97,0,0
221123,647.506,-783.515,0,0
221384,641.148,-790.686,0,0
221644,634.757,-797.446,0,0
221904,627.749,-804.137,0,0
222165,620.092,-810.493,0,0
222425,612.23,-816.094,0,0
222685,604.298,-821.502,0,0
222946,595.683,-826.736,0,0
223206,586.144,-830.96,0,0
223466,576.411,-833.922,0,0
223727,566.766,-835.516,0,0
223987,557.84,-835.818,0,0
224247,550.004,-835.459,0,0
224508,542.917,-834.765,0,0
224768,536.588,-833.788,0,0
225028,531.217,-832.687,0,0
225289,526.508,-831.509,0,0
225549,522.87,-830.966,0,0
225809,519.758,-830.8,0,0
226070,517.064,-831.316,0,0
226330,514.442,-832.843,0,0
226590,511.588,-834.892,0,0
226851,508.211,-837.312,0,0
227111,504.446,-840.081,0,0
227371,500.228,-842.811,0,0
227632,495.826,-845.398,0,0
227892,491.185,-847.976,0,0
228152,486.502,-850.672,0,0
228413,481.305,-853.501,0,0
228673,475.63,-856.234,0,0
228933,469.542,-858.41,0,0
229193,463.259,-860.203,0,0
229454,457.148,-861.65,0,0
229714,451.044,-862.715,0,0
229974,444.892,-863.731,0,0
230235,438.85,-864.45,0,0
230495,432.62,-865.2,0,0
230755,426.368,-865.529,0,0
231016,420.136,-865.619,0,0
231276,414.069,-865.195,0,0
231536,408.204,-864.74,0,0
231797,402.44,-864.08,0,0
232057,397.009,-863.32,0,0
232317,391.727,-862.565,0,0
232578,386.511,-861.83,0,0
232838,381.218,-861.046,0,0
233098,376.017,-860.185,0,0
233359,370.862,-859.147,0,0
233619,365.918,-858.05,0,0
233879,361.071,-857.063,0,0
234140,356.114,-856.117,0,0
234400,351.112,-855.052,0,0
234660.3,346.128,-853.734,0,0
234920.625,341.239,-852.453,0,0
235180.95,336.512,-851.198,0,0
235441.275,331.714,-850.001,0,0
235701.6,326.617,-848.671,0,0
235961.925,321.461,-847.14,0,0
236222.25,316.192,-845.33,0,0
236482.575,311.106,-843.272,0,0
236742.9,306.105,-840.987,0,0
237003.225,301.329,-838.608,0,0
237263.55,296.606,-836.186,0,0
237523.875,291.827,-833.679,0,0
237784.2,287.08,-830.877,0,0
238044.525,282.412,-827.908,0,0
238304.85,277.89,-824.722,0,0
238565.175,273.46,-821.314,0,0
238825.5,269.291,-817.65,0,0
239085.825,265.455,-813.806,0,0
239346.15,261.895,-809.864,0,0
239606.475,258.573,-805.961,0,0
239866.8,255.583,-801.92,0,0
240127.125,252.852,-797.872,0,0
240387.45,250.303,-794.011,0,0
240647.775,247.914,-790.134,0,0
240908.1,245.709,-786.275,0,0
241168.425,243.718,-782.476,0,0
241428.75,241.821,-778.837,0,0
241689.075,239.977,-775.121,0,0
241949.4,238.365,-771.332,0,0
242209.725,237.062,-767.514,0,0
242470.05,236.04,-763.943,0,0
242730.375,235.172,-760.595,0,0
242990.7,234.363,-757.412,0,0
243251.025,233.545,-754.29,0,0
243511.35,232.834,-751.311,0,0
243771.675,232.425,-748.399,0,0
244032.0,232.15,-745.869,0,0
244292.325,231.767,-743.64,0,0
244552.65,231.177,-741.487,0,0
244812.975,230.458,-739.483,0,0
245073.3,229.744,-737.315,0,0
245333.625,228.93,-735.287,0,0
245593.95,228.08,-733.227,0,0
245854.275,227.342,-731.145,0,0
246114.6,226.575,-729.056,0,0
246374.925,225.88,-727.054,0,0
246635.25,225.125,-725.122,0,0
246895.575,224.336,-723.187,0,0
247155.9,223.459,-721.257,0,0
247416.225,222.647,-719.23,0,0
247676.55,221.789,-717.226,0,0
247936.875,220.947,-715.132,0,0
248197.2,220.402,-712.88,0,0
248457.525,219.945,-710.792,0,0
248717.85,219.628,-708.77,0,0
248978.175,219.345,-707.053,0,0
249238.5,219.016,-705.372,0,0
249498.825,218.658,-703.769,0,0
249759.15,218.29,-702.303,0,0
250019.475,217.899,-700.875,0,0
250279.8,217.442,-699.671,0,0
250540,216.767,-698.539,0,0
250800,215.949,-697.452,0,0
251061,214.999,-696.246,0,0
251321,213.856,-695.016,0,0
251581,212.627,-693.693,0,0
251842,211.267,-692.235,0,0
252102,209.798,-690.611,0,0
252362,208.256,-688.782,0,0
252623,206.687,-686.693,0,0
252883,205.253,-684.34,0,0
253143,203.851,-681.777,0,0
253404,202.717,-679.051,0,0
253664,201.763,-676.174,0,0
253924,201.037,-673.215,0,0
254185,200.507,-670.244,0,0
254445,200.173,-667.209,0,0
254705,199.956,-664.19,0,0
254966,199.943,-661.081,0,0
255226,200.148,-657.968,0,0
255486,200.563,-654.752,0,0
255747,201.298,-651.643,0,0
256007,202.361,-648.557,0,0
256267,203.739,-645.702,0,0
256528,205.28,-643.093,0,0
256788,206.993,-640.68,0,0
257048,208.858,-638.501,0,0
257309,210.853,-636.623,0,0
257569,212.929,-635.069,0,0
257829,214.906,-633.85,0,0
258090,216.686,-632.837,0,0
258350,218.282,-631.922,0,0
258610,219.675,-630.876,0,0
258871,221.17,-629.677,0,0
259131,222.936,-628.364,0,0
259391,225.001,-627.176,0,0
259651,227.407,-626.26,0,0
259912,230.113,-625.818,0,0
260172,232.663,-625.796,0,0
260432,235.152,-626.093,0,0
260693,237.546,-626.647,0,0
260953,239.902,-627.518,0,0
261213,242.28,-628.721,0,0
261474,244.52,-630.437,0,0
261734,246.404,-632.643,0,0
261994,247.868,-635.11,0,0
262255,248.814,-637.867,0,0
262515,249.298,-640.743,0,0
262775,249.176,-643.638,0,0
263036,248.597,-646.41,0,0
263296,247.653,-648.964,0,0
263556,246.384,-651.333,0,0
263817,244.848,-653.513,0,0
264077,243.042,-655.525,0,0
264337,241.033,-657.337,0,0
264598,238.749,-658.834,0,0
264858,236.232,-660.144,0,0
265118,233.646,-661.108,0,0
265379,230.975,-661.86,0,0
265639,228.081,-662.268,0,0
265899,225.258,-662.23,0,0
266160,222.429,-662.01,0,0
266420,219.68,-661.53,0,0
266680.25,216.95,-660.776,0,0
266940.575,214.303,-659.703,0,0
267200.9,211.834,-658.326,0,0
267461.225,209.584,-656.733,0,0
267721.55,207.596,-655.003,0,0
267981.875,205.836,-653.182,0,0
268242.2,204.248,-651.344,0,0
268502.525,202.876,-649.42,0,0
268762.85,201.61,-647.454,0,0
269023.175,200.513,-645.433,0,0
269283.5,199.699,-643.414,0,0
269543.825,199.044,-641.431,0,0
269804.15,198.575,-639.467,0,0
270064.475,198.114,-637.608,0,0
270324.8,197.814,-635.849,0,0
270585.125,197.596,-634.031,0,0
270845.45,197.565,-632.343,0,0
271105.775,197.638,-630.669,0,0
271366.1,197.773,-629.077,0,0
271626.425,197.983,-627.558,0,0
271886.75,198.354,-626.095,0,0
272147.075,198.841,-624.815,0,0
272407.4,199.284,-623.695,0,0
272667.725,199.711,-622.782,0,0
272928.05,200.059,-621.898,0,0
273188.375,200.252,-621.012,0,0
273448.7,200.449,-620.122,0,0
273709.025,200.635,-619.185,0,0
273969.35,200.873,-618.14,0,0
274229.675,201.258,-617.009,0,0
274490.0,201.82,-615.902,0,0
274750.325,202.532,-614.92,0,0
275010.65,203.32,-613.982,0,0
275270.975,204.175,-613.2,0,0
275531.3,205.128,-612.527,0,0
275791.625,206.151,-611.877,0,0
276051.95,207.345,-611.366,0,0
276312.275,208.706,-611.049,0,0
276572.6,210.077,-611.025,0,0
276832.925,211.549,-611.276,0,0
277093.25,212.95,-611.841,0,0
277353.575,214.242,-612.683,0,0
277613.9,215.335,-613.81,0,0
277874.225,216.225,-615.077,0,0
278134.55,216.931,-616.556,0,0
278394.875,217.442,-618.193,0,0
278655.2,217.655,-620.009,0,0
278915.525,217.558,-621.948,0,0
279175.85,217.084,-623.913,0,0
279436.175,216.257,-625.835,0,0
279696.5,215.059,-627.543,0,0
279956.825,213.692,-629.226,0,0
280217.15,212.009,-630.588,0,0
280477.475,210.182,-631.692,0,0
280737.8,208.295,-632.537,0,0
280998.125,206.408,-633.169,0,0
281258.45,204.571,-633.612,0,0
281518.775,202.746,-634.008,0,0
281779.1,200.906,-634.317,0,0
282039.425,198.973,-634.555,0,0
282299.75,196.989,-634.662,0,0
282560,194.904,-634.65,0,0
282820,192.821,-634.409,0,0
283081,190.756,-633.976,0,0
283341,188.755,-633.386,0,0
283601,186.831,-632.668,0,0
283862,184.976,-631.855,0,0
284122,183.212,-630.867,0,0
284382,181.528,-629.869,0,0
284643,180.014,-628.819,0,0
284903,178.398,-627.762,0,0
285163,176.815,-626.574,0,0
285424,175.278,-625.264,0,0
285684,173.866,-623.827,0,0
285944,172.55,-622.313,0,0
286205,171.351,-620.717,0,0
286465,170.256,-619.039,0,0
286725,169.289,-617.269,0,0
286986,168.496,-615.44,0,0
287246,167.891,-613.568,0,0
287506,167.518,-611.685,0,0
287767,167.311,-609.868,0,0
288027,167.319,-608.093,0,0
288287,167.496,-606.497,0,0
288548,167.78,-605.048,0,0
288808,168.142,-603.744,0,0
289068,168.565,-602.613,0,0
289329,169,-601.656,0,0
289589,169.396,-600.8,0,0
289849,169.734,-600.101,0,0
290109,170.061,-599.411,0,0
290370,170.332,-598.815,0,0
290630,170.613,-598.286,0,0
290890,170.858,-597.834,0,0
291151,171.031,-597.48,0,0
291411,171.086,-597.148,0,0
291671,171.069,-596.82,0,0
291932,170.942,-596.398,0,0
292192,170.815,-595.903,0,0
292452,170.737,-595.333,0,0
292713,170.704,-594.729,0,0
292973,170.7,-594.105,0,0
293233,170.774,-593.388,0,0
293494,171.003,-592.705,0,0
293754,171.379,-592.038,0,0
294014,171.838,-591.484,0,0
294275,172.419,-591.044,0,0
294535,173.052,-590.704,0,0
294795,173.748,-590.519,0,0
295056,174.545,-590.497,0,0
295316,175.382,-590.692,0,0
295576,176.137,-591.15,0,0
295837,176.775,-591.832,0,0
296097,177.22,-592.695,0,0
296357,177.467,-593.623,0,0
296618,177.584,-594.622,0,0
296878,177.552,-595.715,0,0
297138,177.335,-596.842,0,0
297399,176.937,-598.033,0,0
297659,176.336,-599.219,0,0
297919,175.513,-600.378,0,0
298180,174.5,-601.459,0,0
298440,173.308,-602.407,0,0
298700.2,171.99,-603.216,0,0
298960.525,170.6,-603.855,0,0
299220.85,169.183,-604.385,0,0
299481.175,167.729,-604.812,0,0
299741.5,166.253,-605.157,0,0
300001.825,164.768,-605.399,0,0
300262.15,163.236,-605.551,0,0
300522.475,161.665,-605.626,0,0
300782.8,160.09,-605.633,0,0
301043.125,158.495,-605.527,0,0
301303.45,156.896,-605.327,0,0
301563.775,155.306,-605.034,0,0
301824.1,153.74,-604.626,0,0
302084.425,152.199,-604.127,0,0
302344.75,150.73,-603.546,0,0
302605.075,149.311,-602.937,0,0
302865.4,147.937,-602.275,0,0
303125.725,146.625,-601.557,0,0
303386.05,145.34,-600.847,0,0
303646.375,144.075,-600.106,0,0
303906.7,142.816,-599.311,0,0
304167.025,141.611,-598.448,0,0
304427.35,140.463,-597.554,0,0
304687.675,139.381,-596.616,0,0
304948.0,138.353,-595.691,0,0
305208.325,137.366,-594.755,0,0
305468.65,136.425,-593.834,0,0
305728.975,135.493,-592.901,0,0
305989.3,134.584,-591.953,0,0
306249.625,133.706,-590.959,0,0
306509.95,132.884,-589.928,0,0
306770.275,132.149,-588.891,0,0
307030.6,131.468,-587.87,0,0
307290.925,130.87,-586.858,0,0
307551.25,130.321,-585.881,0,0
307811.575,129.858,-584.993,0,0
308071.9,129.431,-584.131,0,0
308332.225,129.019,-583.385,0,0
308592.55,128.582,-582.7,0,0
308852.875,128.097,-582.104,0,0
309113.2,127.559,-581.555,0,0
309373.525,126.955,-581.026,0,0
309633.85,126.275,-580.474,0,0
309894.175,125.549,-579.922,0,0
310154.5,124.803,-579.316,0,0
310414.825,124.016,-578.675,0,0
310675.15,123.228,-578.02,0,0
310935.475,122.396,-577.33,0,0
311195.8,121.564,-576.6,0,0
311456.125,120.708,-575.855,0,0
311716.45,119.851,-575.072,0,0
311976.775,118.972,-574.268,0,0
312237.1,118.038,-573.39,0,0
312497.425,117.098,-572.406,0,0
312757.75,116.173,-571.352,0,0
313018.075,115.292,-570.203,0,0
313278.4,114.49,-568.954,0,0
313538.725,113.745,-567.66,0,0
313799.05,113.089,-566.301,0,0
314059.375,112.53,-564.913,0,0
314319.7,112.071,-563.501,0,0
314580,111.706,-562.089,0,0
314840,111.437,-560.605,0,0
315101,111.308,-559.198,0,0
315361,111.328,-557.818,0,0
315621,111.472,-556.494,0,0
315882,111.626,-555.331,0,0
316142,111.937,-554.267,0,0
316402,112.182,-553.282,0,0
316663,112.582,-552.382,0,0
316923,112.965,-551.632,0,0
317183,113.241,-550.97,0,0
317444,113.495,-550.449,0,0
317704,113.703,-549.989,0,0
317964,113.815,-549.599,0,0
318225,113.855,-549.162,0,0
318485,113.845,-548.837,0,0
318745,113.782,-548.453,0,0
319006,113.657,-548.086,0,0
319266,113.558,-547.723,0,0
319526,113.285,-547.323,0,0
319787,113.077,-546.839,0,0
320047,112.802,-546.418,0,0
320307,112.581,-545.878,0,0
320567,112.434,-545.334,0,0
320828,112.297,-544.798,0,0
321088,112.193,-544.277,0,0
321348,112.128,-543.665,0,0
321609,112.024,-543.217,0,0
321869,112.072,-542.78,0,0
322129,112.116,-542.265,0,0
322390,112.119,-541.933,0,0
322650,112.16,-541.69,0,0
322910,112.177,-541.521,0,0
323171,112.184,-541.388,0,0
323431,112.068,-541.302,0,0
323691,111.96,-541.218,0,0
323952,111.798,-541.241,0,0
324212,111.512,-541.317,0,0
324472,111.191,-541.291,0,0
324733,110.743,-541.287,0,0
324993,110.308,-541.439,0,0
325253,109.748,-541.409,0,0
325514,109.199,-541.407,0,0
325774,108.511,-541.31,0,0
326034,107.876,-541.237,0,0
326295,107.134,-541.171,0,0
326555,106.393,-541.03,0,0
326815,105.514,-540.837,0,0
327076,104.66,-540.543,0,0
327336,103.829,-540.234,0,0
327596,103.021,-539.89,0,0
327857,102.154,-539.467,0,0
328117,101.278,-538.951,0,0
328377,100.582,-538.467,0,0
328638,99.7927,-537.951,0,0
328898,98.9744,-537.45,0,0
329158,98.1913,-536.946,0,0
329419,97.4839,-536.436,0,0
329679,96.7035,-535.879,0,0
329939,95.97,-535.423,0,0
330200,95.1683,-534.797,0,0
330460,94.3847,-534.225,0,0
330720.15,93.5437,-533.72,0,0
330980.475,92.6621,-533.089,0,0
331240.8,91.8349,-532.447,0,0
331501.125,90.9348,-531.747,0,0
331761.45,90.1043,-531.074,0,0
332021.775,89.2133,-530.279,0,0
332282.1,88.3134,-529.494,0,0
332542.425,87.483,-528.652,0,0
332802.75,86.6488,-527.836,0,0
333063.075,85.8158,-526.897,0,0
333323.4,85.0335,-525.986,0,0
333583.725,84.1885,-525.082,0,0
333844.05,83.3796,-523.996,0,0
334104.375,82.5582,-522.967,0,0
334364.7,81.8028,-521.927,0,0
334625.025,81.0607,-520.793,0,0
334885.35,80.4086,-519.649,0,0
335145.675,79.7019,-518.374,0,0
335406.0,79.0593,-517.064,0,0
335666.325,78.5476,-515.878,0,0
335926.65,78.0187,-514.608,0,0
336186.975,77.5744,-513.248,0,0
336447.3,77.2459,-511.986,0,0
336707.625,76.893,-510.698,0,0
336967.95,76.6239,-509.436,0,0
337228.275,76.3363,-508.182,0,0
337488.6,76.097,-506.931,0,0
337748.925,75.8723,-505.719,0,0
338009.25,75.6761,-504.454,0,0
338269.575,75.4952,-503.226,0,0
338529.9,75.3432,-501.991,0,0
338790.225,75.274,-500.703,0,0
339050.55,75.198,-499.404,0,0
339310.875,75.2462,-498.125,0,0
339571.2,75.2498,-496.787,0,0
339831.525,75.3809,-495.513,0,0
340091.85,75.6197,-494.282,0,0
340352.175,75.9277,-493.083,0,0
340612.5,76.2636,-491.884,0,0
340872.825,76.6648,-490.783,0,0
341133.15,77.0989,-489.758,0,0
341393.475,77.5831,-488.826,0,0
341653.8,78.0979,-487.909,0,0
341914.125,78.5802,-487.116,0,0
342174.45,79.1741,-486.378,0,0
342434.775,79.6109,-485.77,0,0
342695.1,80.141,-485.256,0,0
342955.425,80.5539,-484.807,0,0
343215.75,80.9678,-484.34,0,0
343476.075,81.2172,-483.992,0,0
343736.4,81.5039,-483.638,0,0
343996.725,81.7741,-483.265,0,0
344257.05,81.9262,-483.041,0,0
344517.375,82.0538,-482.76,0,0
344777.7,82.0475,-482.438,0,0
345038.025,82.0938,-482.159,0,0
345298.35,82.0846,-481.767,0,0
345558.675,82.0039,-481.443,0,0
345819.0,81.8841,-481.084,0,0
346079.325,81.7566,-480.653,0,0
346339.65,81.6593,-480.244,0,0
346599.975,81.4939,-479.801,0,0
346860,81.3129,-479.361,0,0
347121,81.2088,-478.893,0,0
347381,81.063,-478.405,0,0
347641,80.8681,-477.907,0,0
347902,80.6966,-477.325,0,0
348162,80.5071,-476.749,0,0
348422,80.2987,-476.121,0,0
348683,80.2079,-475.392,0,0
348943,80.1428,-474.749,0,0
349203,80.0374,-474.027,0,0
349464,80.0648,-473.346,0,0
349724,80.0924,-472.605,0,0
349984,80.1724,-471.981,0,0
350245,80.3256,-471.247,0,0
350505,80.4914,-470.65,0,0
350765,80.7871,-470.036,0,0
351025,81.1024,-469.545,0,0
351286,81.3983,-469.134,0,0
351546,81.6872,-468.828,0,0
351806,81.9134,-468.563,0,0
352067,82.0297,-468.37,0,0
352327,82.176,-468.288,0,0
352587,82.2609,-468.179,0,0
352848,82.1927,-468.137,0,0
353108,82.0703,-468.024,0,0
353368,81.8914,-467.959,0,0
353629,81.6176,-467.884,0,0
353889,81.2809,-467.677,0,0
354149,80.8822,-467.516,0,0
354410,80.4526,-467.224,0,0
354670,79.9964,-466.89,0,0
354930,79.5187,-466.532,0,0
355191,79.0412,-466.041,0,0
355451,78.6454,-465.502,0,0
355711,78.2571,-464.981,0,0
355972,77.8796,-464.399,0,0
356232,77.5347,-463.729,0,0
356492,77.2127,-463.101,0,0
356753,76.9363,-462.447,0,0
357013,76.6979,-461.892,0,0
357273,76.3756,-461.198,0,0
357534,76.1473,-460.555,0,0
357794,75.8819,-459.84,0,0
358054,75.6426,-459.147,0,0
358315,75.3695,-458.464,0,0
358575,75.2379,-457.729,0,0
358835,75.0176,-456.959,0,0
359096,74.9345,-456.191,0,0
359356,74.8483,-455.437,0,0
359616,74.7607,-454.654,0,0
359877,74.7034,-453.884,0,0
360137,74.7881,-453.199,0,0
360397,74.7964,-452.428,0,0
360658,74.8674,-451.747,0,0
360918,74.862,-451.07,0,0
361178,74.9839,-450.384,0,0
361438,75.1338,-449.802,0,0
361699,75.2053,-449.152,0,0
361959,75.3141,-448.551,0,0
362219,75.4294,-447.95,0,0
362480,75.515,-447.364,0,0
362740.1,75.6238,-446.763,0,0
363000.425,75.8101,-446.174,0,0
363260.75,75.9628,-445.636,0,0
363521.075,76.1869,-445.082,0,0
363781.4,76.4486,-444.548,0,0
364041.725,76.6881,-444.075,0,0
364302.05,77.0084,-443.673,0,0
364562.375,77.3406,-443.294,0,0
364822.7,77.6384,-443.061,0,0
365083.025,77.9525,-442.898,0,0
365343.35,78.1718,-442.806,0,0
365603.675,78.3742,-442.79,0,0
365864.0,78.4458,-442.832,0,0
366124.325,78.3723,-442.882,0,0
366384.65,78.2179,-443.003,0,0
366644.975,77.9626,-443.009,0,0
366905.3,77.561,-442.998,0,0
367165.625,77.1549,-442.94,0,0
367425.95,76.6071,-442.793,0,0
367686.275,76.0641,-442.595,0,0
367946.6,75.4356,-442.216,0,0
368206.925,74.7634,-441.769,0,0
368467.25,74.1917,-441.162,0,0
368727.575,73.5544,-440.456,0,0
368987.9,73.059,-439.574,0,0
369248.225,72.6289,-438.648,0,0
369508.55,72.3803,-437.615,0,0
369768.875,72.2669,-436.533,0,0
370029.2,72.3409,-435.555,0,0
370289.525,72.4987,-434.631,0,0
370549.85,72.8064,-433.778,0,0
370810.175,73.1453,-433.071,0,0
371070.5,73.5129,-432.456,0,0
371330.825,73.9326,-431.974,0,0
371591.15,74.3283,-431.603,0,0
371851.475,74.6576,-431.357,0,0
372111.8,74.8443,-431.177,0,0
372372.125,75.0315,-431.102,0,0
372632.45,75.0135,-430.987,0,0
372892.775,75.0068,-430.918,0,0
373153.1,74.8342,-430.86,0,0
373413.425,74.6528,-430.759,0,0
373673.75,74.3399,-430.53,0,0
373934.075,73.9266,-430.292,0,0
374194.4,73.6268,-429.92,0,0
374454.725,73.2258,-429.548,0,0
374715.05,72.8357,-429.121,0,0
374975.375,72.4796,-428.606,0,0
375235.7,72.0871,-428.023,0,0
375496.025,71.7848,-427.402,0,0
375756.35,71.3962,-426.709,0,0
376016.675,71.1569,-425.959,0,0
376277.0,70.9794,-425.217,0,0
376537.325,70.8893,-424.467,0,0
376797.65,70.7912,-423.683,0,0
377057.975,70.7999,-422.925,0,0
377318.3,70.8313,-422.166,0,0
377578.625,70.8912,-421.488,0,0
377838.95,70.9969,-420.83,0,0
378099.275,71.1243,-420.169,0,0
378359.6,71.229,-419.536,0,0
378619.925,71.3589,-418.977,0,0
378880,71.5578,-418.331,0,0
379141,71.7177,-417.825,0,0
379401,71.9114,-417.293,0,0
379661,72.1063,-416.841,0,0
379922,72.2794,-416.382,0,0
380182,72.4826,-415.953,0,0
380442,72.6024,-415.601,0,0
380703,72.7604,-415.236,0,0
380963,72.9198,-414.819,0,0
381223,73.0804,-414.541,0,0
381483,73.2004,-414.207,0,0
381744,73.3291,-413.924,0,0
382004,73.4421,-413.658,0,0
382264,73.5442,-413.395,0,0
382525,73.5935,-413.179,0,0
382785,73.5838,-412.966,0,0
383045,73.6003,-412.796,0,0
383306,73.5153,-412.559,0,0
383566,73.4245,-412.408,0,0
383826,73.3212,-412.183,0,0
384087,73.1669,-411.975,0,0
384347,72.9187,-411.716,0,0
384607,72.7542,-411.438,0,0
384868,72.5087,-411.206,0,0
385128,72.2173,-410.815,0,0
385388,71.935,-410.446,0,0
385649,71.6658,-410.088,0,0
385909,71.382,-409.617,0,0
386169,71.0875,-409.177,0,0
386430,70.8214,-408.664,0,0
386690,70.5906,-408.111,0,0
386950,70.3578,-407.568,0,0
387211,70.1553,-407.014,0,0
387471,69.9116,-406.435,0,0
387731,69.6904,-405.87,0,0
387992,69.4799,-405.295,0,0
388252,69.2583,-404.627,0,0
388512,69.0669,-403.97,0,0
388773,68.8746,-403.265,0,0
389033,68.6961,-402.494,0,0
389293,68.5808,-401.747,0,0
389554,68.4522,-400.934,0,0
389814,68.4259,-400.143,0,0
390074,68.3895,-399.26,0,0
390335,68.4553,-398.463,0,0
390595,68.5615,-397.614,0,0
390855,68.6962,-396.717,0,0
391116,68.8792,-395.915,0,0
391376,69.1546,-395.087,0,0
391636,69.4168,-394.323,0,0
391896,69.7449,-393.496,0,0
392157,70.1756,-392.77,0,0
392417,70.5518,-392.067,0,0
392677,71.0948,-391.377,0,0
392938,71.5603,-390.813,0,0
393198,72.101,-390.263,0,0
393458,72.6164,-389.784,0,0
393719,73.1868,-389.354,0,0
393979,73.7225,-388.959,0,0
394239,74.2592,-388.633,0,0
394500,74.7932,-388.325,0,0
394760.05,75.3227,-388.118,0,0
395020.375,75.8261,-387.9,0,0
395280.7,76.3047,-387.794,0,0
395541.025,76.7922,-387.761,0,0
395801.35,77.2425,-387.674,0,0
396061.675,77.5911,-387.718,0,0
396322.0,78.0074,-387.762,0,0
396582.325,78.2713,-387.849,0,0
396842.65,78.5428,-387.953,0,0
397102.975,78.778,-388.087,0,0
397363.3,78.9418,-388.239,0,0
397623.625,79.0741,-388.39,0,0
397883.95,79.1043,-388.585,0,0
398144.275,79.0668,-388.759,0,0
398404.6,78.9593,-388.909,0,0
398664.925,78.8331,-389.015,0,0
398925.25,78.6457,-389.036,0,0
399185.575,78.4458,-389.064,0,0
399445.9,78.1881,-389.095,0,0
399706.225,77.9515,-389.062,0,0
399966.55,77.6938,-388.978,0,0
400006.6,77.6551,-388.947,0,0