File: Accelerated corrosion test data/2025-10-03_18-00-02/sample_6.csv
Frequency (Hz),Impedance (ohms),Phase (Radians),Temperature (C),Humidity (%)
10000.0,4307.09,-6204.8,0,0
10260.325,4172.8,-6141.05,0,0
10520.65,4044.23,-6077.29,0,0
10780.975,3920.85,-6013.09,0,0
11041.3,3803.93,-5948.2,0,0
11301.625,3690.76,-5884.84,0,0
11561.95,3582.83,-5820.66,0,0
11822.275,3479.2,-5757.3,0,0
12082.6,3379.27,-5694.03,0,0
12342.925,3284.28,-5631.47,0,0
12603.25,3194.28,-5567.8,0,0
12863.575,3107.3,-5507.21,0,0
13123.9,3025.23,-5448.29,0,0
13384.225,2943.31,-5390.19,0,0
13644.55,2864.47,-5331.58,0,0
13904.875,2788.84,-5273.07,0,0
14165.2,2715.96,-5215.16,0,0
14425.525,2646.36,-5158.13,0,0
14685.8,2579.81,-5101.07,0,0
14946.175,2516.1,-5046.77,0,0
15206.5,2454.64,-4992,0,0
15466.825,2394.72,-4938.26,0,0
15727.15,2336.94,-4885.55,0,0
15987.5,2281.52,-4834.03,0,0
16247.8,2227.73,-4782.78,0,0
16508.125,2176.05,-4731.97,0,0
16768.45,2126.54,-4681.89,0,0
17028.775,2078.55,-4633.41,0,0
17289.1,2031.94,-4585.92,0,0
17549.425,1986.56,-4538.47,0,0
17809.75,1942.53,-4492.02,0,0
18070.075,1899.84,-4446.8,0,0
18330.4,1860.05,-4401.1,0,0
18590.725,1819.77,-4355.11,0,0
18851.05,1783.23,-4311.93,0,0
19111.375,1746.7,-4269.99,0,0
19371.7,1711.1,-4228.71,0,0
19632.025,1675.45,-4187.35,0,0
19892.35,1641.89,-4147.21,0,0
20152.675,1609.5,-4106.7,0,0
20413.0,1577.5,-4067.89,0,0
20673.3,1545.92,-4028.36,0,0
20933.65,1516.44,-3989.59,0,0
21193.975,1486.84,-3951.64,0,0
21454.3,1459.27,-3914.72,0,0
21714.625,1432.06,-3878.46,0,0
21974.9,1405.28,-3842.3,0,0
22235.275,1378.81,-3806.28,0,0
22495.6,1353.64,-3770.21,0,0
22755.925,1330.52,-3733.91,0,0
23016.25,1311.26,-3699.49,0,0
23276.6,1290.05,-3670,0,0
23536.9,1267.8,-3639.57,0,0
23797.225,1245.66,-3609.48,0,0
24057.55,1222.97,-3578.5,0,0
24317.875,1201.53,-3547.81,0,0
24578.2,1180.65,-3516.87,0,0
24838.525,1160.7,-3486.42,0,0
25098.85,1141.19,-3456.2,0,0
25359.175,1123.32,-3427.47,0,0
25619.5,1104.51,-3398.88,0,0
25879.8,1086.06,-3370.8,0,0
26140.1,1069.24,-3341.6,0,0
26400.5,1051.98,-3313.99,0,0
26660.8,1035.67,-3286.3,0,0
26921.1,1019.62,-3259.1,0,0
27181.4,1004.61,-3232.54,0,0
27441.8,989.77,-3206.49,0,0
27702.1,975.669,-3181.04,0,0
27962.4,961.211,-3156.55,0,0
28222.7,947.115,-3132.35,0,0
28483.1,932.211,-3107.79,0,0
28743.4,918.33,-3083.34,0,0
29003.7,904.729,-3058.68,0,0
29264,891.983,-3034.19,0,0
29524.4,880.515,-3010.83,0,0
29784.7,867.923,-2987.88,0,0
30045,856.463,-2964.88,0,0
30305.3,845.715,-2942.65,0,0
30565.7,834.155,-2921.43,0,0
30826,822.693,-2900.22,0,0
31086.3,811.432,-2878.57,0,0
31346.6,800.352,-2857.12,0,0
31607,789.562,-2835.5,0,0
31867.3,780.124,-2813.85,0,0
32127.6,770.945,-2793.22,0,0
32387.9,761.992,-2772.93,0,0
32648.3,753.193,-2752.29,0,0
32908.6,745.467,-2732.86,0,0
33168.9,737.605,-2714.4,0,0
33429.2,729.526,-2695.87,0,0
33689.6,721.789,-2677.95,0,0
33949.9,713.225,-2661.32,0,0
34210.2,704.479,-2643.66,0,0
34470.5,695.964,-2625.68,0,0
34730.9,687.818,-2607.88,0,0
34991.2,680.782,-2590.33,0,0
35251.5,674.194,-2573.47,0,0
35511.8,667.1,-2557.9,0,0
35772.2,659.937,-2542.19,0,0
36032.5,652.25,-2526.7,0,0
36292.8,644.74,-2511.12,0,0
36553.1,637.317,-2495.82,0,0
36813.5,629.398,-2480.67,0,0
37073.8,622.14,-2464.94,0,0
37334.1,614.87,-2450.01,0,0
37594.4,607.338,-2434.66,0,0
37854.8,600.197,-2419.72,0,0
38115.1,593.079,-2404.51,0,0
38375.4,586.259,-2389.3,0,0
38635.7,579.475,-2374.45,0,0
38896.1,573.117,-2359.15,0,0
39156.4,566.758,-2344.46,0,0
39416.7,560.91,-2329.86,0,0
39677,555.117,-2315.6,0,0
39937.4,549.27,-2301.4,0,0
40197.7,543.59,-2287.4,0,0
40458,538.087,-2273.68,0,0
40718.3,532.522,-2260.16,0,0
40978.7,526.563,-2246.47,0,0
41239,521.011,-2232.02,0,0
41499.3,516.506,-2218.26,0,0
41759.6,512.091,-2204.86,0,0
42020,507.929,-2192,0,0
42280.275,503.22,-2180.42,0,0
42540.6,497.495,-2167.79,0,0
42800.925,492.255,-2154.46,0,0
43061.25,487.547,-2141.3,0,0
43321.575,483.259,-2127.49,0,0
43581.9,479.977,-2114.89,0,0
43842.225,476.313,-2102.76,0,0
44102.55,472.205,-2091.24,0,0
44362.875,467.793,-2078.6,0,0
44623.2,464.502,-2066.01,0,0
44883.525,461.664,-2053.92,0,0
45143.85,459.127,-2041.81,0,0
45404.175,456.697,-2030.51,0,0
45664.5,454.223,-2019.58,0,0
45924.825,452.03,-2008.78,0,0
46185.15,449.69,-1998.61,0,0
46445.475,447.264,-1988.73,0,0
46705.8,444.676,-1979.16,0,0
46966.125,441.96,-1969.55,0,0
47226.45,439.082,-1959.99,0,0
47486.775,436.454,-1950.08,0,0
47747.1,434.102,-1941.08,0,0
48007.425,431.428,-1931.85,0,0
48267.75,429.257,-1922.9,0,0
48528.075,426.867,-1914.67,0,0
48788.4,424.436,-1906.18,0,0
49048.725,422.486,-1898.18,0,0
49309.05,420.239,-1891.59,0,0
49569.375,416.629,-1884.83,0,0
49829.7,412.399,-1877.96,0,0
50090.025,408.044,-1870.5,0,0
50350.35,403.444,-1863.32,0,0
50610.675,398.332,-1855.46,0,0
50871.0,393.437,-1846.88,0,0
51131.325,389.04,-1838.24,0,0
51391.65,384.755,-1829.71,0,0
51651.975,380.319,-1820.83,0,0
51912.3,376.561,-1811.91,0,0
52172.625,372.765,-1803.08,0,0
52432.95,369.311,-1794.31,0,0
52693.275,366.123,-1785.76,0,0
52953.6,363.035,-1777.5,0,0
53213.925,359.338,-1769.69,0,0
53474.25,355.707,-1761.48,0,0
53734.575,352.16,-1753.34,0,0
53994.9,348.217,-1744.96,0,0
54255.225,344.762,-1736.25,0,0
54515.55,341.65,-1727.89,0,0
54775.875,338.534,-1719.74,0,0
55036.2,335.255,-1711.81,0,0
55296.525,331.429,-1703.62,0,0
55556.85,327.823,-1695.05,0,0
55817.175,324.418,-1686.35,0,0
56077.5,321.26,-1677.24,0,0
56337.825,318.515,-1667.88,0,0
56598.15,316.482,-1658.54,0,0
56858.475,314.973,-1649.62,0,0
57118.8,313.843,-1641.35,0,0
57379.125,312.566,-1633.37,0,0
57639.45,311.646,-1625.87,0,0
57899.775,310.48,-1618.91,0,0
58160.1,308.954,-1612.28,0,0
58420.4,307.134,-1605.65,0,0
58680.7,305.276,-1599.06,0,0
58941.1,303.244,-1592.51,0,0
59201.4,301.275,-1585.86,0,0
59461.7,299.026,-1579.52,0,0
59722,296.661,-1573.07,0,0
59982.4,293.955,-1566.72,0,0
60242.7,291.462,-1559.85,0,0
60503,288.992,-1553.1,0,0
60763.3,286.577,-1546.25,0,0
61023.7,284.152,-1539.6,0,0
61284,281.524,-1532.79,0,0
61544.3,278.983,-1525.9,0,0
61804.6,276.384,-1518.54,0,0
62065,273.975,-1511.12,0,0
62325.3,271.934,-1503.29,0,0
62585.6,270.509,-1495.47,0,0
62845.9,269.797,-1487.78,0,0
63106.3,269.371,-1480.78,0,0
63366.6,269.09,-1474.62,0,0
63626.9,268.935,-1468.63,0,0
63887.2,268.45,-1463.68,0,0
64147.6,266.964,-1458.99,0,0
64407.9,264.915,-1454.31,0,0
64668.2,262.191,-1448.86,0,0
64928.5,259.787,-1442.72,0,0
65188.9,257.844,-1436.59,0,0
65449.2,256.16,-1430.43,0,0
65709.5,254.644,-1424.85,0,0
65969.8,252.752,-1419.32,0,0
66230.2,250.667,-1413.71,0,0
66490.5,248.743,-1408.02,0,0
66750.8,246.478,-1402.49,0,0
67011.1,244.078,-1396.85,0,0
67271.5,241.555,-1390.72,0,0
67531.8,239.335,-1384.17,0,0
67792.1,237.148,-1377.97,0,0
68052.4,235.358,-1371.25,0,0
68312.8,233.729,-1365.16,0,0
68573.1,232.208,-1358.73,0,0
68833.4,230.465,-1352.4,0,0
69093.7,229.03,-1346.06,0,0
69354.1,227.742,-1339.72,0,0
69614.4,226.374,-1333.37,0,0
69874.7,225.226,-1327.08,0,0
70135,224.135,-1320.62,0,0
70395.4,223.402,-1314.39,0,0
70655.7,222.634,-1308.27,0,0
70916,221.851,-1302.06,0,0
71176.3,221.318,-1295.89,0,0
71436.7,220.882,-1290.1,0,0
71697,220.507,-1284.34,0,0
71957.3,220.066,-1278.57,0,0
72217.6,219.744,-1272.91,0,0
72478,219.542,-1267.32,0,0
72738.3,219.514,-1261.86,0,0
72998.6,219.437,-1256.62,0,0
73258.9,219.33,-1251.51,0,0
73519.3,219.251,-1246.62,0,0
73779.6,219.049,-1241.91,0,0
74039.9,218.758,-1237.12,0,0
74300.225,218.282,-1232.37,0,0
74560.55,217.951,-1227.52,0,0
74820.875,217.73,-1222.74,0,0
75081.2,217.425,-1218.1,0,0
75341.525,217.221,-1213.45,0,0
75601.85,217.027,-1208.96,0,0
75862.175,216.757,-1204.56,0,0
76122.5,216.455,-1200.14,0,0
76382.825,216.094,-1195.78,0,0
76643.15,215.692,-1191.39,0,0
76903.475,215.333,-1187.04,0,0
77163.8,215.014,-1182.7,0,0
77424.125,214.753,-1178.35,0,0
77684.45,214.535,-1174.12,0,0
77944.775,214.348,-1169.91,0,0
78205.1,214.17,-1165.85,0,0
78465.425,213.955,-1161.88,0,0
78725.75,213.66,-1157.93,0,0
78986.075,213.442,-1154.08,0,0
79246.4,213.16,-1150.22,0,0
79506.725,212.872,-1146.43,0,0
79767.05,212.471,-1142.76,0,0
80027.375,212.114,-1139.04,0,0
80287.7,211.733,-1135.53,0,0
80548.025,211.262,-1131.94,0,0
80808.35,210.668,-1128.51,0,0
81068.675,210.174,-1124.89,0,0
81329.0,209.481,-1121.36,0,0
81589.325,208.806,-1117.81,0,0
81849.65,208.186,-1114.28,0,0
82109.975,207.489,-1110.77,0,0
82370.3,206.714,-1107.23,0,0
82630.625,205.926,-1103.72,0,0
82890.95,205.068,-1100.18,0,0
83151.275,204.266,-1096.6,0,0
83411.6,203.274,-1092.98,0,0
83671.925,202.417,-1089.35,0,0
83932.25,201.431,-1085.62,0,0
84192.575,200.487,-1081.78,0,0
84452.9,199.633,-1077.88,0,0
84713.225,198.714,-1074.04,0,0
84973.55,198.074,-1069.99,0,0
85233.875,197.489,-1066.04,0,0
85494.2,197.09,-1062.04,0,0
85754.525,196.626,-1058.16,0,0
86014.85,196.212,-1054.28,0,0
86275.175,195.971,-1050.51,0,0
86535.5,195.693,-1046.82,0,0
86795.825,195.511,-1043.27,0,0
87056.15,195.273,-1039.66,0,0
87316.475,195.01,-1036.33,0,0
87576.8,194.697,-1032.84,0,0
87837.125,194.056,-1029.45,0,0
88097.45,193.635,-1025.78,0,0
88357.775,193.635,-1022.36,0,0
88618.1,193.169,-1018.71,0,0
88878.425,192.816,-1015.38,0,0
89138.75,192.647,-1012.09,0,0
89399.075,192.521,-1008.56,0,0
89659.4,192.279,-1005.2,0,0
89919.725,192.06,-1001.91,0,0
90180,192.084,-998.597,0,0
90440.4,191.937,-995.503,0,0
90700.7,191.82,-992.662,0,0
90961,191.584,-989.841,0,0
91221.3,190.896,-986.861,0,0
91481.7,190.411,-983.912,0,0
91742,190.068,-980.64,0,0
92002.3,189.291,-977.568,0,0
92262.6,188.68,-974.295,0,0
92523,188.219,-970.658,0,0
92783.3,188.293,-967.186,0,0
93043.6,188.292,-964.391,0,0
93303.9,187.597,-961.425,0,0
93564.3,187.002,-957.86,0,0
93824.6,186.814,-954.317,0,0
94084.9,186.64,-950.81,0,0
94345.2,186.877,-947.094,0,0
94605.6,187.545,-943.867,0,0
94865.9,188.056,-941.081,0,0
95126.2,188.256,-938.457,0,0
95386.5,188.397,-935.698,0,0
95646.9,188.55,-933.094,0,0
95907.2,188.65,-930.453,0,0
96167.5,188.706,-927.998,0,0
96427.8,188.681,-925.596,0,0
96688.2,188.516,-923.218,0,0
96948.5,188.426,-920.755,0,0
97208.8,187.526,-918.579,0,0
97469.1,186.775,-915.602,0,0
97729.5,186.259,-912.477,0,0
97989.8,185.893,-909.116,0,0
98250.1,185.897,-905.722,0,0
98510.4,186.123,-902.229,0,0
98770.8,186.985,-898.688,0,0
99031.1,188.462,-895.665,0,0
99291.4,190.066,-893.559,0,0
99551.7,191.242,-892.085,0,0
99812.1,191.976,-890.819,0,0
100072,192.361,-889.616,0,0
100333,192.506,-888.537,0,0
100593,192.378,-887.608,0,0
100853,191.645,-886.709,0,0
101114,190.594,-885.385,0,0
101374,189.453,-883.719,0,0
101634,188.404,-881.628,0,0
101895,187.701,-879.321,0,0
102155,187.381,-877.028,0,0
102415,187.365,-875.263,0,0
102676,187.052,-873.96,0,0
102936,186.467,-872.59,0,0
103196,185.848,-871.514,0,0
103457,184.643,-870.638,0,0
103717,183.17,-869.523,0,0
103977,181.495,-868.397,0,0
104238,179.514,-867.206,0,0
104498,176.96,-865.811,0,0
104758,174.116,-863.86,0,0
105019,171.159,-861.495,0,0
105279,168.065,-858.434,0,0
105539,165.205,-854.921,0,0
105800,162.548,-851.042,0,0
106060,160.203,-846.45,0,0
106320.175,158.462,-841.6,0,0
106580.5,157.49,-836.965,0,0
106840.825,156.607,-832.368,0,0
107101.15,156.129,-827.795,0,0
107361.475,155.943,-823.377,0,0
107621.8,155.908,-818.958,0,0
107882.125,156.4,-814.663,0,0
108142.45,157.08,-810.876,0,0
108402.775,157.66,-807.469,0,0
108663.1,158.029,-804.17,0,0
108923.425,158.491,-800.876,0,0
109183.75,158.857,-797.699,0,0
109444.075,159.207,-794.527,0,0
109704.4,159.664,-791.344,0,0
109964.725,160.117,-788.328,0,0
110225.05,160.744,-785.203,0,0
110485.375,161.091,-782.208,0,0
110745.7,161.521,-779.369,0,0
111006.025,162.019,-776.239,0,0
111266.35,162.703,-773.367,0,0
111526.675,163.68,-770.54,0,0
111787.0,164.323,-767.783,0,0
112047.325,165.158,-765.163,0,0
112307.65,165.835,-762.695,0,0
112567.975,166.549,-760.201,0,0
112828.3,167.165,-757.771,0,0
113088.625,167.894,-755.244,0,0
113348.95,168.816,-752.869,0,0
113609.275,169.717,-750.512,0,0
113869.6,170.785,-748.608,0,0
114129.925,171.455,-746.714,0,0
114390.25,172.166,-744.695,0,0
114650.575,172.889,-742.762,0,0
114910.9,173.435,-740.934,0,0
115171.225,173.906,-739.071,0,0
115431.55,174.234,-737.246,0,0
115691.875,174.853,-735.021,0,0
115952.2,175.843,-733.176,0,0
116212.525,176.816,-731.624,0,0
116472.85,177.568,-730.307,0,0
116733.175,178.135,-729.278,0,0
116993.5,178.268,-728.336,0,0
117253.825,178.132,-727.267,0,0
117514.15,177.768,-726.1,0,0
117774.475,177.097,-724.769,0,0
118034.8,176.147,-722.868,0,0
118295.125,175.445,-720.556,0,0
118555.45,175.048,-717.791,0,0
118815.775,175.244,-714.916,0,0
119076.1,175.786,-712.464,0,0
119336.425,176.156,-710.316,0,0
119596.75,176.29,-707.885,0,0
119857.075,176.849,-704.794,0,0
120117.4,178.349,-701.837,0,0
120377.725,180.606,-699.558,0,0
120638.05,183.101,-698.548,0,0
120898.375,184.782,-698.315,0,0
121158.7,185.948,-698.169,0,0
121419.025,186.848,-698.335,0,0
121679.35,187.002,-698.743,0,0
121939.675,186.402,-698.949,0,0
122200.0,185.415,-698.541,0,0
122460,184.426,-697.625,0,0
122721,183.651,-696.5,0,0
122981,182.961,-695.245,0,0
123241,182.323,-693.933,0,0
123502,181.625,-692.582,0,0
123762,181.09,-690.986,0,0
124022,180.776,-689.524,0,0
124283,180.398,-688.353,0,0
124543,179.837,-687.177,0,0
124803,179.035,-685.909,0,0
125064,178.138,-684.378,0,0
125324,177.429,-682.708,0,0
125584,176.761,-680.994,0,0
125845,176.149,-679.399,0,0
126105,175.509,-677.733,0,0
126365,174.713,-676.063,0,0
126626,173.979,-674.187,0,0
126886,173.153,-672.241,0,0
127146,172.337,-670.123,0,0
127406,171.772,-667.843,0,0
127667,171.392,-665.343,0,0
127927,171.308,-662.992,0,0
128187,171.429,-660.474,0,0
128448,171.699,-658.151,0,0
128708,172.172,-656.141,0,0
128968,172.739,-654.335,0,0
129229,173.341,-652.769,0,0
129489,173.825,-651.484,0,0
129749,174.05,-650.307,0,0
130010,174.172,-649.148,0,0
130270,174.226,-648.043,0,0
130530,174.186,-646.994,0,0
130791,174.057,-645.952,0,0
131051,173.832,-644.942,0,0
131311,173.573,-643.883,0,0
131572,173.16,-642.935,0,0
131832,172.596,-641.962,0,0
132092,172.078,-640.789,0,0
132353,171.402,-639.803,0,0
132613,170.716,-638.757,0,0
132873,169.863,-637.673,0,0
133134,168.898,-636.583,0,0
133394,167.86,-635.389,0,0
133654,166.645,-634.116,0,0
133915,165.434,-632.7,0,0
134175,164.154,-631.044,0,0
134435,162.871,-629.356,0,0
134696,161.612,-627.598,0,0
134956,160.303,-625.638,0,0
135216,159.136,-623.598,0,0
135477,157.984,-621.582,0,0
135737,156.686,-619.444,0,0
135997,155.568,-617.083,0,0
136258,154.527,-614.66,0,0
136518,153.606,-612.252,0,0
136778,152.702,-609.779,0,0
137039,151.875,-607.298,0,0
137299,151.08,-604.74,0,0
137559,150.324,-602.177,0,0
137819,149.561,-599.609,0,0
138080,148.976,-596.906,0,0
138340.125,148.388,-594.189,0,0
138600.45,147.956,-591.491,0,0
138860.775,147.557,-588.886,0,0
139121.1,147.158,-586.221,0,0
139381.425,146.744,-583.524,0,0
139641.75,146.453,-580.738,0,0
139902.075,146.251,-577.909,0,0
140162.4,146.148,-575.211,0,0
140422.725,146.07,-572.485,0,0
140683.05,146.04,-569.784,0,0
140943.375,146.077,-567.021,0,0
141203.7,146.266,-564.283,0,0
141464.025,146.524,-561.609,0,0
141724.35,146.865,-559.202,0,0
141984.675,147.031,-556.868,0,0
142245.0,147.087,-554.447,0,0
142505.325,147.204,-551.943,0,0
142765.65,147.327,-549.415,0,0
143025.975,147.486,-546.76,0,0
143286.3,147.727,-544.149,0,0
143546.625,148.078,-541.468,0,0
143806.95,148.595,-538.814,0,0
144067.275,149.313,-536.17,0,0
144327.6,150.139,-533.728,0,0
144587.925,151.041,-531.525,0,0
144848.25,151.926,-529.552,0,0
145108.575,152.669,-527.734,0,0
145368.9,153.254,-526.063,0,0
145629.225,153.679,-524.454,0,0
145889.55,153.913,-522.858,0,0
146149.875,153.946,-521.161,0,0
146410.2,153.907,-519.269,0,0
146670.525,153.94,-517.303,0,0
146930.85,153.984,-515.336,0,0
147191.175,153.968,-513.401,0,0
147451.5,153.839,-511.412,0,0
147711.825,153.657,-509.321,0,0
147972.15,153.431,-507.108,0,0
148232.475,153.239,-504.768,0,0
148492.8,153.143,-502.284,0,0
148753.125,153.088,-499.871,0,0
149013.45,153.006,-497.377,0,0
149273.775,152.916,-494.788,0,0
149534.1,152.883,-492.119,0,0
149794.425,152.835,-489.294,0,0
150054.75,152.881,-486.331,0,0
150315.075,153.063,-483.296,0,0
150575.4,153.398,-480.15,0,0
150835.725,153.896,-477,0,0
151096.05,154.489,-473.785,0,0
151356.375,155.187,-470.482,0,0
151616.7,156.113,-467.002,0,0
151877.025,157.385,-463.58,0,0
152137.35,159.056,-460.247,0,0
152397.675,161.093,-457.041,0,0
152658.0,163.498,-454.345,0,0
152918.325,165.897,-452.243,0,0
153178.65,167.94,-450.55,0,0
153438.975,169.861,-449.135,0,0
153699.3,171.356,-447.781,0,0
153959.625,172.59,-446.481,0,0
154219.95,173.536,-445.073,0,0
154480,174.296,-443.464,0,0
154741,174.922,-441.511,0,0
155001,175.766,-439.187,0,0
155261,176.828,-436.794,0,0
155522,178.161,-434.394,0,0
155782,179.809,-432,0,0
156042,181.8,-429.738,0,0
156303,183.991,-427.79,0,0
156563,186.271,-426.323,0,0
156823,188.573,-425.25,0,0
157084,190.66,-424.578,0,0
157344,192.257,-424.184,0,0
157604,193.494,-423.833,0,0
157864,194.368,-423.349,0,0
158125,195.086,-422.794,0,0
158385,195.669,-422.027,0,0
158645,196.262,-421.226,0,0
158906,196.663,-420.216,0,0
159166,197.037,-419.137,0,0
159426,197.421,-417.962,0,0
159687,197.79,-416.771,0,0
159947,198.105,-415.431,0,0
160207,198.63,-413.984,0,0
160468,199.256,-412.6,0,0
160728,199.731,-411.425,0,0
160988,200.093,-410.093,0,0
161249,200.545,-408.749,0,0
161509,201,-407.374,0,0
161769,201.357,-406.147,0,0
162030,201.593,-404.876,0,0
162290,201.628,-403.56,0,0
162550,201.596,-401.927,0,0
162811,201.694,-400.14,0,0
163071,201.993,-398.341,0,0
163331,202.327,-396.62,0,0
163592,202.7,-395.066,0,0
163852,202.782,-393.49,0,0
164112,202.764,-391.836,0,0
164373,202.622,-389.891,0,0
164633,202.49,-387.777,0,0
164893,202.501,-385.352,0,0
165154,202.732,-382.976,0,0
165414,203.036,-380.543,0,0
165674,203.486,-377.933,0,0
165935,204.153,-375.399,0,0
166195,204.952,-373.005,0,0
166455,205.804,-370.721,0,0
166716,206.553,-368.572,0,0
166976,207.215,-366.376,0,0
167236,207.882,-364.087,0,0
167497,208.604,-361.717,0,0
167757,209.433,-359.416,0,0
168017,210.245,-357.08,0,0
168277,211.043,-354.745,0,0
168538,211.871,-352.378,0,0
168798,212.825,-349.898,0,0
169058,213.953,-347.56,0,0
169319,215.009,-345.365,0,0
169579,215.995,-343.156,0,0
169839,217.016,-341.031,0,0
170100,217.959,-338.863,0,0
170360.075,218.784,-336.704,0,0
170620.4,219.562,-334.441,0,0
170880.725,220.348,-332.129,0,0
171141.05,221.172,-329.72,0,0
171401.375,222.098,-327.232,0,0
171661.7,223.043,-324.747,0,0
171922.025,223.986,-322.323,0,0
172182.35,224.954,-319.798,0,0
172442.675,225.906,-317.302,0,0
172703.0,226.915,-314.805,0,0
172963.325,227.878,-312.272,0,0
173223.65,228.764,-309.712,0,0
173483.975,229.641,-307.079,0,0
173744.3,230.487,-304.361,0,0
174004.625,231.328,-301.511,0,0
174264.95,232.216,-298.533,0,0
174525.275,233.178,-295.452,0,0
174785.6,234.179,-292.273,0,0
175045.925,235.18,-289.043,0,0
175306.25,236.298,-285.631,0,0
175566.575,237.573,-282.126,0,0
175826.9,238.961,-278.596,0,0
176087.225,240.394,-274.96,0,0
176347.55,241.98,-271.301,0,0
176607.875,243.606,-267.503,0,0
176868.2,245.37,-263.616,0,0
177128.525,247.377,-259.641,0,0
177388.85,249.507,-255.681,0,0
177649.175,251.738,-251.697,0,0
177909.5,254.14,-247.678,0,0
178169.825,256.654,-243.595,0,0
178430.15,259.322,-239.43,0,0
178690.475,262.237,-235.215,0,0
178950.8,265.453,-230.947,0,0
179211.125,268.915,-226.768,0,0
179471.45,272.691,-222.636,0,0
179731.775,276.686,-218.768,0,0
179992.1,280.821,-215.053,0,0
180252.425,285.108,-211.577,0,0
180512.75,289.424,-208.238,0,0
180773.075,293.865,-205.02,0,0
181033.4,298.357,-201.949,0,0
181293.725,302.911,-199.035,0,0
181554.05,307.581,-196.271,0,0
181814.375,312.301,-193.693,0,0
182074.7,317.05,-191.258,0,0
182335.025,321.788,-189.031,0,0
182595.35,326.503,-186.927,0,0
182855.675,331.164,-184.997,0,0
183116.0,335.659,-183.082,0,0
183376.325,340.153,-181.138,0,0
183636.65,344.776,-179.22,0,0
183896.975,349.489,-177.479,0,0
184157.3,354.216,-175.89,0,0
184417.625,358.871,-174.518,0,0
184677.95,363.426,-173.361,0,0
184938.275,367.845,-172.374,0,0
185198.6,371.927,-171.433,0,0
185458.925,375.876,-170.58,0,0
185719.25,379.527,-169.625,0,0
185979.575,382.95,-168.707,0,0
186239.9,385.995,-167.584,0,0
186500,389.01,-166.225,0,0
186761,391.82,-164.531,0,0
187021,394.404,-162.615,0,0
187281,396.804,-160.279,0,0
187542,399.18,-157.49,0,0
187802,401.638,-154.112,0,0
188062,404.301,-150.168,0,0
188322,407.287,-145.721,0,0
188583,410.73,-140.987,0,0
188843,414.556,-135.935,0,0
189103,418.734,-130.48,0,0
189364,423.279,-124.665,0,0
189624,428.474,-118.411,0,0
189884,434.415,-111.776,0,0
190145,441.277,-105.039,0,0
190405,449.089,-98.466,0,0
190665,457.591,-91.8848,0,0
190926,466.977,-85.5905,0,0
191186,477.152,-79.6624,0,0
191446,488.107,-74.18,0,0
191707,499.675,-69.3709,0,0
191967,511.63,-65.3339,0,0
192227,523.739,-61.7999,0,0
192488,536.095,-58.7761,0,0
192748,548.592,-55.8784,0,0
193008,561.493,-53.2198,0,0
193269,574.903,-50.6763,0,0
193529,588.985,-48.5876,0,0
193789,603.83,-47.1072,0,0
194050,619.221,-46.3624,0,0
194310,635.06,-46.4327,0,0
194570,651.319,-47.4372,0,0
194831,667.808,-49.3873,0,0
195091,684.483,-52.3864,0,0
195351,701.042,-56.3101,0,0
195612,717.425,-61.0632,0,0
195872,733.656,-66.521,0,0
196132,749.904,-72.6244,0,0
196393,766.148,-79.5544,0,0
196653,782.264,-87.3742,0,0
196913,798.046,-96.0511,0,0
197174,813.362,-105.429,0,0
197434,828.506,-115.351,0,0
197694,843.218,-125.842,0,0
197955,857.694,-136.796,0,0
198215,871.984,-148.186,0,0
198475,886.332,-160.36,0,0
198735,900.485,-173.267,0,0
198996,914.434,-187.176,0,0
199256,927.909,-201.975,0,0
199516,940.77,-217.494,0,0
199777,952.948,-233.742,0,0
200037,964.864,-250.554,0,0
200297,975.97,-267.848,0,0
200558,986.848,-286.121,0,0
200818,997.205,-305.092,0,0
201078,1006.84,-324.836,0,0
201339,1015.85,-345.636,0,0
201599,1024.06,-367.461,0,0
201859,1031.35,-390.537,0,0
202120,1036.53,-414.322,0,0
202380.025,1040.28,-439.101,0,0
202640.35,1041.73,-464.07,0,0
202900.675,1041.58,-488.757,0,0
203161.0,1039.65,-513.359,0,0
203421.325,1036.15,-536.677,0,0
203681.65,1031.19,-559.807,0,0
203941.975,1025.38,-582.096,0,0
204202.3,1018.37,-603.47,0,0
204462.625,1010.37,-624.225,0,0
204722.95,1001.89,-644.029,0,0
204983.275,992.387,-663.423,0,0
205243.6,982.706,-681.964,0,0
205503.925,971.454,-699.671,0,0
205764.25,959.711,-716.594,0,0
206024.575,947.446,-732.713,0,0
206284.9,934.568,-747.567,0,0
206545.225,921.647,-761.241,0,0
206805.55,908.163,-774.202,0,0
207065.875,894.831,-786.222,0,0
207326.2,881.495,-797.41,0,0
207586.525,867.976,-807.788,0,0
207846.85,854.444,-817.191,0,0
208107.175,841.119,-825.887,0,0
208367.5,827.826,-834.01,0,0
208627.825,814.823,-841.332,0,0
208888.15,802.134,-848.007,0,0
209148.475,789.602,-854.42,0,0
209408.8,777.686,-860.438,0,0
209669.125,765.991,-866.005,0,0
209929.45,754.512,-871.333,0,0
210189.775,743.072,-876.654,0,0
210450.1,732.052,-882.03,0,0
210710.425,721.169,-887.264,0,0
210970.75,710.505,-892.732,0,0
211231.075,699.413,-898.155,0,0
211491.4,687.653,-903.58,0,0
211751.725,675.547,-909.07,0,0
212012.05,662.965,-914.029,0,0
212272.375,649.987,-918.167,0,0
212532.7,636.53,-921.846,0,0
212793.025,623.063,-924.552,0,0
213053.35,609.641,-926.533,0,0
213313.675,596.194,-927.731,0,0
213574.0,583.476,-928.555,0,0
213834.325,570.587,-928.541,0,0
214094.65,558.248,-928.141,0,0
214354.975,545.974,-927.167,0,0
214615.3,534.06,-925.864,0,0
214875.625,522.642,-923.879,0,0
215135.95,511.602,-922.016,0,0
215396.275,500.845,-919.327,0,0
215656.6,490.665,-916.653,0,0
215916.925,480.749,-913.76,0,0
216177.25,471.165,-910.596,0,0
216437.575,461.954,-907.651,0,0
216697.9,453.056,-904.418,0,0
216958.225,444.47,-900.931,0,0
217218.55,436.143,-897.446,0,0
217478.875,428.053,-893.827,0,0
217739.2,420.266,-890.068,0,0
217999.525,412.672,-886.27,0,0
218259.85,405.341,-882.382,0,0
218520,398.235,-878.421,0,0
218780,391.354,-874.342,0,0
219041,384.857,-870.371,0,0
219301,378.426,-866.292,0,0
219561,372.332,-862.304,0,0
219822,366.46,-858.081,0,0
220082,360.675,-853.839,0,0
220342,355.074,-849.845,0,0
220603,349.744,-845.72,0,0
220863,344.437,-841.38,0,0
221123,339.294,-837.29,0,0
221384,334.29,-833.054,0,0
221644,329.508,-828.789,0,0
221904,324.91,-824.353,0,0
222165,320.443,-819.953,0,0
222425,316.063,-815.484,0,0
222685,311.816,-811.051,0,0
222946,307.966,-806.456,0,0
223206,304.219,-801.947,0,0
223466,300.64,-797.319,0,0
223727,297.13,-792.629,0,0
223987,294.058,-788.01,0,0
224247,291.203,-783.433,0,0
224508,288.497,-778.593,0,0
224768,286.124,-774.096,0,0
225028,283.929,-769.188,0,0
225289,281.802,-764.74,0,0
225549,280.053,-760.215,0,0
225809,278.767,-755.765,0,0
226070,277.756,-751.591,0,0
226330,276.719,-747.448,0,0
226590,276.067,-743.61,0,0
226851,275.757,-739.985,0,0
227111,275.585,-736.673,0,0
227371,275.491,-733.655,0,0
227632,275.333,-731.059,0,0
227892,275.443,-728.708,0,0
228152,275.294,-726.627,0,0
228413,275.097,-725,0,0
228673,274.633,-723.636,0,0
228933,274.134,-722.401,0,0
229193,273.362,-721.408,0,0
229454,272.275,-720.524,0,0
229714,270.927,-719.605,0,0
229974,269.431,-718.845,0,0
230235,267.532,-717.741,0,0
230495,265.667,-716.687,0,0
230755,263.395,-715.642,0,0
231016,261.154,-714.35,0,0
231276,258.691,-712.871,0,0
231536,256.246,-711.289,0,0
231797,253.974,-709.389,0,0
232057,251.395,-707.449,0,0
232317,249.011,-705.317,0,0
232578,246.66,-703.017,0,0
232838,244.364,-700.637,0,0
233098,242.137,-698.109,0,0
233359,240.064,-695.449,0,0
233619,238.108,-692.732,0,0
233879,236.213,-690.006,0,0
234140,234.497,-687.058,0,0
234400,232.887,-684.12,0,0
234660.3,231.367,-681.372,0,0
234920.625,229.966,-678.282,0,0
235180.95,228.686,-675.313,0,0
235441.275,227.621,-672.446,0,0
235701.6,226.527,-669.635,0,0
235961.925,225.557,-666.626,0,0
236222.25,224.666,-663.824,0,0
236482.575,223.891,-660.934,0,0
236742.9,223.139,-658.099,0,0
237003.225,222.534,-655.276,0,0
237263.55,221.984,-652.497,0,0
237523.875,221.511,-649.712,0,0
237784.2,221.107,-646.966,0,0
238044.525,220.742,-644.282,0,0
238304.85,220.475,-641.561,0,0
238565.175,220.29,-638.935,0,0
238825.5,220.175,-636.304,0,0
239085.825,220.121,-633.717,0,0
239346.15,220.117,-631.205,0,0
239606.475,220.1,-628.805,0,0
239866.8,220.213,-626.298,0,0
240127.125,220.383,-623.81,0,0
240387.45,220.489,-621.564,0,0
240647.775,220.775,-619.202,0,0
240908.1,220.972,-616.844,0,0
241168.425,221.283,-614.597,0,0
241428.75,221.633,-612.285,0,0
241689.075,222.02,-610.043,0,0
241949.4,222.459,-607.903,0,0
242209.725,223.029,-605.655,0,0
242470.05,223.537,-603.533,0,0
242730.375,224.09,-601.38,0,0
242990.7,224.753,-599.224,0,0
243251.025,225.481,-597.136,0,0
243511.35,226.284,-595.089,0,0
243771.675,227.042,-593.036,0,0
244032.0,227.938,-591.115,0,0
244292.325,228.844,-589.171,0,0
244552.65,229.818,-587.263,0,0
244812.975,230.832,-585.282,0,0
245073.3,231.942,-583.508,0,0
245333.625,233.023,-581.508,0,0
245593.95,234.181,-579.57,0,0
245854.275,235.541,-577.783,0,0
246114.6,236.962,-575.942,0,0
246374.925,238.457,-574.136,0,0
246635.25,240.142,-572.347,0,0
246895.575,242.065,-570.65,0,0
247155.9,244.115,-569.056,0,0
247416.225,246.154,-567.564,0,0
247676.55,248.41,-566.31,0,0
247936.875,250.886,-565.219,0,0
248197.2,253.345,-564.301,0,0
248457.525,255.794,-563.612,0,0
248717.85,258.262,-563.219,0,0
248978.175,260.731,-562.927,0,0
249238.5,263.026,-563.016,0,0
249498.825,265.307,-563.005,0,0
249759.15,267.483,-563.279,0,0
250019.475,269.494,-563.503,0,0
250279.8,271.474,-563.654,0,0
250540,273.355,-563.674,0,0
250800,275.33,-563.726,0,0
251061,277.522,-563.762,0,0
251321,279.903,-563.864,0,0
251581,282.487,-564.058,0,0
251842,285.305,-564.479,0,0
252102,288.246,-565.169,0,0
252362,291.378,-566.176,0,0
252623,294.524,-567.536,0,0
252883,297.706,-569.267,0,0
253143,300.824,-571.375,0,0
253404,303.862,-573.894,0,0
253664,306.743,-576.759,0,0
253924,309.478,-580.044,0,0
254185,311.827,-583.567,0,0
254445,313.888,-587.549,0,0
254705,315.778,-591.739,0,0
254966,317.053,-596.117,0,0
255226,317.984,-600.676,0,0
255486,318.53,-605.348,0,0
255747,318.714,-610.027,0,0
256007,318.323,-614.685,0,0
256267,317.694,-619.315,0,0
256528,316.631,-623.965,0,0
256788,315.244,-628.38,0,0
257048,313.539,-632.721,0,0
257309,311.571,-636.866,0,0
257569,309.338,-640.851,0,0
257829,306.872,-644.679,0,0
258090,304.164,-648.291,0,0
258350,301.305,-651.733,0,0
258610,298.222,-654.951,0,0
258871,295.032,-658.012,0,0
259131,291.673,-660.822,0,0
259391,288.138,-663.472,0,0
259651,284.489,-665.84,0,0
259912,280.883,-667.96,0,0
260172,277.056,-669.906,0,0
260432,273.248,-671.596,0,0
260693,269.424,-673.209,0,0
260953,265.519,-674.483,0,0
261213,261.51,-675.618,0,0
261474,257.723,-676.432,0,0
261734,253.827,-677.087,0,0
261994,250.056,-677.534,0,0
262255,246.282,-677.847,0,0
262515,242.642,-678.007,0,0
262775,239.059,-678.053,0,0
263036,235.571,-677.932,0,0
263296,232.189,-677.779,0,0
263556,228.799,-677.524,0,0
263817,225.49,-677.201,0,0
264077,222.255,-676.717,0,0
264337,219.15,-676.242,0,0
264598,215.928,-675.637,0,0
264858,212.867,-674.956,0,0
265118,209.98,-674.19,0,0
265379,206.808,-673.317,0,0
265639,204.09,-672.545,0,0
265899,201.316,-671.645,0,0
266160,198.588,-670.644,0,0
266420,195.839,-669.634,0,0
266680.25,193.276,-668.544,0,0
266940.575,190.72,-667.452,0,0
267200.9,188.216,-666.325,0,0
267461.225,185.822,-665.109,0,0
267721.55,183.476,-663.974,0,0
267981.875,181.138,-662.698,0,0
268242.2,178.856,-661.47,0,0
268502.525,176.682,-660.261,0,0
268762.85,174.608,-659.039,0,0
269023.175,172.491,-657.666,0,0
269283.5,170.454,-656.429,0,0
269543.825,168.469,-655.105,0,0
269804.15,166.445,-653.857,0,0
270064.475,164.481,-652.483,0,0
270324.8,162.581,-651.199,0,0
270585.125,160.621,-649.815,0,0
270845.45,158.84,-648.546,0,0
271105.775,157.044,-647.143,0,0
271366.1,155.233,-645.738,0,0
271626.425,153.478,-644.323,0,0
271886.75,151.757,-642.991,0,0
272147.075,150.079,-641.536,0,0
272407.4,148.502,-640.151,0,0
272667.725,146.785,-638.725,0,0
272928.05,145.273,-637.351,0,0
273188.375,143.618,-635.821,0,0
273448.7,142.093,-634.365,0,0
273709.025,140.601,-632.901,0,0
273969.35,139.12,-631.38,0,0
274229.675,137.651,-629.924,0,0
274490.0,136.256,-628.373,0,0
274750.325,134.853,-626.867,0,0
275010.65,133.471,-625.374,0,0
275270.975,132.175,-623.88,0,0
275531.3,130.896,-622.325,0,0
275791.625,129.635,-620.767,0,0
276051.95,128.423,-619.268,0,0
276312.275,127.183,-617.699,0,0
276572.6,126.048,-616.157,0,0
276832.925,124.909,-614.61,0,0
277093.25,123.795,-613.034,0,0
277353.575,122.723,-611.551,0,0
277613.9,121.641,-609.971,0,0
277874.225,120.616,-608.393,0,0
278134.55,119.606,-606.838,0,0
278394.875,118.625,-605.26,0,0
278655.2,117.675,-603.656,0,0
278915.525,116.781,-602.048,0,0
279175.85,115.91,-600.442,0,0
279436.175,115.083,-598.802,0,0
279696.5,114.333,-597.137,0,0
279956.825,113.593,-595.547,0,0
280217.15,113.027,-593.928,0,0
280477.475,112.403,-592.356,0,0
280737.8,111.9,-590.859,0,0
280998.125,111.453,-589.345,0,0
281258.45,110.996,-587.94,0,0
281518.775,110.543,-586.593,0,0
281779.1,110.105,-585.294,0,0
282039.425,109.629,-584.008,0,0
282299.75,109.141,-582.763,0,0
282560,108.61,-581.539,0,0
282820,108.104,-580.374,0,0
283081,107.639,-579.005,0,0
283341,107.096,-577.757,0,0
283601,106.618,-576.558,0,0
283862,106.163,-575.336,0,0
284122,105.758,-574.098,0,0
284382,105.339,-572.777,0,0
284643,104.867,-571.547,0,0
284903,104.336,-570.266,0,0
285163,104.156,-569.161,0,0
285424,103.795,-567.954,0,0
285684,103.502,-566.823,0,0
285944,103.295,-565.646,0,0
286205,102.98,-564.566,0,0
286465,102.772,-563.573,0,0
286725,102.418,-562.596,0,0
286986,102.155,-561.665,0,0
287246,101.839,-560.71,0,0
287506,101.344,-559.824,0,0
287767,100.969,-558.854,0,0
288027,100.484,-557.871,0,0
288287,100.213,-556.856,0,0
288548,99.777,-555.805,0,0
288808,99.4105,-554.82,0,0
289068,99.0782,-553.92,0,0
289329,98.7212,-552.916,0,0
289589,98.4335,-551.862,0,0
289849,98.1423,-550.967,0,0
290109,97.7945,-550.01,0,0
290370,97.5413,-549.14,0,0
290630,97.2636,-548.176,0,0
290890,96.8676,-547.248,0,0
291151,96.6513,-546.43,0,0
291411,96.3555,-545.528,0,0
291671,96.0609,-544.667,0,0
291932,95.8382,-543.925,0,0
292192,95.491,-543.019,0,0
292452,95.2777,-542.317,0,0
292713,94.94,-541.579,0,0
292973,94.6479,-540.869,0,0
293233,94.3113,-540.094,0,0
293494,93.9958,-539.374,0,0
293754,93.6323,-538.775,0,0
294014,93.2412,-538.16,0,0
294275,92.8064,-537.452,0,0
294535,92.2434,-536.849,0,0
294795,91.6617,-536.171,0,0
295056,91.1369,-535.485,0,0
295316,90.5256,-534.711,0,0
295576,89.8867,-533.991,0,0
295837,89.2679,-533.194,0,0
296097,88.6439,-532.338,0,0
296357,87.9927,-531.468,0,0
296618,87.2769,-530.498,0,0
296878,86.6672,-529.543,0,0
297138,85.9769,-528.491,0,0
297399,85.4258,-527.383,0,0
297659,84.7909,-526.19,0,0
297919,84.3498,-525.004,0,0
298180,83.9555,-523.735,0,0
298440,83.5802,-522.511,0,0
298700.2,83.3439,-521.335,0,0
298960.525,83.169,-520.164,0,0
299220.85,83.0517,-519.02,0,0
299481.175,82.9641,-517.951,0,0
299741.5,82.9047,-516.875,0,0
300001.825,82.7754,-515.908,0,0
300262.15,82.7209,-515.034,0,0
300522.475,82.6575,-514.184,0,0
300782.8,82.596,-513.243,0,0
301043.125,82.4846,-512.432,0,0
301303.45,82.3564,-511.644,0,0
301563.775,82.2641,-510.77,0,0
301824.1,82.1377,-510.008,0,0
302084.425,81.9642,-509.24,0,0
302344.75,81.8381,-508.426,0,0
302605.075,81.6538,-507.672,0,0
302865.4,81.4703,-506.951,0,0
303125.725,81.3069,-506.171,0,0
303386.05,81.0858,-505.409,0,0
303646.375,80.8925,-504.63,0,0
303906.7,80.6519,-503.781,0,0
304167.025,80.5033,-503.037,0,0
304427.35,80.3227,-502.186,0,0
304687.675,80.1907,-501.411,0,0
304948.0,80.0533,-500.576,0,0
305208.325,79.9069,-499.674,0,0
305468.65,79.8149,-498.809,0,0
305728.975,79.8375,-498.008,0,0
305989.3,79.8984,-497.196,0,0
306249.625,79.9223,-496.539,0,0
306509.95,79.9475,-495.847,0,0
306770.275,80.0636,-495.279,0,0
307030.6,80.0448,-494.689,0,0
307290.925,80.0525,-494.207,0,0
307551.25,79.9609,-493.722,0,0
307811.575,79.939,-493.279,0,0
308071.9,79.7715,-492.794,0,0
308332.225,79.5654,-492.366,0,0
308592.55,79.3939,-491.946,0,0
308852.875,79.1441,-491.412,0,0
309113.2,78.8855,-490.877,0,0
309373.525,78.71,-490.395,0,0
309633.85,78.4136,-489.789,0,0
309894.175,78.1814,-489.315,0,0
310154.5,77.8895,-488.818,0,0
310414.825,77.6286,-488.234,0,0
310675.15,77.408,-487.781,0,0
310935.475,77.1432,-487.217,0,0
311195.8,76.8701,-486.737,0,0
311456.125,76.5426,-486.138,0,0
311716.45,76.2295,-485.617,0,0
311976.775,75.8867,-485.091,0,0
312237.1,75.5453,-484.523,0,0
312497.425,75.2089,-483.999,0,0
312757.75,74.8602,-483.342,0,0
313018.075,74.4977,-482.765,0,0
313278.4,74.1414,-482.138,0,0
313538.725,73.8684,-481.513,0,0
313799.05,73.4558,-480.874,0,0
314059.375,73.1606,-480.228,0,0
314319.7,72.8903,-479.61,0,0
314580,72.573,-478.98,0,0
314840,72.2705,-478.354,0,0
315101,71.9666,-477.695,0,0
315361,71.7268,-477.022,0,0
315621,71.3762,-476.357,0,0
315882,71.1119,-475.758,0,0
316142,70.8092,-475.111,0,0
316402,70.5407,-474.487,0,0
316663,70.2394,-473.866,0,0
316923,70.0217,-473.23,0,0
317183,69.6966,-472.625,0,0
317444,69.4389,-471.99,0,0
317704,69.1108,-471.38,0,0
317964,68.8244,-470.684,0,0
318225,68.5605,-470.102,0,0
318485,68.2747,-469.436,0,0
318745,67.9429,-468.83,0,0
319006,67.6565,-468.16,0,0
319266,67.3707,-467.499,0,0
319526,67.0501,-466.883,0,0
319787,66.7036,-466.222,0,0
320047,66.4475,-465.556,0,0
320307,66.0828,-464.882,0,0
320567,65.7996,-464.259,0,0
320828,65.5547,-463.552,0,0
321088,65.2115,-462.785,0,0
321348,64.922,-462.113,0,0
321609,64.7034,-461.366,0,0
321869,64.4342,-460.634,0,0
322129,64.207,-459.956,0,0
322390,63.964,-459.187,0,0
322650,63.7865,-458.539,0,0
322910,63.5615,-457.853,0,0
323171,63.3477,-457.136,0,0
323431,63.1675,-456.458,0,0
323691,62.9379,-455.769,0,0
323952,62.7608,-455.152,0,0
324212,62.5277,-454.416,0,0
324472,62.374,-453.766,0,0
324733,62.1193,-453.154,0,0
324993,61.9017,-452.453,0,0
325253,61.6924,-451.805,0,0
325514,61.5189,-451.172,0,0
325774,61.2499,-450.503,0,0
326034,61.0624,-449.867,0,0
326295,60.8399,-449.159,0,0
326555,60.5859,-448.511,0,0
326815,60.4277,-447.842,0,0
327076,60.2187,-447.181,0,0
327336,60.0346,-446.495,0,0
327596,59.8165,-445.794,0,0
327857,59.6284,-445.144,0,0
328117,59.4666,-444.41,0,0
328377,59.2663,-443.754,0,0
328638,59.0692,-443.084,0,0
328898,58.8853,-442.42,0,0
329158,58.7374,-441.788,0,0
329419,58.5525,-441.085,0,0
329679,58.4211,-440.409,0,0
329939,58.2573,-439.746,0,0
330200,58.0551,-439.061,0,0
330460,57.8593,-438.394,0,0
330720.15,57.7552,-437.774,0,0
330980.475,57.5414,-437.095,0,0
331240.8,57.4161,-436.415,0,0
331501.125,57.3039,-435.732,0,0
331761.45,57.0996,-435.087,0,0
332021.775,56.9328,-434.388,0,0
332282.1,56.8141,-433.761,0,0
332542.425,56.6898,-433.045,0,0
332802.75,56.5313,-432.366,0,0
333063.075,56.3669,-431.697,0,0
333323.4,56.2593,-431.025,0,0
333583.725,56.144,-430.321,0,0
333844.05,55.9882,-429.623,0,0
334104.375,55.9055,-428.984,0,0
334364.7,55.7915,-428.275,0,0
334625.025,55.6871,-427.612,0,0
334885.35,55.6349,-426.97,0,0
335145.675,55.5593,-426.293,0,0
335406.0,55.5149,-425.658,0,0
335666.325,55.3839,-424.977,0,0
335926.65,55.3392,-424.389,0,0
336186.975,55.2629,-423.714,0,0
336447.3,55.1824,-423.066,0,0
336707.625,55.1067,-422.47,0,0
336967.95,55.0281,-421.848,0,0
337228.275,54.9427,-421.228,0,0
337488.6,54.8508,-420.606,0,0
337748.925,54.8221,-420.036,0,0
338009.25,54.725,-419.402,0,0
338269.575,54.6539,-418.74,0,0
338529.9,54.577,-418.103,0,0
338790.225,54.4753,-417.514,0,0
339050.55,54.4059,-416.886,0,0
339310.875,54.3797,-416.316,0,0
339571.2,54.2697,-415.626,0,0
339831.525,54.2572,-415.032,0,0
340091.85,54.2077,-414.39,0,0
340352.175,54.123,-413.798,0,0
340612.5,54.1446,-413.136,0,0
340872.825,54.0976,-412.541,0,0
341133.15,54.0702,-411.968,0,0
341393.475,54.02,-411.326,0,0
341653.8,53.9955,-410.726,0,0
341914.125,53.9782,-410.114,0,0
342174.45,54.008,-409.489,0,0
342434.775,54.013,-408.898,0,0
342695.1,54.0666,-408.369,0,0
342955.425,54.0619,-407.793,0,0
343215.75,54.1764,-407.266,0,0
343476.075,54.198,-406.754,0,0
343736.4,54.2291,-406.31,0,0
343996.725,54.2585,-405.88,0,0
344257.05,54.2177,-405.455,0,0
344517.375,54.1572,-405.05,0,0
344777.7,54.0696,-404.655,0,0
345038.025,53.947,-404.195,0,0
345298.35,53.8232,-403.711,0,0
345558.675,53.6303,-403.21,0,0
345819.0,53.4473,-402.699,0,0
346079.325,53.3224,-402.191,0,0
346339.65,53.1808,-401.641,0,0
346599.975,53.0355,-401.036,0,0
346860,52.9238,-400.473,0,0
347121,52.8048,-399.872,0,0
347381,52.7297,-399.283,0,0
347641,52.626,-398.707,0,0
347902,52.5913,-398.093,0,0
348162,52.4681,-397.52,0,0
348422,52.4171,-396.914,0,0
348683,52.3711,-396.369,0,0
348943,52.3192,-395.75,0,0
349203,52.2391,-395.204,0,0
349464,52.2413,-394.66,0,0
349724,52.2016,-394.061,0,0
349984,52.1611,-393.511,0,0
350245,52.139,-392.923,0,0
350505,52.0866,-392.353,0,0
350765,52.0596,-391.787,0,0
351025,52.0342,-391.202,0,0
351286,52.0282,-390.666,0,0
351546,52.0247,-390.09,0,0
351806,52.0201,-389.537,0,0
352067,52.0108,-389.004,0,0
352327,52.0661,-388.511,0,0
352587,52.0811,-387.923,0,0
352848,52.0758,-387.394,0,0
353108,52.1177,-386.882,0,0
353368,52.0795,-386.405,0,0
353629,52.122,-385.921,0,0
353889,52.1159,-385.421,0,0
354149,52.1139,-384.938,0,0
354410,52.1165,-384.432,0,0
354670,52.083,-383.995,0,0
354930,52.0793,-383.491,0,0
355191,52.0155,-383.006,0,0
355451,52.014,-382.578,0,0
355711,51.9336,-382.061,0,0
355972,51.9265,-381.53,0,0
356232,51.9032,-381.004,0,0
356492,51.8625,-380.517,0,0
356753,51.8474,-379.991,0,0
357013,51.8633,-379.482,0,0
357273,51.8283,-378.955,0,0
357534,51.8308,-378.453,0,0
357794,51.8605,-377.939,0,0
358054,51.895,-377.435,0,0
358315,51.9128,-376.952,0,0
358575,51.948,-376.483,0,0
358835,51.9839,-376.029,0,0
359096,52.0159,-375.63,0,0
359356,52.0547,-375.157,0,0
359616,52.0411,-374.695,0,0
359877,52.0722,-374.241,0,0
360137,52.0822,-373.88,0,0
360397,52.0664,-373.493,0,0
360658,52.0688,-373.064,0,0
360918,52.0375,-372.661,0,0
361178,52.0121,-372.254,0,0
361438,51.9823,-371.816,0,0
361699,51.9059,-371.458,0,0
361959,51.836,-371.039,0,0
362219,51.8177,-370.624,0,0
362480,51.7202,-370.224,0,0
362740.1,51.6538,-369.768,0,0
363000.425,51.5987,-369.328,0,0
363260.75,51.5008,-368.873,0,0
363521.075,51.4132,-368.401,0,0
363781.4,51.3379,-367.95,0,0
364041.725,51.2717,-367.471,0,0
364302.05,51.2199,-367.017,0,0
364562.375,51.1443,-366.549,0,0
364822.7,51.033,-366.142,0,0
365083.025,51.0466,-365.589,0,0
365343.35,50.9449,-365.172,0,0
365603.675,50.9045,-364.664,0,0
365864.0,50.8685,-364.15,0,0
366124.325,50.8087,-363.706,0,0
366384.65,50.7849,-363.226,0,0
366644.975,50.7358,-362.746,0,0
366905.3,50.684,-362.248,0,0
367165.625,50.6529,-361.778,0,0
367425.95,50.6408,-361.328,0,0
367686.275,50.5724,-360.853,0,0
367946.6,50.565,-360.381,0,0
368206.925,50.5035,-359.883,0,0
368467.25,50.5048,-359.399,0,0
368727.575,50.4305,-358.928,0,0
368987.9,50.4011,-358.431,0,0
369248.225,50.4079,-357.96,0,0
369508.55,50.3437,-357.492,0,0
369768.875,50.36,-356.984,0,0
370029.2,50.3667,-356.53,0,0
370289.525,50.3668,-356.014,0,0
370549.85,50.3624,-355.561,0,0
370810.175,50.3445,-355.076,0,0
371070.5,50.3662,-354.595,0,0
371330.825,50.4291,-354.131,0,0
371591.15,50.4015,-353.622,0,0
371851.475,50.4692,-353.191,0,0
372111.8,50.5133,-352.753,0,0
372372.125,50.5857,-352.279,0,0
372632.45,50.6415,-351.846,0,0
372892.775,50.7063,-351.433,0,0
373153.1,50.7673,-351.072,0,0
373413.425,50.825,-350.705,0,0
373673.75,50.8948,-350.352,0,0
373934.075,50.9086,-350.048,0,0
374194.4,50.8727,-349.712,0,0
374454.725,50.8579,-349.414,0,0
374715.05,50.7879,-349.088,0,0
374975.375,50.7287,-348.796,0,0
375235.7,50.6537,-348.47,0,0
375496.025,50.5276,-348.072,0,0
375756.35,50.4288,-347.745,0,0
376016.675,50.3008,-347.318,0,0
376277.0,50.2015,-346.966,0,0
376537.325,50.1222,-346.542,0,0
376797.65,49.9984,-346.131,0,0
377057.975,49.8998,-345.707,0,0
377318.3,49.7898,-345.295,0,0
377578.625,49.6961,-344.867,0,0
377838.95,49.5768,-344.453,0,0
378099.275,49.4589,-344.019,0,0
378359.6,49.3499,-343.591,0,0
378619.925,49.2335,-343.169,0,0
378880,49.1141,-342.713,0,0
379141,48.9781,-342.301,0,0
379401,48.8524,-341.816,0,0
379661,48.7007,-341.368,0,0
379922,48.5488,-340.86,0,0
380182,48.4417,-340.365,0,0
380442,48.3041,-339.868,0,0
380703,48.1726,-339.344,0,0
380963,48.0485,-338.804,0,0
381223,47.929,-338.227,0,0
381483,47.8744,-337.678,0,0
381744,47.7991,-337.091,0,0
382004,47.739,-336.512,0,0
382264,47.7527,-335.945,0,0
382525,47.7602,-335.37,0,0
382785,47.8368,-334.8,0,0
383045,47.874,-334.252,0,0
383306,47.9874,-333.772,0,0
383566,48.0638,-333.318,0,0
383826,48.0986,-332.883,0,0
384087,48.2033,-332.52,0,0
384347,48.1581,-332.112,0,0
384607,48.1188,-331.719,0,0
384868,48.0691,-331.323,0,0
385128,47.9821,-330.902,0,0
385388,47.9587,-330.5,0,0
385649,47.8441,-330.025,0,0
385909,47.7492,-329.581,0,0
386169,47.68,-329.112,0,0
386430,47.5803,-328.66,0,0
386690,47.5024,-328.18,0,0
386950,47.438,-327.672,0,0
387211,47.3882,-327.169,0,0
387471,47.2957,-326.678,0,0
387731,47.2353,-326.166,0,0
387992,47.1713,-325.646,0,0
388252,47.1313,-325.129,0,0
388512,47.0387,-324.627,0,0
388773,47.0248,-324.092,0,0
389033,46.9681,-323.574,0,0
389293,46.9322,-323.048,0,0
389554,46.8992,-322.543,0,0
389814,46.8862,-321.997,0,0
390074,46.8621,-321.46,0,0
390335,46.8243,-320.949,0,0
390595,46.8032,-320.391,0,0
390855,46.7901,-319.894,0,0
391116,46.7682,-319.354,0,0
391376,46.7576,-318.812,0,0
391636,46.7685,-318.312,0,0
391896,46.7428,-317.763,0,0
392157,46.7432,-317.237,0,0
392417,46.7432,-316.715,0,0
392677,46.7476,-316.197,0,0
392938,46.7418,-315.64,0,0
393198,46.7347,-315.127,0,0
393458,46.7476,-314.599,0,0
393719,46.7592,-314.074,0,0
393979,46.7507,-313.541,0,0
394239,46.7713,-312.985,0,0
394500,46.7729,-312.44,0,0
394760.05,46.81,-311.901,0,0
395020.375,46.8052,-311.376,0,0
395280.7,46.8248,-310.842,0,0
395541.025,46.8424,-310.307,0,0
395801.35,46.87,-309.758,0,0
396061.675,46.8822,-309.228,0,0
396322.0,46.9295,-308.679,0,0
396582.325,46.9569,-308.15,0,0
396842.65,46.9899,-307.598,0,0
397102.975,47.0221,-307.054,0,0
397363.3,47.0793,-306.507,0,0
397623.625,47.1359,-305.968,0,0
397883.95,47.1585,-305.415,0,0
398144.275,47.2277,-304.899,0,0
398404.6,47.2475,-304.35,0,0
398664.925,47.3195,-303.808,0,0
398925.25,47.3666,-303.253,0,0
399185.575,47.4272,-302.741,0,0
399445.9,47.5127,-302.201,0,0
399706.225,47.535,-301.653,0,0
399966.55,47.5998,-301.12,0,0
400006.6,47.5749,-301.036,0,0