File: Accelerated corrosion test data/2025-10-03_18-00-02/sample_1.csv
Frequency (Hz),Impedance (ohms),Phase (Radians),Temperature (C),Humidity (%)
10000.0,302.257,-12128.3,0,0
10260.325,309.109,-11817.7,0,0
10520.65,288.812,-11539.8,0,0
10780.975,253.498,-11258.9,0,0
11041.3,294.733,-10998.3,0,0
11301.625,275.304,-10743.3,0,0
11561.95,259.284,-10503.7,0,0
11822.275,259.881,-10263.3,0,0
12082.6,246.004,-10036,0,0
12342.925,236.992,-9860.57,0,0
12603.25,211.74,-9650.4,0,0
12863.575,205.913,-9450.02,0,0
13123.9,209.641,-9258.77,0,0
13384.225,191.418,-9089.65,0,0
13644.55,188.869,-8909.96,0,0
13904.875,187.212,-8730.99,0,0
14165.2,186.678,-8590.28,0,0
14425.525,222.608,-8441.29,0,0
14685.8,222.504,-8267.78,0,0
14946.175,183.208,-8167.65,0,0
15206.5,191.817,-8013.64,0,0
15466.825,188.558,-7881.84,0,0
15727.15,184.433,-7763.3,0,0
15987.5,169.786,-7629.22,0,0
16247.8,163.596,-7507.16,0,0
16508.125,165.237,-7383.78,0,0
16768.45,166.753,-7266.77,0,0
17028.775,176.73,-7161.55,0,0
17289.1,159.948,-7056.73,0,0
17549.425,164.667,-6952.82,0,0
17809.75,158.406,-6851.12,0,0
18070.075,150.187,-6753.38,0,0
18330.4,144.704,-6656.82,0,0
18590.725,147.729,-6563.6,0,0
18851.05,145.907,-6464.99,0,0
19111.375,140.932,-6383.64,0,0
19371.7,139.142,-6292.82,0,0
19632.025,140.621,-6204.4,0,0
19892.35,135.029,-6119.54,0,0
20152.675,146.126,-6032.54,0,0
20413.0,169.162,-5947.29,0,0
20673.3,170.942,-5906.83,0,0
20933.65,156.924,-5836.68,0,0
21193.975,160.865,-5771.26,0,0
21454.3,150.203,-5701.33,0,0
21714.625,141.206,-5633.73,0,0
21974.9,138.633,-5547.04,0,0
22235.275,174.175,-5508.57,0,0
22495.6,142.461,-5461.76,0,0
22755.925,131.612,-5393.46,0,0
23016.25,124.13,-5327.21,0,0
23276.6,124.211,-5266.54,0,0
23536.9,118.057,-5206.77,0,0
23797.225,115.839,-5146.63,0,0
24057.55,123.85,-5085.73,0,0
24317.875,112.778,-5037.3,0,0
24578.2,113.74,-4979.06,0,0
24838.525,111.142,-4927.98,0,0
25098.85,112.107,-4875.25,0,0
25359.175,109.98,-4826.11,0,0
25619.5,106.029,-4775.71,0,0
25879.8,106.043,-4724.46,0,0
26140.1,106.35,-4676.55,0,0
26400.5,105.866,-4625.69,0,0
26660.8,108.536,-4576.08,0,0
26921.1,115.764,-4530.79,0,0
27181.4,119.962,-4495.81,0,0
27441.8,111.729,-4461.66,0,0
27702.1,107.585,-4411.75,0,0
27962.4,114.706,-4366.14,0,0
28222.7,113.248,-4325.65,0,0
28483.1,127.451,-4282.17,0,0
28743.4,130.476,-4266.4,0,0
29003.7,118.411,-4229.23,0,0
29264,121.028,-4195.32,0,0
29524.4,109.143,-4159.08,0,0
29784.7,107.626,-4118.4,0,0
30045,102.619,-4085.72,0,0
30305.3,102.57,-4047.8,0,0
30565.7,103.486,-4008.96,0,0
30826,104.107,-3975.42,0,0
31086.3,105.257,-3946.96,0,0
31346.6,98.9772,-3917.22,0,0
31607,95.6564,-3880.65,0,0
31867.3,98.4189,-3847.7,0,0
32127.6,100.169,-3817.41,0,0
32387.9,98.4936,-3791.51,0,0
32648.3,95.46,-3759.08,0,0
32908.6,96.2479,-3731.87,0,0
33168.9,91.5845,-3702.62,0,0
33429.2,89.8935,-3674.23,0,0
33689.6,88.022,-3644.24,0,0
33949.9,86.593,-3613.88,0,0
34210.2,87.0952,-3588.36,0,0
34470.5,85.7092,-3560.93,0,0
34730.9,85.4421,-3533.42,0,0
34991.2,82.7943,-3506.62,0,0
35251.5,81.9538,-3479.99,0,0
35511.8,82.3488,-3453.74,0,0
35772.2,81.5067,-3428.8,0,0
36032.5,79.8717,-3403.09,0,0
36292.8,78.5471,-3377.99,0,0
36553.1,79.4666,-3353.19,0,0
36813.5,76.9712,-3328.68,0,0
37073.8,77.152,-3305.2,0,0
37334.1,75.1074,-3281.53,0,0
37594.4,75.7003,-3258.54,0,0
37854.8,74.4312,-3235.69,0,0
38115.1,73.6735,-3212.5,0,0
38375.4,74.5639,-3190.12,0,0
38635.7,72.9356,-3168.39,0,0
38896.1,73.5676,-3146.5,0,0
39156.4,73.7386,-3124.86,0,0
39416.7,72.0593,-3104.45,0,0
39677,71.2942,-3083.51,0,0
39937.4,72.2072,-3062.76,0,0
40197.7,71.128,-3042.17,0,0
40458,71.2134,-3022.12,0,0
40718.3,71.5107,-3001.17,0,0
40978.7,73.0008,-2982.71,0,0
41239,73.7072,-2964.28,0,0
41499.3,72.4081,-2946.27,0,0
41759.6,71.6548,-2927.65,0,0
42020,75.0003,-2908.26,0,0
42280.275,70.6356,-2890.11,0,0
42540.6,71.1681,-2872.98,0,0
42800.925,70.1252,-2855.79,0,0
43061.25,69.2237,-2837.46,0,0
43321.575,68.666,-2820.6,0,0
43581.9,68.2104,-2803.4,0,0
43842.225,67.7317,-2785.52,0,0
44102.55,68.1034,-2768.44,0,0
44362.875,68.7347,-2751.69,0,0
44623.2,69.0915,-2736.59,0,0
44883.525,68.6102,-2720.56,0,0
45143.85,68.8583,-2704.77,0,0
45404.175,69.5584,-2689.78,0,0
45664.5,68.1542,-2674.68,0,0
45924.825,67.015,-2659.33,0,0
46185.15,66.5611,-2644.51,0,0
46445.475,67.3443,-2629.11,0,0
46705.8,65.0716,-2613.99,0,0
46966.125,64.6957,-2598.84,0,0
47226.45,65.0497,-2584.07,0,0
47486.775,64.394,-2570.32,0,0
47747.1,63.8395,-2556.09,0,0
48007.425,63.2872,-2541.83,0,0
48267.75,63.2683,-2527.63,0,0
48528.075,62.5154,-2514.39,0,0
48788.4,61.741,-2500,0,0
49048.725,63.0278,-2486.08,0,0
49309.05,61.376,-2472.65,0,0
49569.375,61.2855,-2459.28,0,0
49829.7,61.808,-2446.1,0,0
50090.025,61.1517,-2433.08,0,0
50350.35,59.7999,-2419.87,0,0
50610.675,59.536,-2406.68,0,0
50871.0,59.3656,-2393.89,0,0
51131.325,59.2642,-2381.29,0,0
51391.65,59.1935,-2368.92,0,0
51651.975,58.7044,-2356.84,0,0
51912.3,58.5581,-2344.23,0,0
52172.625,58.3195,-2332.17,0,0
52432.95,57.9571,-2320.04,0,0
52693.275,57.7407,-2307.97,0,0
52953.6,57.9129,-2295.96,0,0
53213.925,57.8747,-2284.54,0,0
53474.25,57.5339,-2273.09,0,0
53734.575,57.5031,-2261.55,0,0
53994.9,57.414,-2250.54,0,0
54255.225,56.8225,-2239.49,0,0
54515.55,56.653,-2228.24,0,0
54775.875,56.2207,-2217.16,0,0
55036.2,56.6842,-2205.95,0,0
55296.525,56.487,-2195.09,0,0
55556.85,56.5525,-2184.63,0,0
55817.175,56.3321,-2173.99,0,0
56077.5,56.2945,-2163.24,0,0
56337.825,56.0427,-2152.61,0,0
56598.15,55.9938,-2142.25,0,0
56858.475,55.5416,-2132,0,0
57118.8,54.821,-2121.53,0,0
57379.125,55.435,-2111.35,0,0
57639.45,55.7687,-2101.58,0,0
57899.775,55.5335,-2091.64,0,0
58160.1,55.3427,-2081.63,0,0
58420.4,55.6983,-2071.93,0,0
58680.7,55.6638,-2062.13,0,0
58941.1,54.9552,-2052.49,0,0
59201.4,55.2601,-2043.01,0,0
59461.7,55.5076,-2034.07,0,0
59722,55.5085,-2024.57,0,0
59982.4,57.2927,-2015.43,0,0
60242.7,54.9334,-2006.08,0,0
60503,55.4585,-1996.92,0,0
60763.3,55.7783,-1988.52,0,0
61023.7,56.7922,-1979.61,0,0
61284,55.1527,-1970.5,0,0
61544.3,55.1023,-1961.6,0,0
61804.6,54.8498,-1953.12,0,0
62065,54.0919,-1944.66,0,0
62325.3,54.1924,-1935.58,0,0
62585.6,54.2014,-1926.86,0,0
62845.9,53.4484,-1918.22,0,0
63106.3,53.8451,-1909.71,0,0
63366.6,53.5493,-1901.16,0,0
63626.9,53.893,-1892.78,0,0
63887.2,53.9468,-1884.41,0,0
64147.6,54.1516,-1875.98,0,0
64407.9,54.2404,-1867.75,0,0
64668.2,54.5491,-1859.52,0,0
64928.5,55.1232,-1851.24,0,0
65188.9,55.7914,-1843.2,0,0
65449.2,56.0952,-1835.82,0,0
65709.5,56.3151,-1829.05,0,0
65969.8,56.5627,-1822.04,0,0
66230.2,56.11,-1814.6,0,0
66490.5,56.1337,-1807.19,0,0
66750.8,56.0357,-1800.24,0,0
67011.1,54.6876,-1793.2,0,0
67271.5,54.4465,-1785.04,0,0
67531.8,55.6377,-1777.81,0,0
67792.1,55.3481,-1771.38,0,0
68052.4,55.0922,-1764.67,0,0
68312.8,54.202,-1757.48,0,0
68573.1,53.9198,-1750.02,0,0
68833.4,54.0893,-1743.07,0,0
69093.7,54.0721,-1736.55,0,0
69354.1,54.0509,-1729.78,0,0
69614.4,53.1061,-1723.31,0,0
69874.7,52.8325,-1716.32,0,0
70135,52.4903,-1709.63,0,0
70395.4,52.2138,-1702.6,0,0
70655.7,51.747,-1695.82,0,0
70916,51.5082,-1688.86,0,0
71176.3,51.4437,-1682.13,0,0
71436.7,50.9899,-1675.68,0,0
71697,50.7705,-1668.99,0,0
71957.3,50.1977,-1662.11,0,0
72217.6,49.677,-1655.26,0,0
72478,49.7857,-1648.58,0,0
72738.3,49.2445,-1641.64,0,0
72998.6,49.1512,-1634.95,0,0
73258.9,48.7158,-1628.33,0,0
73519.3,48.6778,-1621.71,0,0
73779.6,48.5647,-1615.06,0,0
74039.9,48.7117,-1608.56,0,0
74300.225,49.0107,-1602.05,0,0
74560.55,48.6064,-1595.52,0,0
74820.875,49.3812,-1589.48,0,0
75081.2,49.2696,-1583.27,0,0
75341.525,48.9011,-1576.86,0,0
75601.85,49.1165,-1570.36,0,0
75862.175,49.5624,-1564.09,0,0
76122.5,50.2509,-1558.14,0,0
76382.825,50.4063,-1552.42,0,0
76643.15,50.355,-1546.51,0,0
76903.475,50.3463,-1540.37,0,0
77163.8,50.6928,-1534.65,0,0
77424.125,51.0601,-1528.83,0,0
77684.45,50.9707,-1522.88,0,0
77944.775,51.3519,-1516.97,0,0
78205.1,51.9256,-1511.23,0,0
78465.425,52.5709,-1505.93,0,0
78725.75,52.3511,-1500.76,0,0
78986.075,52.7402,-1495.73,0,0
79246.4,52.328,-1490.29,0,0
79506.725,52.4264,-1485.18,0,0
79767.05,51.9477,-1479.96,0,0
80027.375,51.8927,-1474.61,0,0
80287.7,51.614,-1469.09,0,0
80548.025,51.3797,-1463.43,0,0
80808.35,51.3405,-1458,0,0
81068.675,51.3374,-1452.52,0,0
81329.0,51.4003,-1447.08,0,0
81589.325,51.4347,-1441.76,0,0
81849.65,51.3693,-1436.34,0,0
82109.975,51.5088,-1430.99,0,0
82370.3,51.6591,-1425.63,0,0
82630.625,51.6356,-1420.18,0,0
82890.95,51.7612,-1414.6,0,0
83151.275,52.2375,-1409.3,0,0
83411.6,52.6578,-1404.07,0,0
83671.925,53.183,-1398.91,0,0
83932.25,53.5953,-1393.77,0,0
84192.575,53.8562,-1388.87,0,0
84452.9,54.1646,-1383.85,0,0
84713.225,54.5999,-1378.95,0,0
84973.55,54.9644,-1374.1,0,0
85233.875,55.3963,-1369.59,0,0
85494.2,55.6014,-1364.87,0,0
85754.525,55.7611,-1360.11,0,0
86014.85,56.0007,-1355.27,0,0
86275.175,56.4695,-1350.62,0,0
86535.5,56.585,-1346.05,0,0
86795.825,56.7471,-1341.33,0,0
87056.15,57.2856,-1336.75,0,0
87316.475,57.3846,-1332.53,0,0
87576.8,57.2136,-1328.09,0,0
87837.125,57.1241,-1323.2,0,0
88097.45,57.2585,-1318.47,0,0
88357.775,57.4814,-1313.61,0,0
88618.1,57.734,-1308.84,0,0
88878.425,57.9258,-1304.15,0,0
89138.75,57.9955,-1299.21,0,0
89399.075,58.5358,-1294.24,0,0
89659.4,59.1197,-1289.26,0,0
89919.725,59.9897,-1284.29,0,0
90180,61.158,-1279.86,0,0
90440.4,61.7891,-1275.54,0,0
90700.7,62.5526,-1270.77,0,0
90961,63.5639,-1266.1,0,0
91221.3,65.0962,-1261.69,0,0
91481.7,66.5419,-1257.62,0,0
91742,67.6466,-1253.97,0,0
92002.3,68.9158,-1250.26,0,0
92262.6,70.0261,-1246.49,0,0
92523,71.6398,-1242.86,0,0
92783.3,73.0914,-1239.75,0,0
93043.6,74.5322,-1236.58,0,0
93303.9,76.4182,-1234.04,0,0
93564.3,78.1991,-1232.56,0,0
93824.6,78.5933,-1231.99,0,0
94084.9,77.6405,-1231.22,0,0
94345.2,75.5067,-1229.23,0,0
94605.6,74.1598,-1225.92,0,0
94865.9,72.93,-1223.64,0,0
95126.2,70.9273,-1220.33,0,0
95386.5,69.3274,-1216.48,0,0
95646.9,67.8414,-1212.27,0,0
95907.2,66.9033,-1207.72,0,0
96167.5,66.6168,-1203.47,0,0
96427.8,66.1724,-1199.69,0,0
96688.2,65.1707,-1195.78,0,0
96948.5,64.4789,-1191.32,0,0
97208.8,64.089,-1186.72,0,0
97469.1,64.1319,-1182.42,0,0
97729.5,64.1325,-1178.31,0,0
97989.8,64.2452,-1174.41,0,0
98250.1,64.0785,-1170.65,0,0
98510.4,63.6593,-1166.68,0,0
98770.8,63.5667,-1162.56,0,0
99031.1,63.4792,-1158.44,0,0
99291.4,63.4644,-1154.4,0,0
99551.7,63.4522,-1150.27,0,0
99812.1,63.713,-1146.23,0,0
100072,63.8838,-1142.51,0,0
100333,63.8989,-1138.53,0,0
100593,64.0474,-1134.73,0,0
100853,64.0166,-1130.99,0,0
101114,63.8702,-1127.21,0,0
101374,63.6377,-1123.38,0,0
101634,63.1679,-1119.21,0,0
101895,62.8249,-1114.48,0,0
102155,63.1556,-1109.67,0,0
102415,63.8042,-1104.9,0,0
102676,64.7714,-1100.48,0,0
102936,65.7358,-1096.27,0,0
103196,66.6224,-1092.28,0,0
103457,67.3951,-1088.15,0,0
103717,68.4267,-1083.77,0,0
103977,70.0443,-1079.53,0,0
104238,71.8143,-1075.91,0,0
104498,73.3405,-1072.69,0,0
104758,74.523,-1069.41,0,0
105019,75.6923,-1066.06,0,0
105279,77.0202,-1062.72,0,0
105539,78.5603,-1059.45,0,0
105800,80.1835,-1056.48,0,0
106060,81.5606,-1053.67,0,0
106320.175,82.9871,-1050.91,0,0
106580.5,84.542,-1048.24,0,0
106840.825,86.0255,-1045.96,0,0
107101.15,87.2928,-1043.88,0,0
107361.475,88.2623,-1041.84,0,0
107621.8,89.1197,-1039.61,0,0
107882.125,89.9848,-1037.25,0,0
108142.45,91.1456,-1035.1,0,0
108402.775,92.0801,-1033.1,0,0
108663.1,93.1091,-1031.3,0,0
108923.425,93.848,-1029.75,0,0
109183.75,94.2861,-1028.17,0,0
109444.075,94.5774,-1026.61,0,0
109704.4,94.6934,-1025.03,0,0
109964.725,94.606,-1023.38,0,0
110225.05,94.5401,-1021.37,0,0
110485.375,94.3316,-1019.47,0,0
110745.7,93.7938,-1017.46,0,0
111006.025,93.5737,-1014.95,0,0
111266.35,93.5441,-1012.43,0,0
111526.675,94.1092,-1010.12,0,0
111787.0,94.0569,-1008.05,0,0
112047.325,94.3073,-1005.73,0,0
112307.65,94.5432,-1003.6,0,0
112567.975,94.7466,-1001.78,0,0
112828.3,94.795,-1000.12,0,0
113088.625,94.7539,-998.219,0,0
113348.95,94.4338,-996.681,0,0
113609.275,94.0873,-995.01,0,0
113869.6,93.544,-993.368,0,0
114129.925,92.7758,-991.608,0,0
114390.25,91.911,-989.591,0,0
114650.575,91.0517,-987.547,0,0
114910.9,90.184,-985.31,0,0
115171.225,89.4849,-983.105,0,0
115431.55,88.3504,-980.996,0,0
115691.875,87.1699,-978.484,0,0
115952.2,86.0739,-975.656,0,0
116212.525,85.185,-972.824,0,0
116472.85,84.4892,-970.001,0,0
116733.175,83.6731,-967.157,0,0
116993.5,82.8298,-964.28,0,0
117253.825,82.124,-961.131,0,0
117514.15,81.5007,-958.033,0,0
117774.475,80.9276,-954.825,0,0
118034.8,80.4962,-951.539,0,0
118295.125,80.2652,-948.248,0,0
118555.45,80.1102,-945.102,0,0
118815.775,80.0701,-941.926,0,0
119076.1,80.0776,-938.764,0,0
119336.425,80.2763,-935.669,0,0
119596.75,80.3908,-932.694,0,0
119857.075,80.3991,-929.818,0,0
120117.4,80.6766,-926.878,0,0
120377.725,81.1028,-924.123,0,0
120638.05,81.387,-921.66,0,0
120898.375,81.5009,-919.185,0,0
121158.7,81.6825,-916.813,0,0
121419.025,81.646,-914.545,0,0
121679.35,81.2018,-912.247,0,0
121939.675,80.8015,-909.568,0,0
122200.0,80.4673,-906.988,0,0
122460,80.0219,-904.258,0,0
122721,79.6154,-901.254,0,0
122981,79.4262,-898.208,0,0
123241,79.3811,-895.186,0,0
123502,79.3613,-892.26,0,0
123762,79.3085,-889.313,0,0
124022,79.3079,-886.23,0,0
124283,79.5499,-883.241,0,0
124543,79.7232,-880.398,0,0
124803,79.8571,-877.535,0,0
125064,80.0243,-874.658,0,0
125324,80.2278,-871.714,0,0
125584,80.5376,-868.914,0,0
125845,80.7728,-866.105,0,0
126105,81.0279,-863.33,0,0
126365,81.3719,-860.535,0,0
126626,81.5633,-857.751,0,0
126886,81.7624,-854.972,0,0
127146,81.9528,-852.14,0,0
127406,82.1827,-849.229,0,0
127667,82.5094,-846.247,0,0
127927,82.9907,-843.25,0,0
128187,83.6407,-840.314,0,0
128448,84.2762,-837.583,0,0
128708,84.862,-834.867,0,0
128968,85.4468,-832.103,0,0
129229,86.064,-829.288,0,0
129489,86.7132,-826.511,0,0
129749,87.5498,-823.688,0,0
130010,88.469,-821.017,0,0
130270,89.4954,-818.48,0,0
130530,90.5497,-816.105,0,0
130791,91.5463,-813.806,0,0
131051,92.5242,-811.624,0,0
131311,93.4003,-809.622,0,0
131572,94.1595,-807.593,0,0
131832,94.8904,-805.564,0,0
132092,95.5732,-803.612,0,0
132353,96.1533,-801.627,0,0
132613,96.8032,-799.607,0,0
132873,97.3978,-797.665,0,0
133134,97.9733,-795.726,0,0
133394,98.4142,-793.81,0,0
133654,98.8856,-791.939,0,0
133915,99.1838,-790.071,0,0
134175,99.4767,-788.034,0,0
134435,99.7195,-786.003,0,0
134696,99.9954,-783.829,0,0
134956,100.359,-781.611,0,0
135216,100.884,-779.402,0,0
135477,101.358,-777.363,0,0
135737,101.755,-775.151,0,0
135997,102.26,-772.826,0,0
136258,102.922,-770.81,0,0
136518,103.568,-768.673,0,0
136778,104.254,-766.602,0,0
137039,104.868,-764.624,0,0
137299,105.636,-762.489,0,0
137559,106.607,-760.669,0,0
137819,107.441,-759.149,0,0
138080,108.14,-757.752,0,0
138340.125,108.524,-756.461,0,0
138600.45,108.655,-755.045,0,0
138860.775,108.704,-753.467,0,0
139121.1,108.781,-751.726,0,0
139381.425,108.903,-750.099,0,0
139641.75,108.864,-748.472,0,0
139902.075,108.711,-746.682,0,0
140162.4,108.475,-744.652,0,0
140422.725,108.541,-742.465,0,0
140683.05,108.631,-740.375,0,0
140943.375,108.69,-738.217,0,0
141203.7,108.878,-736.011,0,0
141464.025,109.175,-733.911,0,0
141724.35,109.397,-731.796,0,0
141984.675,109.75,-729.604,0,0
142245.0,110.181,-727.633,0,0
142505.325,110.422,-725.787,0,0
142765.65,110.554,-723.823,0,0
143025.975,110.799,-721.871,0,0
143286.3,110.8,-719.996,0,0
143546.625,110.71,-717.817,0,0
143806.95,110.74,-715.514,0,0
144067.275,110.92,-713.157,0,0
144327.6,111.223,-710.836,0,0
144587.925,111.495,-708.484,0,0
144848.25,111.899,-706.101,0,0
145108.575,112.389,-703.772,0,0
145368.9,112.964,-701.554,0,0
145629.225,113.516,-699.375,0,0
145889.55,114.032,-697.268,0,0
146149.875,114.472,-695.118,0,0
146410.2,114.994,-692.873,0,0
146670.525,115.759,-690.744,0,0
146930.85,116.404,-688.957,0,0
147191.175,116.742,-687.053,0,0
147451.5,117.169,-684.968,0,0
147711.825,117.697,-683.037,0,0
147972.15,118.117,-681.089,0,0
148232.475,118.54,-679.124,0,0
148492.8,118.92,-677.269,0,0
148753.125,119.083,-675.343,0,0
149013.45,119.37,-673.166,0,0
149273.775,119.661,-671.047,0,0
149534.1,120.088,-668.92,0,0
149794.425,120.479,-666.895,0,0
150054.75,120.836,-664.887,0,0
150315.075,121.093,-662.969,0,0
150575.4,121.209,-660.988,0,0
150835.725,121.189,-658.983,0,0
151096.05,120.977,-656.729,0,0
151356.375,120.825,-654.178,0,0
151616.7,120.835,-651.507,0,0
151877.025,120.982,-648.701,0,0
152137.35,121.186,-645.95,0,0
152397.675,121.403,-643.036,0,0
152658.0,121.707,-640.016,0,0
152918.325,122.251,-636.86,0,0
153178.65,123.052,-633.888,0,0
153438.975,123.731,-631.05,0,0
153699.3,124.143,-628.082,0,0
153959.625,124.713,-624.732,0,0
154219.95,125.503,-621.253,0,0
154480,126.624,-617.587,0,0
154741,128.145,-613.901,0,0
155001,129.983,-610.552,0,0
155261,131.809,-607.348,0,0
155522,133.705,-604.173,0,0
155782,135.842,-601.026,0,0
156042,138.085,-598.064,0,0
156303,140.367,-595.293,0,0
156563,142.742,-592.488,0,0
156823,145.33,-589.813,0,0
157084,148.068,-587.396,0,0
157344,150.832,-585.292,0,0
157604,153.46,-583.433,0,0
157864,155.947,-581.683,0,0
158125,158.185,-580.071,0,0
158385,160.152,-578.193,0,0
158645,162.342,-575.938,0,0
158906,164.604,-573.813,0,0
159166,167.069,-571.549,0,0
159426,169.82,-569.418,0,0
159687,172.521,-567.327,0,0
159947,175.445,-565.019,0,0
160207,178.917,-562.751,0,0
160468,182.825,-560.967,0,0
160728,186.868,-559.718,0,0
160988,190.895,-558.972,0,0
161249,194.822,-558.736,0,0
161509,198.261,-558.737,0,0
161769,201.52,-558.719,0,0
162030,204.827,-558.821,0,0
162290,207.943,-559.238,0,0
162550,210.801,-559.681,0,0
162811,213.581,-560.083,0,0
163071,216.42,-560.472,0,0
163331,219.36,-561.217,0,0
163592,221.965,-562.325,0,0
163852,224.095,-563.441,0,0
164112,225.989,-564.194,0,0
164373,228.137,-564.594,0,0
164633,230.715,-565.198,0,0
164893,233.314,-566.164,0,0
165154,236.129,-567.406,0,0
165414,238.864,-569.315,0,0
165674,241.124,-571.679,0,0
165935,242.929,-574.245,0,0
166195,244.237,-576.973,0,0
166455,245.093,-579.643,0,0
166716,245.575,-582.302,0,0
166976,245.625,-584.841,0,0
167236,245.382,-587.095,0,0
167497,245.089,-589.203,0,0
167757,244.641,-591.385,0,0
168017,243.761,-593.555,0,0
168277,242.414,-595.391,0,0
168538,240.98,-596.886,0,0
168798,239.407,-598.145,0,0
169058,237.813,-599.205,0,0
169319,235.941,-600.169,0,0
169579,233.664,-600.66,0,0
169839,231.561,-600.452,0,0
170100,229.701,-600.028,0,0
170360.075,228.109,-599.387,0,0
170620.4,226.772,-598.556,0,0
170880.725,225.663,-597.656,0,0
171141.05,224.742,-597.026,0,0
171401.375,223.76,-596.448,0,0
171661.7,222.697,-595.949,0,0
171922.025,221.325,-595.31,0,0
172182.35,219.937,-594.265,0,0
172442.675,218.796,-592.999,0,0
172703.0,217.808,-591.694,0,0
172963.325,216.913,-590.35,0,0
173223.65,216.074,-588.956,0,0
173483.975,215.244,-587.39,0,0
173744.3,214.651,-585.536,0,0
174004.625,214.498,-583.658,0,0
174264.95,214.68,-582.012,0,0
174525.275,214.889,-580.638,0,0
174785.6,215.192,-579.285,0,0
175045.925,215.638,-578.259,0,0
175306.25,216.021,-577.545,0,0
175566.575,216.071,-577.058,0,0
175826.9,215.88,-576.35,0,0
176087.225,215.651,-575.465,0,0
176347.55,215.696,-574.57,0,0
176607.875,215.753,-573.963,0,0
176868.2,215.568,-573.56,0,0
177128.525,214.974,-572.988,0,0
177388.85,214.436,-571.987,0,0
177649.175,214.254,-570.989,0,0
177909.5,214.147,-570.24,0,0
178169.825,213.854,-569.571,0,0
178430.15,213.587,-568.899,0,0
178690.475,213.259,-568.388,0,0
178950.8,212.698,-567.954,0,0
179211.125,211.941,-567.467,0,0
179471.45,211.1,-566.79,0,0
179731.775,210.446,-566.181,0,0
179992.1,209.367,-565.88,0,0
180252.425,207.74,-565.317,0,0
180512.75,206.073,-564.164,0,0
180773.075,204.601,-562.763,0,0
181033.4,203.209,-561.325,0,0
181293.725,201.742,-559.751,0,0
181554.05,200.38,-558.047,0,0
181814.375,198.997,-556.373,0,0
182074.7,197.461,-554.577,0,0
182335.025,195.784,-552.503,0,0
182595.35,194.139,-550.037,0,0
182855.675,192.731,-547.235,0,0
183116.0,191.597,-544.344,0,0
183376.325,190.674,-541.35,0,0
183636.65,189.886,-538.324,0,0
183896.975,189.304,-535.222,0,0
184157.3,188.919,-532.148,0,0
184417.625,188.598,-529.118,0,0
184677.95,188.354,-526.031,0,0
184938.275,188.234,-522.971,0,0
185198.6,188.236,-519.881,0,0
185458.925,188.363,-516.892,0,0
185719.25,188.487,-513.807,0,0
185979.575,188.74,-510.773,0,0
186239.9,189.046,-507.803,0,0
186500,189.304,-504.815,0,0
186761,189.636,-501.716,0,0
187021,190.186,-498.595,0,0
187281,190.958,-495.588,0,0
187542,191.544,-492.668,0,0
187802,192.055,-489.926,0,0
188062,192.404,-487.019,0,0
188322,192.856,-483.811,0,0
188583,193.493,-480.537,0,0
188843,194.246,-477.144,0,0
189103,195.143,-473.7,0,0
189364,196.315,-470.299,0,0
189624,197.662,-467.031,0,0
189884,199.1,-464.139,0,0
190145,200.434,-461.163,0,0
190405,201.654,-458.107,0,0
190665,202.998,-455.067,0,0
190926,204.405,-452.08,0,0
191186,205.805,-449.125,0,0
191446,207.011,-446.121,0,0
191707,208.364,-442.877,0,0
191967,210.001,-439.737,0,0
192227,211.546,-436.789,0,0
192488,212.962,-433.74,0,0
192748,214.232,-430.503,0,0
193008,215.62,-427.021,0,0
193269,217.263,-423.357,0,0
193529,219.222,-419.644,0,0
193789,221.254,-416.071,0,0
194050,223.316,-412.574,0,0
194310,225.374,-408.92,0,0
194570,227.559,-405.156,0,0
194831,229.951,-401.208,0,0
195091,232.677,-397.295,0,0
195351,235.606,-393.5,0,0
195612,238.635,-389.747,0,0
195872,241.705,-386.054,0,0
196132,244.955,-382.235,0,0
196393,248.431,-378.349,0,0
196653,252.116,-374.489,0,0
196913,256.212,-370.557,0,0
197174,260.592,-367.095,0,0
197434,264.996,-363.905,0,0
197694,269.363,-360.903,0,0
197955,273.796,-358.037,0,0
198215,278.181,-355.216,0,0
198475,282.472,-352.406,0,0
198735,286.813,-349.458,0,0
198996,291.292,-346.341,0,0
199256,296.024,-343.32,0,0
199516,300.813,-340.307,0,0
199777,305.659,-337.27,0,0
200037,310.773,-333.914,0,0
200297,316.407,-330.494,0,0
200558,322.457,-327.215,0,0
200818,328.846,-324.124,0,0
201078,335.655,-321.291,0,0
201339,342.754,-318.778,0,0
201599,350.059,-316.529,0,0
201859,357.435,-314.464,0,0
202120,365.191,-312.52,0,0
202380.025,373.387,-310.913,0,0
202640.35,381.871,-309.848,0,0
202900.675,390.424,-309.1,0,0
203161.0,399.234,-308.698,0,0
203421.325,408.275,-308.632,0,0
203681.65,417.525,-308.977,0,0
203941.975,427.28,-309.667,0,0
204202.3,437.48,-311.269,0,0
204462.625,447.884,-313.92,0,0
204722.95,458.07,-317.643,0,0
204983.275,467.812,-322.305,0,0
205243.6,477.075,-327.666,0,0
205503.925,485.725,-333.814,0,0
205764.25,493.579,-340.328,0,0
206024.575,500.824,-347.155,0,0
206284.9,507.564,-354.117,0,0
206545.225,513.865,-361.51,0,0
206805.55,519.738,-369.494,0,0
207065.875,524.592,-377.798,0,0
207326.2,528.477,-386.169,0,0
207586.525,531.386,-394.204,0,0
207846.85,533.907,-401.727,0,0
208107.175,536.269,-409.134,0,0
208367.5,538.236,-416.621,0,0
208627.825,539.637,-424.134,0,0
208888.15,540.32,-431.564,0,0
209148.475,540.151,-438.664,0,0
209408.8,539.524,-444.972,0,0
209669.125,538.591,-450.767,0,0
209929.45,537.492,-456.224,0,0
210189.775,536.047,-461.164,0,0
210450.1,534.458,-465.469,0,0
210710.425,532.648,-469.303,0,0
210970.75,530.577,-472.393,0,0
211231.075,528.701,-474.541,0,0
211491.4,527.288,-476.13,0,0
211751.725,526.132,-477.124,0,0
212012.05,525.517,-477.346,0,0
212272.375,525.925,-477.239,0,0
212532.7,527.326,-477.2,0,0
212793.025,529.507,-477.742,0,0
213053.35,531.802,-478.875,0,0
213313.675,533.984,-480.205,0,0
213574.0,536.384,-481.431,0,0
213834.325,539.141,-482.815,0,0
214094.65,542.243,-484.488,0,0
214354.975,545.747,-486.547,0,0
214615.3,549.132,-489.395,0,0
214875.625,552.058,-492.655,0,0
215135.95,554.723,-495.902,0,0
215396.275,557.154,-499.145,0,0
215656.6,559.305,-502.536,0,0
215916.925,561.075,-505.716,0,0
216177.25,562.652,-508.362,0,0
216437.575,564.644,-510.311,0,0
216697.9,567.311,-512.025,0,0
216958.225,570.765,-513.961,0,0
217218.55,574.733,-516.558,0,0
217478.875,578.754,-519.747,0,0
217739.2,582.619,-523.329,0,0
217999.525,586.313,-527.149,0,0
218259.85,589.878,-530.977,0,0
218520,593.561,-534.721,0,0
218780,597.573,-538.578,0,0
219041,602.056,-542.804,0,0
219301,606.685,-547.498,0,0
219561,611.412,-552.681,0,0
219822,616.095,-558.565,0,0
220082,620.544,-564.779,0,0
220342,625.029,-571.294,0,0
220603,629.535,-578.355,0,0
220863,634.007,-586.075,0,0
221123,638.108,-594.53,0,0
221384,641.642,-603.49,0,0
221644,644.744,-612.752,0,0
221904,647.562,-622.295,0,0
222165,650.007,-632.464,0,0
222425,651.855,-643.058,0,0
222685,653.021,-653.832,0,0
222946,653.543,-664.897,0,0
223206,653.538,-676.209,0,0
223466,652.898,-687.779,0,0
223727,651.361,-699.586,0,0
223987,649.053,-711.148,0,0
224247,645.899,-722.631,0,0
224508,642.273,-733.681,0,0
224768,638.215,-744.666,0,0
225028,633.776,-755.959,0,0
225289,628.325,-766.777,0,0
225549,621.927,-777.274,0,0
225809,615.112,-787.339,0,0
226070,607.889,-796.862,0,0
226330,600.334,-806.05,0,0
226590,592.257,-814.808,0,0
226851,583.425,-823.237,0,0
227111,574.154,-830.74,0,0
227371,564.697,-837.43,0,0
227632,555.343,-843.61,0,0
227892,545.817,-849.353,0,0
228152,535.983,-854.631,0,0
228413,526.12,-859.098,0,0
228673,516.269,-863.111,0,0
228933,506.369,-866.57,0,0
229193,496.553,-869.58,0,0
229454,486.72,-872.015,0,0
229714,476.927,-874.056,0,0
229974,467.315,-875.272,0,0
230235,457.96,-876.146,0,0
230495,448.924,-876.339,0,0
230755,440.237,-876.366,0,0
231016,431.855,-876.029,0,0
231276,423.803,-875.444,0,0
231536,416.147,-874.547,0,0
231797,408.786,-873.512,0,0
232057,401.911,-872.371,0,0
232317,395.223,-871.36,0,0
232578,388.588,-870.337,0,0
232838,382.086,-869.231,0,0
233098,375.791,-868.019,0,0
233359,369.542,-866.563,0,0
233619,363.658,-864.981,0,0
233879,358.052,-863.492,0,0
234140,352.516,-862.049,0,0
234400,347.047,-860.568,0,0
234660.3,341.733,-858.986,0,0
234920.625,336.426,-857.454,0,0
235180.95,331.225,-855.915,0,0
235441.275,326.133,-854.227,0,0
235701.6,321.071,-852.431,0,0
235961.925,316.121,-850.564,0,0
236222.25,311.453,-848.562,0,0
236482.575,307.014,-846.492,0,0
236742.9,302.76,-844.485,0,0
237003.225,298.615,-842.709,0,0
237263.55,294.46,-841.035,0,0
237523.875,290.298,-839.307,0,0
237784.2,286.19,-837.7,0,0
238044.525,282.021,-836.032,0,0
238304.85,277.79,-834.393,0,0
238565.175,273.577,-832.699,0,0
238825.5,269.11,-830.806,0,0
239085.825,264.812,-828.721,0,0
239346.15,260.52,-826.526,0,0
239606.475,256.271,-824.13,0,0
239866.8,252.202,-821.714,0,0
240127.125,248.443,-818.864,0,0
240387.45,244.648,-816.135,0,0
240647.775,241.274,-813.397,0,0
240908.1,237.935,-810.761,0,0
241168.425,234.75,-807.991,0,0
241428.75,231.646,-805.275,0,0
241689.075,228.737,-802.557,0,0
241949.4,226.012,-799.802,0,0
242209.725,223.076,-797.17,0,0
242470.05,220.459,-794.515,0,0
242730.375,217.94,-791.973,0,0
242990.7,215.569,-789.421,0,0
243251.025,213.181,-786.901,0,0
243511.35,210.871,-784.698,0,0
243771.675,208.587,-782.282,0,0
244032.0,206.206,-779.938,0,0
244292.325,203.875,-777.68,0,0
244552.65,201.524,-775.667,0,0
244812.975,198.973,-773.33,0,0
245073.3,196.557,-770.969,0,0
245333.625,194.291,-768.577,0,0
245593.95,192.153,-766.153,0,0
245854.275,189.782,-763.697,0,0
246114.6,187.601,-761.207,0,0
246374.925,185.49,-758.692,0,0
246635.25,183.366,-756.127,0,0
246895.575,181.338,-753.549,0,0
247155.9,179.476,-751.004,0,0
247416.225,177.541,-748.458,0,0
247676.55,175.709,-745.9,0,0
247936.875,174.018,-743.325,0,0
248197.2,172.298,-740.819,0,0
248457.525,170.638,-738.281,0,0
248717.85,169.02,-735.716,0,0
248978.175,167.422,-733.17,0,0
249238.5,165.963,-730.722,0,0
249498.825,164.493,-728.172,0,0
249759.15,163.001,-725.55,0,0
250019.475,161.655,-723.079,0,0
250279.8,160.392,-720.511,0,0
250540,159.103,-718.065,0,0
250800,157.719,-715.539,0,0
251061,156.534,-712.99,0,0
251321,155.414,-710.554,0,0
251581,154.27,-708.008,0,0
251842,153.122,-705.631,0,0
252102,152.085,-703.098,0,0
252362,151.106,-700.56,0,0
252623,150.091,-698.096,0,0
252883,149.092,-695.609,0,0
253143,148.113,-693.115,0,0
253404,147.175,-690.57,0,0
253664,146.269,-687.907,0,0
253924,145.54,-685.247,0,0
254185,144.861,-682.547,0,0
254445,144.273,-679.953,0,0
254705,143.819,-677.35,0,0
254966,143.445,-674.732,0,0
255226,143.094,-672.217,0,0
255486,142.84,-669.776,0,0
255747,142.559,-667.344,0,0
256007,142.352,-664.924,0,0
256267,142.132,-662.558,0,0
256528,141.974,-660.167,0,0
256788,141.872,-657.79,0,0
257048,141.863,-655.4,0,0
257309,141.856,-653.105,0,0
257569,141.895,-650.761,0,0
257829,142.014,-648.451,0,0
258090,142.173,-646.178,0,0
258350,142.443,-643.929,0,0
258610,142.714,-641.686,0,0
258871,143.075,-639.42,0,0
259131,143.559,-637.226,0,0
259391,144.1,-635.07,0,0
259651,144.774,-632.991,0,0
259912,145.463,-631.018,0,0
260172,146.237,-629.074,0,0
260432,147.029,-627.228,0,0
260693,147.898,-625.455,0,0
260953,148.851,-623.76,0,0
261213,149.849,-622.167,0,0
261474,150.896,-620.733,0,0
261734,151.896,-619.326,0,0
261994,152.897,-618.055,0,0
262255,153.88,-616.805,0,0
262515,154.907,-615.549,0,0
262775,155.991,-614.377,0,0
263036,157.164,-613.301,0,0
263296,158.44,-612.331,0,0
263556,159.725,-611.477,0,0
263817,161.069,-610.749,0,0
264077,162.456,-610.257,0,0
264337,163.808,-609.952,0,0
264598,165.179,-609.792,0,0
264858,166.406,-609.887,0,0
265118,167.583,-610.117,0,0
265379,168.686,-610.59,0,0
265639,169.573,-611.107,0,0
265899,170.305,-611.774,0,0
266160,170.916,-612.604,0,0
266420,171.423,-613.56,0,0
266680.25,171.651,-614.574,0,0
266940.575,171.616,-615.777,0,0
267200.9,171.295,-616.996,0,0
267461.225,170.674,-618.181,0,0
267721.55,169.705,-619.205,0,0
267981.875,168.531,-620.22,0,0
268242.2,167.133,-620.936,0,0
268502.525,165.572,-621.491,0,0
268762.85,163.896,-621.832,0,0
269023.175,162.104,-621.909,0,0
269283.5,160.217,-621.772,0,0
269543.825,158.335,-621.381,0,0
269804.15,156.432,-620.736,0,0
270064.475,154.697,-619.898,0,0
270324.8,153.023,-618.844,0,0
270585.125,151.436,-617.712,0,0
270845.45,149.911,-616.407,0,0
271105.775,148.539,-614.99,0,0
271366.1,147.264,-613.466,0,0
271626.425,146.131,-611.791,0,0
271886.75,145.202,-610.111,0,0
272147.075,144.394,-608.348,0,0
272407.4,143.735,-606.64,0,0
272667.725,143.194,-604.893,0,0
272928.05,142.772,-603.188,0,0
273188.375,142.479,-601.504,0,0
273448.7,142.329,-599.849,0,0
273709.025,142.209,-598.271,0,0
273969.35,142.218,-596.739,0,0
274229.675,142.27,-595.244,0,0
274490.0,142.367,-593.81,0,0
274750.325,142.577,-592.487,0,0
275010.65,142.769,-591.163,0,0
275270.975,143.034,-589.98,0,0
275531.3,143.283,-588.864,0,0
275791.625,143.509,-587.724,0,0
276051.95,143.779,-586.604,0,0
276312.275,144.168,-585.488,0,0
276572.6,144.638,-584.454,0,0
276832.925,145.166,-583.542,0,0
277093.25,145.737,-582.77,0,0
277353.575,146.227,-582.119,0,0
277613.9,146.701,-581.561,0,0
277874.225,147.1,-581.057,0,0
278134.55,147.467,-580.552,0,0
278394.875,147.893,-580.058,0,0
278655.2,148.369,-579.702,0,0
278915.525,148.825,-579.507,0,0
279175.85,149.177,-579.435,0,0
279436.175,149.43,-579.448,0,0
279696.5,149.477,-579.538,0,0
279956.825,149.438,-579.652,0,0
280217.15,149.296,-579.706,0,0
280477.475,149.043,-579.779,0,0
280737.8,148.696,-579.795,0,0
280998.125,148.272,-579.804,0,0
281258.45,147.802,-579.7,0,0
281518.775,147.325,-579.576,0,0
281779.1,146.795,-579.441,0,0
282039.425,146.216,-579.319,0,0
282299.75,145.585,-579.181,0,0
282560,144.827,-578.996,0,0
282820,143.979,-578.714,0,0
283081,143.095,-578.31,0,0
283341,142.242,-577.797,0,0
283601,141.427,-577.202,0,0
283862,140.665,-576.556,0,0
284122,139.955,-575.954,0,0
284382,139.181,-575.355,0,0
284643,138.415,-574.767,0,0
284903,137.549,-574.138,0,0
285163,136.65,-573.439,0,0
285424,135.727,-572.646,0,0
285684,134.736,-571.815,0,0
285944,133.775,-570.881,0,0
286205,132.805,-569.833,0,0
286465,131.833,-568.719,0,0
286725,130.863,-567.457,0,0
286986,129.903,-566.079,0,0
287246,129.024,-564.548,0,0
287506,128.241,-562.872,0,0
287767,127.638,-561.118,0,0
288027,127.154,-559.262,0,0
288287,126.873,-557.327,0,0
288548,126.836,-555.355,0,0
288808,127.017,-553.484,0,0
289068,127.392,-551.746,0,0
289329,127.857,-550.22,0,0
289589,128.382,-548.797,0,0
289849,128.882,-547.497,0,0
290109,129.468,-546.318,0,0
290370,129.99,-545.283,0,0
290630,130.435,-544.356,0,0
290890,130.848,-543.447,0,0
291151,131.178,-542.542,0,0
291411,131.521,-541.658,0,0
291671,131.85,-540.781,0,0
291932,132.148,-539.973,0,0
292192,132.38,-539.191,0,0
292452,132.568,-538.374,0,0
292713,132.71,-537.53,0,0
292973,132.924,-536.642,0,0
293233,133.049,-535.793,0,0
293494,133.121,-534.907,0,0
293754,133.177,-533.918,0,0
294014,133.228,-532.851,0,0
294275,133.335,-531.716,0,0
294535,133.471,-530.497,0,0
294795,133.669,-529.182,0,0
295056,133.956,-527.797,0,0
295316,134.424,-526.368,0,0
295576,135.024,-524.905,0,0
295837,135.805,-523.482,0,0
296097,136.744,-522.143,0,0
296357,137.802,-520.933,0,0
296618,138.935,-519.872,0,0
296878,140.07,-518.935,0,0
297138,141.196,-518.082,0,0
297399,142.322,-517.306,0,0
297659,143.469,-516.581,0,0
297919,144.627,-515.912,0,0
298180,145.773,-515.304,0,0
298440,146.929,-514.729,0,0
298700.2,148.139,-514.225,0,0
298960.525,149.38,-513.672,0,0
299220.85,150.705,-513.291,0,0
299481.175,151.995,-513.057,0,0
299741.5,153.364,-512.88,0,0
300001.825,154.564,-512.797,0,0
300262.15,155.73,-512.751,0,0
300522.475,156.837,-512.661,0,0
300782.8,158.04,-512.599,0,0
301043.125,159.211,-512.565,0,0
301303.45,160.441,-512.582,0,0
301563.775,161.758,-512.732,0,0
301824.1,163.106,-512.97,0,0
302084.425,164.419,-513.283,0,0
302344.75,165.695,-513.752,0,0
302605.075,166.985,-514.306,0,0
302865.4,168.139,-514.944,0,0
303125.725,169.305,-515.627,0,0
303386.05,170.398,-516.46,0,0
303646.375,171.433,-517.378,0,0
303906.7,172.336,-518.497,0,0
304167.025,173.192,-519.532,0,0
304427.35,173.771,-520.636,0,0
304687.675,174.345,-521.587,0,0
304948.0,174.895,-522.525,0,0
305208.325,175.407,-523.443,0,0
305468.65,176.031,-524.494,0,0
305728.975,176.53,-525.555,0,0
305989.3,177.092,-526.62,0,0
306249.625,177.548,-527.715,0,0
306509.95,177.946,-528.909,0,0
306770.275,178.418,-530.193,0,0
307030.6,178.651,-531.497,0,0
307290.925,178.911,-532.996,0,0
307551.25,179.037,-534.378,0,0
307811.575,179.125,-535.797,0,0
308071.9,179.063,-537.313,0,0
308332.225,178.939,-538.9,0,0
308592.55,178.637,-540.435,0,0
308852.875,178.26,-541.941,0,0
309113.2,177.793,-543.451,0,0
309373.525,177.331,-544.889,0,0
309633.85,176.619,-546.286,0,0
309894.175,175.964,-547.709,0,0
310154.5,175.248,-549.026,0,0
310414.825,174.415,-550.457,0,0
310675.15,173.637,-551.857,0,0
310935.475,172.555,-553.214,0,0
311195.8,171.593,-554.592,0,0
311456.125,170.39,-555.933,0,0
311716.45,169.027,-557.331,0,0
311976.775,167.517,-558.489,0,0
312237.1,166.053,-559.628,0,0
312497.425,164.436,-560.509,0,0
312757.75,162.713,-561.501,0,0
313018.075,161.036,-562.139,0,0
313278.4,159.258,-562.858,0,0
313538.725,157.578,-563.322,0,0
313799.05,155.887,-563.753,0,0
314059.375,154.204,-564.1,0,0
314319.7,152.492,-564.454,0,0
314580,150.89,-564.576,0,0
314840,149.278,-564.696,0,0
315101,147.767,-564.926,0,0
315361,146.169,-565.091,0,0
315621,144.566,-565.148,0,0
315882,142.997,-565.197,0,0
316142,141.318,-565.238,0,0
316402,139.602,-565.252,0,0
316663,137.991,-565.046,0,0
316923,136.174,-564.805,0,0
317183,134.537,-564.538,0,0
317444,132.976,-564.167,0,0
317704,131.331,-563.786,0,0
317964,129.775,-563.23,0,0
318225,128.288,-562.708,0,0
318485,126.869,-562.145,0,0
318745,125.433,-561.563,0,0
319006,124.004,-561.024,0,0
319266,122.762,-560.467,0,0
319526,121.32,-559.91,0,0
319787,119.964,-559.286,0,0
320047,118.607,-558.682,0,0
320307,117.22,-557.893,0,0
320567,115.927,-557.22,0,0
320828,114.553,-556.336,0,0
321088,113.254,-555.444,0,0
321348,112.001,-554.588,0,0
321609,110.72,-553.642,0,0
321869,109.475,-552.668,0,0
322129,108.321,-551.569,0,0
322390,107.285,-550.399,0,0
322650,106.128,-549.248,0,0
322910,105.22,-548.079,0,0
323171,104.377,-546.908,0,0
323431,103.512,-545.648,0,0
323691,102.785,-544.389,0,0
323952,102.19,-543.153,0,0
324212,101.575,-541.924,0,0
324472,101.05,-540.784,0,0
324733,100.706,-539.622,0,0
324993,100.328,-538.507,0,0
325253,100.064,-537.456,0,0
325514,99.7803,-536.465,0,0
325774,99.5412,-535.557,0,0
326034,99.2848,-534.664,0,0
326295,99.1007,-533.86,0,0
326555,98.8784,-532.993,0,0
326815,98.6644,-532.182,0,0
327076,98.6291,-531.453,0,0
327336,98.428,-530.814,0,0
327596,98.2805,-530.199,0,0
327857,98.1538,-529.622,0,0
328117,97.9352,-529.08,0,0
328377,97.7752,-528.625,0,0
328638,97.5934,-528.149,0,0
328898,97.389,-527.761,0,0
329158,97.1192,-527.412,0,0
329419,96.8186,-527.013,0,0
329679,96.5202,-526.662,0,0
329939,96.2185,-526.341,0,0
330200,95.8866,-525.989,0,0
330460,95.4701,-525.795,0,0
330720.15,95.04,-525.453,0,0
330980.475,94.5875,-525.297,0,0
331240.8,94.1209,-524.984,0,0
331501.125,93.6062,-524.725,0,0
331761.45,93.036,-524.451,0,0
332021.775,92.4275,-524.193,0,0
332282.1,91.8426,-523.932,0,0
332542.425,91.1219,-523.633,0,0
332802.75,90.387,-523.317,0,0
333063.075,89.7079,-522.944,0,0
333323.4,88.9288,-522.535,0,0
333583.725,88.1752,-522.126,0,0
333844.05,87.4178,-521.717,0,0
334104.375,86.5671,-521.157,0,0
334364.7,85.7646,-520.679,0,0
334625.025,84.9107,-520.128,0,0
334885.35,84.1357,-519.525,0,0
335145.675,83.2817,-518.938,0,0
335406.0,82.497,-518.23,0,0
335666.325,81.7281,-517.528,0,0
335926.65,80.9574,-516.803,0,0
336186.975,80.2619,-516.068,0,0
336447.3,79.55,-515.29,0,0
336707.625,78.8721,-514.485,0,0
336967.95,78.1996,-513.803,0,0
337228.275,77.5683,-513.004,0,0
337488.6,76.9533,-512.27,0,0
337748.925,76.2925,-511.458,0,0
338009.25,75.6706,-510.657,0,0
338269.575,75.0624,-509.857,0,0
338529.9,74.462,-509.02,0,0
338790.225,73.8909,-508.116,0,0
339050.55,73.2557,-507.311,0,0
339310.875,72.7648,-506.435,0,0
339571.2,72.2064,-505.573,0,0
339831.525,71.7255,-504.683,0,0
340091.85,71.2427,-503.849,0,0
340352.175,70.7282,-502.979,0,0
340612.5,70.3387,-502.217,0,0
340872.825,69.8531,-501.293,0,0
341133.15,69.4365,-500.421,0,0
341393.475,69.0082,-499.627,0,0
341653.8,68.5667,-498.847,0,0
341914.125,68.1885,-498.004,0,0
342174.45,67.711,-497.227,0,0
342434.775,67.3148,-496.331,0,0
342695.1,66.9207,-495.524,0,0
342955.425,66.5006,-494.692,0,0
343215.75,66.0723,-493.93,0,0
343476.075,65.6876,-493.052,0,0
343736.4,65.1983,-492.277,0,0
343996.725,64.824,-491.405,0,0
344257.05,64.4131,-490.567,0,0
344517.375,64.0562,-489.674,0,0
344777.7,63.5904,-488.885,0,0
345038.025,63.152,-487.95,0,0
345298.35,62.7525,-487.091,0,0
345558.675,62.3757,-486.195,0,0
345819.0,61.9927,-485.281,0,0
346079.325,61.6406,-484.358,0,0
346339.65,61.3618,-483.464,0,0
346599.975,60.9858,-482.54,0,0
346860,60.68,-481.597,0,0
347121,60.335,-480.669,0,0
347381,60.0739,-479.728,0,0
347641,59.8001,-478.82,0,0
347902,59.4695,-477.86,0,0
348162,59.2343,-476.926,0,0
348422,58.954,-475.931,0,0
348683,58.7061,-474.926,0,0
348943,58.5441,-473.971,0,0
349203,58.3304,-472.991,0,0
349464,58.2127,-471.985,0,0
349724,58.0638,-471.031,0,0
349984,57.9657,-470.056,0,0
350245,57.8674,-469.08,0,0
350505,57.7564,-468.153,0,0
350765,57.7265,-467.292,0,0
351025,57.6397,-466.375,0,0
351286,57.6374,-465.482,0,0
351546,57.5482,-464.599,0,0
351806,57.521,-463.703,0,0
352067,57.4461,-462.887,0,0
352327,57.4764,-461.988,0,0
352587,57.4607,-461.133,0,0
352848,57.4232,-460.354,0,0
353108,57.4038,-459.43,0,0
353368,57.3411,-458.654,0,0
353629,57.3811,-457.808,0,0
353889,57.3625,-456.957,0,0
354149,57.3734,-456.124,0,0
354410,57.4195,-455.28,0,0
354670,57.4227,-454.447,0,0
354930,57.4686,-453.65,0,0
355191,57.5726,-452.851,0,0
355451,57.6001,-451.989,0,0
355711,57.7241,-451.288,0,0
355972,57.8126,-450.444,0,0
356232,57.8938,-449.71,0,0
356492,58.0417,-448.952,0,0
356753,58.0914,-448.251,0,0
357013,58.2213,-447.555,0,0
357273,58.3179,-446.891,0,0
357534,58.3844,-446.204,0,0
357794,58.5246,-445.574,0,0
358054,58.5337,-444.957,0,0
358315,58.6272,-444.316,0,0
358575,58.6643,-443.636,0,0
358835,58.6955,-442.982,0,0
359096,58.6718,-442.31,0,0
359356,58.7342,-441.65,0,0
359616,58.7695,-440.968,0,0
359877,58.7997,-440.221,0,0
360137,58.8745,-439.586,0,0
360397,58.9185,-438.926,0,0
360658,59.0428,-438.225,0,0
360918,59.123,-437.574,0,0
361178,59.2081,-436.956,0,0
361438,59.2389,-436.343,0,0
361699,59.3283,-435.698,0,0
361959,59.3445,-435.062,0,0
362219,59.374,-434.447,0,0
362480,59.454,-433.771,0,0
362740.1,59.476,-433.141,0,0
363000.425,59.4953,-432.484,0,0
363260.75,59.5223,-431.785,0,0
363521.075,59.5836,-431.147,0,0
363781.4,59.6435,-430.474,0,0
364041.725,59.6659,-429.814,0,0
364302.05,59.7413,-429.118,0,0
364562.375,59.8005,-428.432,0,0
364822.7,59.8489,-427.745,0,0
365083.025,59.9435,-427.039,0,0
365343.35,60.0481,-426.309,0,0
365603.675,60.1591,-425.692,0,0
365864.0,60.2904,-424.948,0,0
366124.325,60.4224,-424.321,0,0
366384.65,60.4872,-423.645,0,0
366644.975,60.5668,-422.968,0,0
366905.3,60.6701,-422.292,0,0
367165.625,60.706,-421.619,0,0
367425.95,60.7993,-420.865,0,0
367686.275,60.8593,-420.109,0,0
367946.6,60.9448,-419.282,0,0
368206.925,61.0423,-418.457,0,0
368467.25,61.2841,-417.547,0,0
368727.575,61.4984,-416.669,0,0
368987.9,61.7711,-415.753,0,0
369248.225,62.1,-414.844,0,0
369508.55,62.5528,-413.945,0,0
369768.875,63.0193,-413.157,0,0
370029.2,63.5569,-412.333,0,0
370289.525,64.1143,-411.541,0,0
370549.85,64.6827,-410.875,0,0
370810.175,65.2544,-410.234,0,0
371070.5,65.9006,-409.591,0,0
371330.825,66.5525,-408.988,0,0
371591.15,67.2033,-408.383,0,0
371851.475,67.842,-407.895,0,0
372111.8,68.5498,-407.43,0,0
372372.125,69.2477,-407.023,0,0
372632.45,69.9613,-406.705,0,0
372892.775,70.6414,-406.371,0,0
373153.1,71.3464,-406.127,0,0
373413.425,72.0083,-405.989,0,0
373673.75,72.6549,-405.826,0,0
373934.075,73.259,-405.717,0,0
374194.4,73.8198,-405.684,0,0
374454.725,74.3364,-405.68,0,0
374715.05,74.8361,-405.629,0,0
374975.375,75.2356,-405.693,0,0
375235.7,75.6225,-405.69,0,0
375496.025,75.9745,-405.653,0,0
375756.35,76.3112,-405.647,0,0
376016.675,76.6025,-405.626,0,0
376277.0,76.947,-405.619,0,0
376537.325,77.2568,-405.583,0,0
376797.65,77.5571,-405.538,0,0
377057.975,77.8854,-405.574,0,0
377318.3,78.2495,-405.504,0,0
377578.625,78.5534,-405.555,0,0
377838.95,78.793,-405.617,0,0
378099.275,79.0498,-405.738,0,0
378359.6,79.2866,-405.824,0,0
378619.925,79.4912,-405.929,0,0
378880,79.6541,-406.002,0,0
379141,79.8136,-406.094,0,0
379401,79.9268,-406.148,0,0
379661,80.0447,-406.212,0,0
379922,80.1723,-406.234,0,0
380182,80.3529,-406.242,0,0
380442,80.5593,-406.372,0,0
380703,80.7411,-406.391,0,0
380963,80.9487,-406.6,0,0
381223,81.173,-406.823,0,0
381483,81.3206,-407.09,0,0
381744,81.4408,-407.407,0,0
382004,81.4641,-407.798,0,0
382264,81.4538,-408.136,0,0
382525,81.3559,-408.563,0,0
382785,81.2111,-408.91,0,0
383045,80.925,-409.247,0,0
383306,80.6267,-409.646,0,0
383566,80.2822,-409.994,0,0
383826,79.8727,-410.262,0,0
384087,79.4088,-410.466,0,0
384347,78.9032,-410.649,0,0
384607,78.4325,-410.767,0,0
384868,77.8485,-410.858,0,0
385128,77.339,-410.908,0,0
385388,76.7765,-410.903,0,0
385649,76.1858,-410.866,0,0
385909,75.6208,-410.796,0,0
386169,75.0507,-410.715,0,0
386430,74.4274,-410.551,0,0
386690,73.8287,-410.366,0,0
386950,73.1734,-410.16,0,0
387211,72.5233,-409.878,0,0
387471,71.9436,-409.508,0,0
387731,71.3906,-409.063,0,0
387992,70.8524,-408.624,0,0
388252,70.3494,-408.158,0,0
388512,69.936,-407.658,0,0
388773,69.5412,-407.15,0,0
389033,69.1864,-406.606,0,0
389293,68.8517,-406.1,0,0
389554,68.6102,-405.57,0,0
389814,68.3959,-405.056,0,0
390074,68.1672,-404.573,0,0
390335,67.9966,-404.189,0,0
390595,67.8047,-403.755,0,0
390855,67.6387,-403.374,0,0
391116,67.4532,-403.004,0,0
391376,67.312,-402.667,0,0
391636,67.0788,-402.372,0,0
391896,66.8685,-402.036,0,0
392157,66.6301,-401.809,0,0
392417,66.351,-401.532,0,0
392677,66.0361,-401.254,0,0
392938,65.6881,-401.01,0,0
393198,65.3015,-400.716,0,0
393458,64.9272,-400.404,0,0
393719,64.4679,-400.011,0,0
393979,64.0684,-399.61,0,0
394239,63.6238,-399.193,0,0
394500,63.1919,-398.723,0,0
394760.05,62.7396,-398.246,0,0
395020.375,62.3144,-397.777,0,0
395280.7,61.9398,-397.187,0,0
395541.025,61.5264,-396.63,0,0
395801.35,61.1265,-396.062,0,0
396061.675,60.7437,-395.463,0,0
396322.0,60.3847,-394.84,0,0
396582.325,60.0756,-394.207,0,0
396842.65,59.7082,-393.547,0,0
397102.975,59.4198,-392.891,0,0
397363.3,59.1187,-392.21,0,0
397623.625,58.876,-391.559,0,0
397883.95,58.585,-390.854,0,0
398144.275,58.3697,-390.126,0,0
398404.6,58.1416,-389.4,0,0
398664.925,57.9902,-388.681,0,0
398925.25,57.7821,-387.988,0,0
399185.575,57.6301,-387.265,0,0
399445.9,57.4431,-386.585,0,0
399706.225,57.3297,-385.792,0,0
399966.55,57.1902,-385.078,0,0
400006.6,57.168,-384.978,0,0