File: Accelerated corrosion test data/2025-10-03_18-00-02/sample_8.csv
Frequency (Hz),Impedance (ohms),Phase (Radians),Temperature (C),Humidity (%)
10000.0,320.301,-10837.6,0,0
10260.325,311.648,-10566,0,0
10520.65,304.205,-10307.9,0,0
10780.975,296.835,-10062.7,0,0
11041.3,289.741,-9827.48,0,0
11301.625,283.504,-9604.9,0,0
11561.95,277.555,-9390.29,0,0
11822.275,271.825,-9186.47,0,0
12082.6,269.864,-8989.3,0,0
12342.925,265.616,-8806.01,0,0
12603.25,260.698,-8626.35,0,0
12863.575,256.226,-8458.51,0,0
13123.9,247.306,-8294.72,0,0
13384.225,241.137,-8134.41,0,0
13644.55,237.647,-7980.89,0,0
13904.875,231.525,-7833.49,0,0
14165.2,226.211,-7690.51,0,0
14425.525,221.639,-7554.04,0,0
14685.8,218.002,-7421.16,0,0
14946.175,214.184,-7293.46,0,0
15206.5,211.167,-7169.36,0,0
15466.825,207.342,-7050.55,0,0
15727.15,203.875,-6935.18,0,0
15987.5,200.551,-6823.39,0,0
16247.8,197.367,-6715.03,0,0
16508.125,194.266,-6610.17,0,0
16768.45,190.906,-6508.56,0,0
17028.775,188.095,-6409.9,0,0
17289.1,185.075,-6314,0,0
17549.425,182.485,-6220.86,0,0
17809.75,180.552,-6130.04,0,0
18070.075,178.563,-6043.31,0,0
18330.4,175.01,-5957.23,0,0
18590.725,172.863,-5873.16,0,0
18851.05,172.912,-5791.24,0,0
19111.375,171.352,-5713.44,0,0
19371.7,173.869,-5637.49,0,0
19632.025,169.344,-5565.22,0,0
19892.35,166.708,-5495.78,0,0
20152.675,163.979,-5423.76,0,0
20413.0,162.911,-5354.59,0,0
20673.3,162.457,-5287.79,0,0
20933.65,160.504,-5224.89,0,0
21193.975,158.121,-5162.2,0,0
21454.3,155.776,-5099,0,0
21714.625,154.034,-5037.61,0,0
21974.9,153.629,-4979.02,0,0
22235.275,153.87,-4920.94,0,0
22495.6,151.493,-4865.61,0,0
22755.925,149.886,-4812.36,0,0
23016.25,147.577,-4757.97,0,0
23276.6,144.103,-4706.17,0,0
23536.9,142.19,-4654.56,0,0
23797.225,140.205,-4603.54,0,0
24057.55,138.856,-4553.23,0,0
24317.875,137.187,-4504.93,0,0
24578.2,135.337,-4457.57,0,0
24838.525,133.972,-4409.74,0,0
25098.85,132.741,-4364.35,0,0
25359.175,131.03,-4319.61,0,0
25619.5,129.952,-4275.25,0,0
25879.8,128.634,-4231.11,0,0
26140.1,128.141,-4189.91,0,0
26400.5,126.633,-4148.58,0,0
26660.8,125.03,-4107.8,0,0
26921.1,124.613,-4066.92,0,0
27181.4,124.586,-4028.14,0,0
27441.8,123.498,-3989.83,0,0
27702.1,123.041,-3952.78,0,0
27962.4,120.856,-3915.89,0,0
28222.7,121.128,-3878.64,0,0
28483.1,120.06,-3843.66,0,0
28743.4,120.041,-3808.29,0,0
29003.7,119.117,-3774.57,0,0
29264,119.145,-3740.41,0,0
29524.4,118.548,-3707.49,0,0
29784.7,118.154,-3674.81,0,0
30045,118.074,-3643.49,0,0
30305.3,117.567,-3612.67,0,0
30565.7,116.639,-3582.1,0,0
30826,115.976,-3551.96,0,0
31086.3,115.029,-3522.36,0,0
31346.6,114.568,-3492.68,0,0
31607,114.161,-3463.71,0,0
31867.3,113.724,-3435.39,0,0
32127.6,113.41,-3407.73,0,0
32387.9,112.968,-3379.84,0,0
32648.3,112.98,-3352.72,0,0
32908.6,113.762,-3325.16,0,0
33168.9,113.621,-3299.87,0,0
33429.2,114.586,-3274.22,0,0
33689.6,115.731,-3250.15,0,0
33949.9,115.029,-3227.56,0,0
34210.2,114.102,-3204.01,0,0
34470.5,113.194,-3180.57,0,0
34730.9,112.53,-3157.09,0,0
34991.2,112.401,-3134.58,0,0
35251.5,111.506,-3112.93,0,0
35511.8,110.505,-3091.08,0,0
35772.2,108.936,-3069.85,0,0
36032.5,107.61,-3048.4,0,0
36292.8,106.198,-3027.02,0,0
36553.1,104.706,-3005.73,0,0
36813.5,103.462,-2984.66,0,0
37073.8,102.107,-2963.65,0,0
37334.1,100.996,-2943.27,0,0
37594.4,99.6245,-2923.04,0,0
37854.8,97.9776,-2902.86,0,0
38115.1,96.9011,-2883.19,0,0
38375.4,95.3856,-2863.23,0,0
38635.7,94.2791,-2843.71,0,0
38896.1,93.0595,-2824.53,0,0
39156.4,91.7053,-2805.3,0,0
39416.7,90.8888,-2786.04,0,0
39677,89.6657,-2767.2,0,0
39937.4,88.8014,-2748.66,0,0
40197.7,87.736,-2729.81,0,0
40458,87.5787,-2711.3,0,0
40718.3,87.4242,-2693.73,0,0
40978.7,86.567,-2676.3,0,0
41239,86.2659,-2658.94,0,0
41499.3,85.5169,-2641.59,0,0
41759.6,85.1908,-2624.51,0,0
42020,84.6765,-2608.15,0,0
42280.275,83.9925,-2591.49,0,0
42540.6,83.6847,-2574.89,0,0
42800.925,83.709,-2558.65,0,0
43061.25,83.6207,-2542.55,0,0
43321.575,83.6942,-2527.28,0,0
43581.9,83.4532,-2512.37,0,0
43842.225,82.6321,-2497.71,0,0
44102.55,82.0332,-2482.62,0,0
44362.875,81.2208,-2467.67,0,0
44623.2,80.8709,-2453.02,0,0
44883.525,80.3535,-2438.42,0,0
45143.85,79.9238,-2423.92,0,0
45404.175,79.2627,-2409.79,0,0
45664.5,78.8324,-2395.5,0,0
45924.825,78.5049,-2381.61,0,0
46185.15,77.9293,-2367.55,0,0
46445.475,77.4663,-2353.89,0,0
46705.8,77.0766,-2340.3,0,0
46966.125,76.8294,-2326.95,0,0
47226.45,76.3792,-2313.45,0,0
47486.775,76.1578,-2300.43,0,0
47747.1,76.0554,-2287.49,0,0
48007.425,75.5448,-2274.85,0,0
48267.75,75.23,-2262.26,0,0
48528.075,74.935,-2249.64,0,0
48788.4,74.3919,-2237.62,0,0
49048.725,73.7885,-2225.16,0,0
49309.05,73.4068,-2212.8,0,0
49569.375,73.1425,-2200.79,0,0
49829.7,72.7166,-2188.94,0,0
50090.025,72.3261,-2176.91,0,0
50350.35,72.0654,-2165.17,0,0
50610.675,71.9381,-2153.45,0,0
50871.0,71.5659,-2141.82,0,0
51131.325,71.4222,-2130.29,0,0
51391.65,71.2073,-2118.98,0,0
51651.975,71.2237,-2107.55,0,0
51912.3,71.3049,-2096.81,0,0
52172.625,70.8804,-2086.06,0,0
52432.95,70.7291,-2075.37,0,0
52693.275,70.7436,-2064.42,0,0
52953.6,70.9857,-2053.96,0,0
53213.925,71.0123,-2043.96,0,0
53474.25,70.6056,-2033.75,0,0
53734.575,70.5929,-2024.07,0,0
53994.9,69.9038,-2014.37,0,0
54255.225,69.3221,-2004.52,0,0
54515.55,68.6635,-1994.65,0,0
54775.875,68.2921,-1984.71,0,0
55036.2,67.5635,-1975.11,0,0
55296.525,67.0268,-1965.45,0,0
55556.85,66.219,-1955.49,0,0
55817.175,65.6477,-1945.77,0,0
56077.5,65.2126,-1936,0,0
56337.825,64.7429,-1926.2,0,0
56598.15,64.4561,-1916.59,0,0
56858.475,64.1473,-1906.97,0,0
57118.8,63.9973,-1897.53,0,0
57379.125,63.7573,-1888.16,0,0
57639.45,63.6521,-1878.95,0,0
57899.775,63.4642,-1869.81,0,0
58160.1,63.3632,-1860.67,0,0
58420.4,63.3337,-1851.49,0,0
58680.7,63.3527,-1842.83,0,0
58941.1,63.5272,-1834.06,0,0
59201.4,63.5165,-1825.65,0,0
59461.7,63.3512,-1817.49,0,0
59722,62.9285,-1809.15,0,0
59982.4,62.5313,-1800.65,0,0
60242.7,62.1807,-1792.2,0,0
60503,61.8119,-1783.71,0,0
60763.3,61.639,-1775.21,0,0
61023.7,61.5505,-1766.81,0,0
61284,61.6746,-1758.56,0,0
61544.3,61.7892,-1750.41,0,0
61804.6,61.7826,-1742.47,0,0
62065,61.5724,-1734.64,0,0
62325.3,61.5342,-1726.58,0,0
62585.6,61.4924,-1718.56,0,0
62845.9,61.5745,-1710.75,0,0
63106.3,61.8488,-1702.97,0,0
63366.6,61.9979,-1695.23,0,0
63626.9,62.3364,-1687.92,0,0
63887.2,62.4065,-1680.49,0,0
64147.6,62.7761,-1673.08,0,0
64407.9,63.2574,-1666,0,0
64668.2,63.415,-1659.36,0,0
64928.5,63.4373,-1652.58,0,0
65188.9,63.3221,-1645.96,0,0
65449.2,63.2351,-1639.29,0,0
65709.5,62.6359,-1632.84,0,0
65969.8,62.1746,-1625.97,0,0
66230.2,61.832,-1619.17,0,0
66490.5,61.3477,-1612.29,0,0
66750.8,60.7095,-1605.37,0,0
67011.1,60.3057,-1598.3,0,0
67271.5,60.1148,-1591.45,0,0
67531.8,59.7616,-1584.5,0,0
67792.1,59.6681,-1577.59,0,0
68052.4,59.608,-1570.91,0,0
68312.8,59.5148,-1564.1,0,0
68573.1,59.4449,-1557.54,0,0
68833.4,59.2542,-1550.88,0,0
69093.7,59.0996,-1544.24,0,0
69354.1,59.1376,-1537.69,0,0
69614.4,59.2685,-1531.23,0,0
69874.7,59.2443,-1524.62,0,0
70135,59.3112,-1518.22,0,0
70395.4,59.4691,-1512.04,0,0
70655.7,59.6079,-1505.79,0,0
70916,59.6491,-1499.79,0,0
71176.3,59.7177,-1493.73,0,0
71436.7,59.7125,-1487.67,0,0
71697,59.8506,-1481.73,0,0
71957.3,59.956,-1475.88,0,0
72217.6,60.1143,-1470.09,0,0
72478,60.1299,-1464.52,0,0
72738.3,59.7705,-1459.01,0,0
72998.6,59.4406,-1453.28,0,0
73258.9,59.1848,-1447.37,0,0
73519.3,59.0059,-1441.45,0,0
73779.6,58.9536,-1435.6,0,0
74039.9,58.9487,-1429.88,0,0
74300.225,59.0069,-1424.35,0,0
74560.55,58.6889,-1418.77,0,0
74820.875,58.5788,-1413.09,0,0
75081.2,58.5037,-1407.38,0,0
75341.525,58.4062,-1401.73,0,0
75601.85,58.4643,-1396.19,0,0
75862.175,58.5072,-1390.66,0,0
76122.5,58.5346,-1385.26,0,0
76382.825,58.5583,-1379.83,0,0
76643.15,58.6174,-1374.44,0,0
76903.475,58.5711,-1369.26,0,0
77163.8,58.5157,-1363.94,0,0
77424.125,58.418,-1358.69,0,0
77684.45,58.3579,-1353.42,0,0
77944.775,58.3204,-1348.19,0,0
78205.1,58.2673,-1343,0,0
78465.425,58.0988,-1337.81,0,0
78725.75,57.9446,-1332.59,0,0
78986.075,57.9735,-1327.26,0,0
79246.4,57.9767,-1322.2,0,0
79506.725,57.8536,-1316.98,0,0
79767.05,57.8444,-1311.76,0,0
80027.375,57.9232,-1306.58,0,0
80287.7,58.0337,-1301.48,0,0
80548.025,58.1315,-1296.41,0,0
80808.35,58.2197,-1291.43,0,0
81068.675,58.1967,-1286.38,0,0
81329.0,58.3388,-1281.3,0,0
81589.325,58.4257,-1276.35,0,0
81849.65,58.571,-1271.36,0,0
82109.975,58.6304,-1266.26,0,0
82370.3,58.9598,-1261.19,0,0
82630.625,59.3574,-1256.3,0,0
82890.95,59.6929,-1251.49,0,0
83151.275,60.0141,-1246.8,0,0
83411.6,60.2807,-1242.05,0,0
83671.925,60.7015,-1237.26,0,0
83932.25,61.2857,-1232.57,0,0
84192.575,61.7956,-1228.29,0,0
84452.9,62.0837,-1223.99,0,0
84713.225,62.3257,-1219.59,0,0
84973.55,62.7599,-1215.31,0,0
85233.875,62.9469,-1211.33,0,0
85494.2,62.8995,-1207.09,0,0
85754.525,62.772,-1202.89,0,0
86014.85,62.6257,-1198.37,0,0
86275.175,62.6928,-1193.88,0,0
86535.5,62.629,-1189.33,0,0
86795.825,62.905,-1184.67,0,0
87056.15,63.1872,-1180.1,0,0
87316.475,63.5466,-1175.74,0,0
87576.8,63.6878,-1171.43,0,0
87837.125,63.9638,-1166.86,0,0
88097.45,64.4752,-1162.41,0,0
88357.775,64.9766,-1158.17,0,0
88618.1,65.3673,-1153.87,0,0
88878.425,65.8485,-1149.68,0,0
89138.75,66.2859,-1145.53,0,0
89399.075,66.7163,-1141.26,0,0
89659.4,67.1825,-1137.15,0,0
89919.725,67.7837,-1132.95,0,0
90180,68.3512,-1128.76,0,0
90440.4,69.0638,-1124.69,0,0
90700.7,69.7572,-1120.49,0,0
90961,70.6703,-1116.5,0,0
91221.3,71.6191,-1112.61,0,0
91481.7,72.6845,-1108.94,0,0
91742,73.6897,-1105.59,0,0
92002.3,74.6668,-1102.32,0,0
92262.6,75.4709,-1099.23,0,0
92523,76.2754,-1096.39,0,0
92783.3,76.7976,-1093.63,0,0
93043.6,77.0447,-1090.91,0,0
93303.9,77.0216,-1088.28,0,0
93564.3,76.5666,-1085.35,0,0
93824.6,76.1129,-1082,0,0
94084.9,75.8937,-1078.48,0,0
94345.2,75.8354,-1074.87,0,0
94605.6,75.798,-1071.21,0,0
94865.9,76.1591,-1067.57,0,0
95126.2,76.3104,-1064.48,0,0
95386.5,76.2416,-1060.92,0,0
95646.9,76.4766,-1057.5,0,0
95907.2,76.6466,-1054.24,0,0
96167.5,76.4837,-1050.83,0,0
96427.8,76.6274,-1047.15,0,0
96688.2,76.9862,-1043.6,0,0
96948.5,77.3494,-1040.22,0,0
97208.8,77.6175,-1036.84,0,0
97469.1,78.1292,-1033.4,0,0
97729.5,78.6365,-1030.34,0,0
97989.8,79.0129,-1027.27,0,0
98250.1,79.3471,-1024.26,0,0
98510.4,79.6447,-1021.23,0,0
98770.8,80.0015,-1018.27,0,0
99031.1,80.318,-1015.5,0,0
99291.4,80.3182,-1012.86,0,0
99551.7,80.1332,-1009.98,0,0
99812.1,79.9238,-1006.85,0,0
100072,80.1118,-1003.65,0,0
100333,80.3735,-1000.69,0,0
100593,80.5267,-997.867,0,0
100853,80.5302,-995.091,0,0
101114,80.3359,-992.347,0,0
101374,80.0496,-989.263,0,0
101634,79.9859,-986.095,0,0
101895,79.9993,-983.087,0,0
102155,79.9461,-979.967,0,0
102415,80.0414,-976.897,0,0
102676,80.1607,-973.881,0,0
102936,80.3066,-970.942,0,0
103196,80.3288,-968.088,0,0
103457,80.3809,-965.243,0,0
103717,80.3243,-962.402,0,0
103977,80.1754,-959.522,0,0
104238,80.1224,-956.507,0,0
104498,80.1394,-953.581,0,0
104758,80.1534,-950.689,0,0
105019,80.0706,-947.894,0,0
105279,79.9452,-944.916,0,0
105539,79.959,-941.937,0,0
105800,79.9034,-938.986,0,0
106060,79.9407,-936.007,0,0
106320.175,79.996,-933.167,0,0
106580.5,80.0076,-930.3,0,0
106840.825,79.9618,-927.48,0,0
107101.15,79.8738,-924.577,0,0
107361.475,79.9196,-921.652,0,0
107621.8,79.8707,-918.823,0,0
107882.125,79.767,-915.952,0,0
108142.45,79.7277,-912.883,0,0
108402.775,79.8358,-909.81,0,0
108663.1,80.1488,-906.898,0,0
108923.425,80.2509,-904.175,0,0
109183.75,80.4006,-901.399,0,0
109444.075,80.5775,-898.618,0,0
109704.4,80.7074,-896.007,0,0
109964.725,80.8372,-893.346,0,0
110225.05,80.8508,-890.739,0,0
110485.375,80.9338,-888.172,0,0
110745.7,80.9257,-885.516,0,0
111006.025,80.7484,-882.909,0,0
111266.35,80.6868,-880.189,0,0
111526.675,80.6354,-877.474,0,0
111787.0,80.6121,-874.723,0,0
112047.325,80.6383,-872.045,0,0
112307.65,80.6766,-869.292,0,0
112567.975,80.6642,-866.662,0,0
112828.3,80.6355,-864.023,0,0
113088.625,80.5266,-861.431,0,0
113348.95,80.5118,-858.727,0,0
113609.275,80.574,-856.097,0,0
113869.6,80.5163,-853.53,0,0
114129.925,80.5286,-850.953,0,0
114390.25,80.3477,-848.453,0,0
114650.575,80.1424,-845.926,0,0
114910.9,79.9695,-843.237,0,0
115171.225,79.7218,-840.516,0,0
115431.55,79.6442,-837.786,0,0
115691.875,79.475,-835.067,0,0
115952.2,79.4104,-832.38,0,0
116212.525,79.3152,-829.743,0,0
116472.85,79.1582,-827.016,0,0
116733.175,79.0301,-824.335,0,0
116993.5,78.9174,-821.587,0,0
117253.825,78.7308,-818.884,0,0
117514.15,78.602,-816.104,0,0
117774.475,78.4902,-813.286,0,0
118034.8,78.3973,-810.513,0,0
118295.125,78.2985,-807.608,0,0
118555.45,78.3559,-804.713,0,0
118815.775,78.5195,-801.919,0,0
119076.1,78.6082,-799.287,0,0
119336.425,78.5516,-796.692,0,0
119596.75,78.4214,-793.965,0,0
119857.075,78.3742,-791.162,0,0
120117.4,78.3974,-788.4,0,0
120377.725,78.4328,-785.588,0,0
120638.05,78.4873,-782.81,0,0
120898.375,78.5515,-780,0,0
121158.7,78.6724,-777.253,0,0
121419.025,78.7647,-774.579,0,0
121679.35,78.7922,-771.856,0,0
121939.675,78.8422,-769.099,0,0
122200.0,78.9209,-766.382,0,0
122460,79.0262,-763.609,0,0
122721,79.1396,-760.869,0,0
122981,79.2832,-758.212,0,0
123241,79.3135,-755.488,0,0
123502,79.3456,-752.677,0,0
123762,79.4387,-749.883,0,0
124022,79.5497,-747.036,0,0
124283,79.7542,-744.152,0,0
124543,80.0734,-741.32,0,0
124803,80.3604,-738.542,0,0
125064,80.7182,-735.803,0,0
125324,81.0952,-733.1,0,0
125584,81.3988,-730.471,0,0
125845,81.7264,-727.848,0,0
126105,82.0777,-725.228,0,0
126365,82.4132,-722.54,0,0
126626,82.8329,-720,0,0
126886,83.2522,-717.573,0,0
127146,83.5323,-715.119,0,0
127406,83.8024,-712.835,0,0
127667,84.0684,-710.373,0,0
127927,84.1697,-707.946,0,0
128187,84.3574,-705.489,0,0
128448,84.5206,-703.089,0,0
128708,84.5813,-700.743,0,0
128968,84.4737,-698.253,0,0
129229,84.4308,-695.728,0,0
129489,84.4342,-693.048,0,0
129749,84.5369,-690.453,0,0
130010,84.5581,-687.906,0,0
130270,84.329,-685.267,0,0
130530,84.1329,-682.371,0,0
130791,84.0454,-679.256,0,0
131051,84.224,-676.028,0,0
131311,84.6947,-672.745,0,0
131572,85.4711,-669.787,0,0
131832,86.1657,-667.17,0,0
132092,86.6052,-664.641,0,0
132353,86.9475,-662.049,0,0
132613,87.2028,-659.321,0,0
132873,87.5662,-656.424,0,0
133134,88.2336,-653.569,0,0
133394,88.8142,-651.001,0,0
133654,89.2947,-648.351,0,0
133915,89.8424,-645.704,0,0
134175,90.4078,-643.12,0,0
134435,90.9577,-640.636,0,0
134696,91.4515,-638.211,0,0
134956,91.8113,-635.712,0,0
135216,92.2089,-633.117,0,0
135477,92.6195,-630.495,0,0
135737,93.1111,-627.898,0,0
135997,93.6696,-625.358,0,0
136258,94.2811,-622.89,0,0
136518,94.7254,-620.549,0,0
136778,95.2147,-618.173,0,0
137039,95.6172,-616.017,0,0
137299,95.7664,-613.844,0,0
137559,95.7292,-611.632,0,0
137819,95.488,-609.168,0,0
138080,95.2343,-606.474,0,0
138340.125,94.9831,-603.553,0,0
138600.45,94.9262,-600.325,0,0
138860.775,95.1933,-597.113,0,0
139121.1,95.5431,-594.012,0,0
139381.425,95.9334,-591.007,0,0
139641.75,96.3189,-588.033,0,0
139902.075,96.645,-585.018,0,0
140162.4,97.0449,-581.95,0,0
140422.725,97.4455,-578.915,0,0
140683.05,97.7578,-575.834,0,0
140943.375,98.0961,-572.625,0,0
141203.7,98.5205,-569.361,0,0
141464.025,99.0103,-565.989,0,0
141724.35,99.637,-562.577,0,0
141984.675,100.392,-559.256,0,0
142245.0,101.095,-556.002,0,0
142505.325,101.771,-552.683,0,0
142765.65,102.53,-549.29,0,0
143025.975,103.269,-545.972,0,0
143286.3,103.965,-542.464,0,0
143546.625,104.806,-538.842,0,0
143806.95,105.755,-535.115,0,0
144067.275,106.888,-531.4,0,0
144327.6,108.106,-527.679,0,0
144587.925,109.402,-523.878,0,0
144848.25,110.963,-520.016,0,0
145108.575,112.693,-516.283,0,0
145368.9,114.528,-512.54,0,0
145629.225,116.682,-508.812,0,0
145889.55,119.108,-505.519,0,0
146149.875,121.343,-502.607,0,0
146410.2,123.341,-499.699,0,0
146670.525,125.292,-496.692,0,0
146930.85,127.322,-493.609,0,0
147191.175,129.617,-490.503,0,0
147451.5,132.103,-487.757,0,0
147711.825,134.546,-485.416,0,0
147972.15,136.43,-483.518,0,0
148232.475,137.579,-481.331,0,0
148492.8,138.475,-478.432,0,0
148753.125,139.665,-474.902,0,0
149013.45,141.241,-471.101,0,0
149273.775,143.183,-467.043,0,0
149534.1,145.822,-462.944,0,0
149794.425,148.876,-459.216,0,0
150054.75,151.934,-455.584,0,0
150315.075,155.44,-452,0,0
150575.4,159.342,-448.812,0,0
150835.725,163.189,-445.935,0,0
151096.05,167.226,-442.871,0,0
151356.375,172.17,-440.066,0,0
151616.7,177.667,-438.41,0,0
151877.025,183.019,-438.047,0,0
152137.35,187.247,-438.61,0,0
152397.675,190.607,-439.185,0,0
152658.0,193.38,-439.823,0,0
152918.325,195.463,-440.26,0,0
153178.65,197.243,-440.192,0,0
153438.975,198.863,-439.823,0,0
153699.3,200.756,-439.326,0,0
153959.625,202.361,-439.058,0,0
154219.95,203.479,-438.517,0,0
154480,204.45,-437.495,0,0
154741,205.53,-435.884,0,0
155001,207.203,-433.745,0,0
155261,209.532,-431.778,0,0
155522,212.399,-430.119,0,0
155782,215.716,-429.18,0,0
156042,218.899,-428.971,0,0
156303,221.763,-429.839,0,0
156563,223.335,-431.382,0,0
156823,223.372,-432.551,0,0
157084,222.518,-432.82,0,0
157344,220.933,-431.528,0,0
157604,220.168,-428.684,0,0
157864,220.405,-425.277,0,0
158125,221.598,-421.761,0,0
158385,223.35,-418.241,0,0
158645,225.959,-414.756,0,0
158906,229.319,-411.53,0,0
159166,233.756,-408.846,0,0
159426,238.888,-407.796,0,0
159687,243.37,-408.515,0,0
159947,246.574,-410.135,0,0
160207,248.148,-411.656,0,0
160468,248.793,-412.545,0,0
160728,248.86,-412.796,0,0
160988,248.35,-411.859,0,0
161249,248.388,-409.592,0,0
161509,249.671,-406.921,0,0
161769,251.775,-404.353,0,0
162030,254.449,-402.247,0,0
162290,257.43,-400.437,0,0
162550,260.867,-399.104,0,0
162811,264.501,-398.692,0,0
163071,267.712,-398.939,0,0
163331,270.548,-399.47,0,0
163592,273.12,-400.412,0,0
163852,275.153,-401.629,0,0
164112,276.756,-402.939,0,0
164373,277.479,-404.518,0,0
164633,277.464,-405.172,0,0
164893,277.697,-405.428,0,0
165154,277.968,-405.181,0,0
165414,278.666,-404.909,0,0
165674,279.867,-405.356,0,0
165935,280.471,-406.641,0,0
166195,280.075,-408.024,0,0
166455,278.609,-409.349,0,0
166716,276.263,-409.781,0,0
166976,273.485,-409.219,0,0
167236,270.736,-407.69,0,0
167497,268.275,-405.39,0,0
167757,265.974,-402.473,0,0
168017,264.099,-399.028,0,0
168277,262.635,-395.162,0,0
168538,261.636,-390.949,0,0
168798,261.061,-386.644,0,0
169058,260.837,-381.884,0,0
169319,261.104,-377.089,0,0
169579,261.977,-372.28,0,0
169839,263.25,-367.596,0,0
170100,264.686,-363.238,0,0
170360.075,266.079,-358.944,0,0
170620.4,267.715,-354.35,0,0
170880.725,269.932,-349.824,0,0
171141.05,272.229,-345.552,0,0
171401.375,274.648,-341.38,0,0
171661.7,276.929,-337.23,0,0
171922.025,279.49,-332.689,0,0
172182.35,282.43,-328.177,0,0
172442.675,285.798,-323.731,0,0
172703.0,289.576,-319.372,0,0
172963.325,293.777,-315.36,0,0
173223.65,298.06,-311.91,0,0
173483.975,302.374,-308.631,0,0
173744.3,306.631,-305.65,0,0
174004.625,310.901,-302.687,0,0
174264.95,315.415,-299.986,0,0
174525.275,319.925,-297.696,0,0
174785.6,323.978,-296.047,0,0
175045.925,327.382,-294.189,0,0
175306.25,330.572,-291.909,0,0
175566.575,333.665,-289.247,0,0
175826.9,336.809,-286.103,0,0
176087.225,340.426,-282.445,0,0
176347.55,344.73,-278.776,0,0
176607.875,349.635,-275.57,0,0
176868.2,354.435,-272.501,0,0
177128.525,359.382,-269.735,0,0
177388.85,364.376,-267.189,0,0
177649.175,369.036,-264.763,0,0
177909.5,373.61,-261.868,0,0
178169.825,378.67,-258.542,0,0
178430.15,384.642,-255.183,0,0
178690.475,391.045,-252.324,0,0
178950.8,397.676,-250,0,0
179211.125,404.217,-248.292,0,0
179471.45,410.631,-246.639,0,0
179731.775,417.075,-245.137,0,0
179992.1,423.448,-243.828,0,0
180252.425,429.922,-242.457,0,0
180512.75,436.519,-241.255,0,0
180773.075,443.382,-240.282,0,0
181033.4,450.238,-239.771,0,0
181293.725,456.852,-239.451,0,0
181554.05,463.25,-238.913,0,0
181814.375,470.166,-238.383,0,0
182074.7,477.108,-238.435,0,0
182335.025,483.991,-238.35,0,0
182595.35,491.014,-238.36,0,0
182855.675,498.589,-238.979,0,0
183116.0,505.718,-240.339,0,0
183376.325,511.932,-241.775,0,0
183636.65,517.809,-242.724,0,0
183896.975,524.124,-243.045,0,0
184157.3,530.779,-243.63,0,0
184417.625,537.451,-244.41,0,0
184677.95,544.329,-245.436,0,0
184938.275,550.82,-246.643,0,0
185198.6,556.99,-247.367,0,0
185458.925,563.748,-247.575,0,0
185719.25,571.241,-247.871,0,0
185979.575,579.262,-248.46,0,0
186239.9,587.82,-249.245,0,0
186500,597.221,-251.008,0,0
186761,606.239,-254.118,0,0
187021,614.519,-257.783,0,0
187281,622.209,-261.306,0,0
187542,629.716,-264.585,0,0
187802,637.376,-267.608,0,0
188062,645.555,-270.595,0,0
188322,654.346,-274.19,0,0
188583,663.252,-278.727,0,0
188843,671.759,-284.183,0,0
189103,679.474,-290.192,0,0
189364,686.252,-296.46,0,0
189624,691.936,-302.157,0,0
189884,697.355,-306.641,0,0
190145,703.593,-310.096,0,0
190405,710.981,-313.684,0,0
190665,718.884,-317.83,0,0
190926,727.25,-321.688,0,0
191186,736.779,-325.996,0,0
191446,747.071,-331.454,0,0
191707,757.303,-337.955,0,0
191967,768.203,-345.466,0,0
192227,778.87,-354.825,0,0
192488,788.316,-365.607,0,0
192748,795.915,-376.733,0,0
193008,802.667,-386.738,0,0
193269,810.18,-396.229,0,0
193529,818.251,-406.111,0,0
193789,827.232,-416.865,0,0
194050,836.173,-429.083,0,0
194310,844.959,-442.454,0,0
194570,853.275,-457.596,0,0
194831,860.272,-474.409,0,0
195091,865.204,-492.229,0,0
195351,868.131,-509.885,0,0
195612,869.762,-526.725,0,0
195872,871.249,-543.238,0,0
196132,872.521,-560.196,0,0
196393,873.208,-577.882,0,0
196653,872.559,-596.611,0,0
196913,870.113,-615.672,0,0
197174,865.738,-634.509,0,0
197434,859.906,-652.879,0,0
197694,852.161,-670.568,0,0
197955,842.92,-686.854,0,0
198215,832.781,-701.361,0,0
198475,822.5,-714.402,0,0
198735,812.604,-726.288,0,0
198996,803.124,-737.986,0,0
199256,793.333,-749.845,0,0
199516,782.833,-761.627,0,0
199777,770.918,-773.124,0,0
200037,757.517,-783.568,0,0
200297,743.069,-792.315,0,0
200558,728.295,-798.774,0,0
200818,714.343,-803.097,0,0
201078,701.515,-806.137,0,0
201339,690.189,-808.606,0,0
201599,679.978,-811.412,0,0
201859,669.808,-814.648,0,0
202120,659.472,-817.868,0,0
202380.025,648.683,-821.087,0,0
202640.35,637.235,-823.67,0,0
202900.675,625.494,-825,0,0
203161.0,614.271,-824.954,0,0
203421.325,603.948,-824.408,0,0
203681.65,594.246,-823.426,0,0
203941.975,585.236,-822.521,0,0
204202.3,576.349,-821.519,0,0
204462.625,567.584,-820.338,0,0
204722.95,558.969,-818.574,0,0
204983.275,550.728,-816.618,0,0
205243.6,542.613,-814.727,0,0
205503.925,534.49,-812.381,0,0
205764.25,526.736,-809.541,0,0
206024.575,518.985,-806.296,0,0
206284.9,511.503,-802.039,0,0
206545.225,504.689,-797.034,0,0
206805.55,499.066,-791.391,0,0
207065.875,494.561,-785.653,0,0
207326.2,491.247,-780.24,0,0
207586.525,488.609,-775.391,0,0
207846.85,486.436,-770.863,0,0
208107.175,484.794,-766.96,0,0
208367.5,483.303,-763.645,0,0
208627.825,481.872,-760.771,0,0
208888.15,480.133,-758.062,0,0
209148.475,478.457,-755.27,0,0
209408.8,476.898,-752.417,0,0
209669.125,475.559,-749.37,0,0
209929.45,474.522,-746.305,0,0
210189.775,474.04,-743.269,0,0
210450.1,473.939,-740.43,0,0
210710.425,474.181,-737.749,0,0
210970.75,474.769,-735.549,0,0
211231.075,475.47,-733.514,0,0
211491.4,476.599,-731.607,0,0
211751.725,478.319,-730.242,0,0
212012.05,480.341,-729.625,0,0
212272.375,482.295,-729.779,0,0
212532.7,483.972,-730.6,0,0
212793.025,485.44,-731.747,0,0
213053.35,486.645,-733.626,0,0
213313.675,487.315,-735.994,0,0
213574.0,487.212,-738.607,0,0
213834.325,486.433,-741.159,0,0
214094.65,485.225,-743.489,0,0
214354.975,483.627,-745.519,0,0
214615.3,481.751,-747.341,0,0
214875.625,479.685,-748.796,0,0
215135.95,477.514,-749.874,0,0
215396.275,475.391,-750.767,0,0
215656.6,473.056,-751.429,0,0
215916.925,470.759,-751.633,0,0
216177.25,468.582,-751.39,0,0
216437.575,466.68,-750.769,0,0
216697.9,465.117,-749.781,0,0
216958.225,464.221,-748.385,0,0
217218.55,464.244,-747.079,0,0
217478.875,464.951,-746.206,0,0
217739.2,465.985,-745.958,0,0
217999.525,467.071,-746.192,0,0
218259.85,468.408,-746.791,0,0
218520,469.721,-747.878,0,0
218780,470.875,-749.487,0,0
219041,471.987,-751.359,0,0
219301,472.924,-753.536,0,0
219561,473.859,-755.795,0,0
219822,474.779,-758.326,0,0
220082,475.609,-761.258,0,0
220342,476.395,-764.521,0,0
220603,477.055,-768.178,0,0
220863,477.523,-772.159,0,0
221123,477.708,-776.683,0,0
221384,477.416,-781.68,0,0
221644,476.497,-786.917,0,0
221904,474.859,-792.019,0,0
222165,472.977,-797.149,0,0
222425,470.686,-802.269,0,0
222685,467.941,-807.552,0,0
222946,464.499,-812.962,0,0
223206,460.413,-817.831,0,0
223466,455.946,-822.319,0,0
223727,451.301,-826.279,0,0
223987,446.64,-829.78,0,0
224247,442.03,-833.301,0,0
224508,437.338,-836.7,0,0
224768,432.461,-840.104,0,0
225028,427.073,-843.307,0,0
225289,421.708,-846.217,0,0
225549,415.974,-848.933,0,0
225809,410.063,-851.308,0,0
226070,404.071,-853.344,0,0
226330,398.036,-854.975,0,0
226590,391.869,-856.494,0,0
226851,385.662,-857.673,0,0
227111,379.368,-858.386,0,0
227371,373.198,-858.66,0,0
227632,367.254,-858.855,0,0
227892,361.146,-858.849,0,0
228152,355.15,-858.358,0,0
228413,349.418,-857.374,0,0
228673,344.082,-856.265,0,0
228933,339.156,-855.175,0,0
229193,334.253,-854.138,0,0
229454,329.544,-853.161,0,0
229714,324.897,-852.259,0,0
229974,320.277,-851.326,0,0
230235,315.606,-850.52,0,0
230495,310.95,-849.495,0,0
230755,305.992,-848.478,0,0
231016,301.015,-847.176,0,0
231276,296.184,-845.647,0,0
231536,291.455,-844.014,0,0
231797,286.706,-842.341,0,0
232057,282.073,-840.478,0,0
232317,277.499,-838.463,0,0
232578,273.013,-836.374,0,0
232838,268.448,-834.19,0,0
233098,264.06,-831.714,0,0
233359,259.821,-829.125,0,0
233619,255.733,-826.504,0,0
233879,251.668,-823.824,0,0
234140,247.642,-820.876,0,0
234400,243.79,-817.782,0,0
234660.3,240.09,-814.576,0,0
234920.625,236.524,-811.289,0,0
235180.95,233.178,-807.753,0,0
235441.275,230.143,-804.119,0,0
235701.6,227.431,-800.49,0,0
235961.925,224.911,-796.879,0,0
236222.25,222.574,-793.414,0,0
236482.575,220.489,-789.862,0,0
236742.9,218.546,-786.448,0,0
237003.225,216.873,-783.113,0,0
237263.55,215.258,-779.941,0,0
237523.875,213.707,-776.87,0,0
237784.2,212.233,-773.857,0,0
238044.525,210.858,-770.851,0,0
238304.85,209.629,-767.95,0,0
238565.175,208.4,-765.18,0,0
238825.5,207.45,-762.414,0,0
239085.825,206.474,-759.83,0,0
239346.15,205.579,-757.406,0,0
239606.475,204.821,-755.251,0,0
239866.8,203.942,-753.176,0,0
240127.125,202.815,-751.334,0,0
240387.45,201.555,-749.496,0,0
240647.775,200.177,-747.55,0,0
240908.1,198.805,-745.579,0,0
241168.425,197.454,-743.508,0,0
241428.75,196.025,-741.393,0,0
241689.075,194.697,-739.255,0,0
241949.4,193.334,-737.16,0,0
242209.725,191.972,-734.984,0,0
242470.05,190.628,-732.748,0,0
242730.375,189.256,-730.392,0,0
242990.7,188.084,-727.998,0,0
243251.025,186.9,-725.668,0,0
243511.35,185.828,-723.202,0,0
243771.675,184.928,-720.796,0,0
244032.0,184.092,-718.409,0,0
244292.325,183.344,-716.169,0,0
244552.65,182.534,-714.005,0,0
244812.975,181.747,-711.966,0,0
245073.3,180.747,-709.859,0,0
245333.625,179.74,-707.704,0,0
245593.95,178.7,-705.393,0,0
245854.275,177.704,-703.002,0,0
246114.6,176.832,-700.418,0,0
246374.925,176.119,-697.841,0,0
246635.25,175.552,-695.22,0,0
246895.575,175.173,-692.686,0,0
247155.9,174.912,-690.231,0,0
247416.225,174.703,-687.957,0,0
247676.55,174.506,-685.657,0,0
247936.875,174.295,-683.463,0,0
248197.2,174.128,-681.363,0,0
248457.525,173.803,-679.296,0,0
248717.85,173.449,-677.199,0,0
248978.175,173.074,-675.013,0,0
249238.5,172.809,-672.651,0,0
249498.825,172.458,-670.262,0,0
249759.15,172.429,-667.792,0,0
250019.475,172.461,-665.392,0,0
250279.8,172.53,-662.891,0,0
250540,172.883,-660.194,0,0
250800,173.393,-657.678,0,0
251061,174.014,-655.256,0,0
251321,174.84,-652.854,0,0
251581,175.808,-650.615,0,0
251842,176.865,-648.519,0,0
252102,178.189,-646.623,0,0
252362,179.603,-645.012,0,0
252623,180.963,-643.727,0,0
252883,182.219,-642.772,0,0
253143,183.182,-641.982,0,0
253404,183.888,-641.198,0,0
253664,184.374,-640.353,0,0
253924,184.802,-639.411,0,0
254185,185.126,-638.279,0,0
254445,185.461,-637.112,0,0
254705,185.793,-635.775,0,0
254966,186.307,-634.365,0,0
255226,186.962,-632.942,0,0
255486,187.728,-631.542,0,0
255747,188.629,-630.166,0,0
256007,189.633,-628.894,0,0
256267,190.796,-627.742,0,0
256528,191.99,-626.798,0,0
256788,193.114,-626.075,0,0
257048,194.12,-625.403,0,0
257309,195.086,-624.723,0,0
257569,195.989,-624.043,0,0
257829,196.971,-623.378,0,0
258090,198.026,-622.715,0,0
258350,199.127,-622.215,0,0
258610,200.187,-621.827,0,0
258871,201.243,-621.482,0,0
259131,202.267,-621.181,0,0
259391,203.343,-621.021,0,0
259651,204.353,-620.989,0,0
259912,205.333,-620.98,0,0
260172,206.24,-621.055,0,0
260432,207.023,-621.114,0,0
260693,207.837,-621.24,0,0
260953,208.581,-621.449,0,0
261213,209.228,-621.777,0,0
261474,209.711,-622.122,0,0
261734,209.874,-622.413,0,0
261994,210.105,-622.339,0,0
262255,210.48,-622.488,0,0
262515,210.829,-622.658,0,0
262775,211.049,-622.839,0,0
263036,211.153,-622.922,0,0
263296,211.284,-622.846,0,0
263556,211.486,-622.683,0,0
263817,211.756,-622.516,0,0
264077,212.001,-622.291,0,0
264337,212.293,-621.989,0,0
264598,212.678,-621.527,0,0
264858,213.192,-620.988,0,0
265118,213.787,-620.36,0,0
265379,214.858,-619.666,0,0
265639,216.127,-619.172,0,0
265899,217.58,-618.755,0,0
266160,219.292,-618.508,0,0
266420,221.186,-618.542,0,0
266680.25,223.25,-618.821,0,0
266940.575,225.393,-619.441,0,0
267200.9,227.631,-620.344,0,0
267461.225,229.948,-621.629,0,0
267721.55,232.173,-623.337,0,0
267981.875,234.262,-625.401,0,0
268242.2,236.157,-627.79,0,0
268502.525,237.937,-630.464,0,0
268762.85,239.555,-633.536,0,0
269023.175,240.77,-636.955,0,0
269283.5,241.587,-640.622,0,0
269543.825,241.908,-644.439,0,0
269804.15,241.816,-648.298,0,0
270064.475,241.325,-652.108,0,0
270324.8,240.656,-655.86,0,0
270585.125,239.708,-659.629,0,0
270845.45,238.366,-663.398,0,0
271105.775,236.792,-667.232,0,0
271366.1,234.808,-671.047,0,0
271626.425,232.437,-674.696,0,0
271886.75,229.77,-678.251,0,0
272147.075,226.775,-681.678,0,0
272407.4,223.371,-684.91,0,0
272667.725,219.61,-687.84,0,0
272928.05,215.559,-690.499,0,0
273188.375,211.296,-692.762,0,0
273448.7,206.765,-694.624,0,0
273709.025,202.189,-696.09,0,0
273969.35,197.536,-697.129,0,0
274229.675,192.857,-697.898,0,0
274490.0,188.154,-698.266,0,0
274750.325,183.487,-698.268,0,0
275010.65,178.805,-697.906,0,0
275270.975,174.318,-697.134,0,0
275531.3,170.017,-696.048,0,0
275791.625,165.984,-694.791,0,0
276051.95,162.143,-693.2,0,0
276312.275,158.601,-691.425,0,0
276572.6,155.363,-689.588,0,0
276832.925,152.357,-687.742,0,0
277093.25,149.512,-685.904,0,0
277353.575,146.775,-684.037,0,0
277613.9,144.165,-682.149,0,0
277874.225,141.657,-680.265,0,0
278134.55,139.185,-678.325,0,0
278394.875,136.812,-676.329,0,0
278655.2,134.518,-674.241,0,0
278915.525,132.338,-672.069,0,0
279175.85,130.312,-669.829,0,0
279436.175,128.337,-667.486,0,0
279696.5,126.637,-665.007,0,0
279956.825,125.09,-662.525,0,0
280217.15,123.822,-660.043,0,0
280477.475,122.806,-657.602,0,0
280737.8,121.963,-655.315,0,0
280998.125,121.261,-653.167,0,0
281258.45,120.628,-651.181,0,0
281518.775,120.001,-649.317,0,0
281779.1,119.385,-647.487,0,0
282039.425,118.806,-645.688,0,0
282299.75,118.327,-643.922,0,0
282560,117.914,-642.224,0,0
282820,117.591,-640.582,0,0
283081,117.301,-639.039,0,0
283341,117.02,-637.661,0,0
283601,116.744,-636.314,0,0
283862,116.462,-634.986,0,0
284122,116.192,-633.724,0,0
284382,115.962,-632.48,0,0
284643,115.772,-631.333,0,0
284903,115.48,-630.198,0,0
285163,115.27,-629.043,0,0
285424,115.084,-627.859,0,0
285684,115.053,-626.72,0,0
285944,115.112,-625.68,0,0
286205,115.217,-624.751,0,0
286465,115.416,-623.937,0,0
286725,115.719,-623.318,0,0
286986,116.007,-622.962,0,0
287246,116.218,-622.842,0,0
287506,116.247,-622.921,0,0
287767,116.077,-623.147,0,0
288027,115.648,-623.422,0,0
288287,115.034,-623.695,0,0
288548,114.214,-623.916,0,0
288808,113.286,-624.11,0,0
289068,112.213,-624.211,0,0
289329,111.04,-624.176,0,0
289589,109.777,-624.074,0,0
289849,108.431,-623.87,0,0
290109,107.112,-623.515,0,0
290370,105.755,-623.095,0,0
290630,104.441,-622.618,0,0
290890,103.173,-622.075,0,0
291151,101.932,-621.539,0,0
291411,100.653,-621.056,0,0
291671,99.2869,-620.597,0,0
291932,97.8305,-620.095,0,0
292192,96.2617,-619.493,0,0
292452,94.6058,-618.78,0,0
292713,92.9617,-617.9,0,0
292973,91.2945,-616.912,0,0
293233,89.727,-615.786,0,0
293494,88.1759,-614.555,0,0
293754,86.7062,-613.258,0,0
294014,85.3014,-611.871,0,0
294275,84.0066,-610.444,0,0
294535,82.7695,-608.962,0,0
294795,81.6092,-607.462,0,0
295056,80.534,-605.969,0,0
295316,79.4808,-604.507,0,0
295576,78.5067,-602.993,0,0
295837,77.543,-601.465,0,0
296097,76.6435,-599.941,0,0
296357,75.7875,-598.412,0,0
296618,74.9881,-596.884,0,0
296878,74.2152,-595.35,0,0
297138,73.4628,-593.826,0,0
297399,72.7487,-592.297,0,0
297659,72.066,-590.749,0,0
297919,71.424,-589.179,0,0
298180,70.8396,-587.605,0,0
298440,70.2956,-586.045,0,0
298700.2,69.7838,-584.517,0,0
298960.525,69.3921,-582.973,0,0
299220.85,68.9473,-581.414,0,0
299481.175,68.596,-579.939,0,0
299741.5,68.2752,-578.386,0,0
300001.825,67.9627,-576.945,0,0
300262.15,67.6022,-575.421,0,0
300522.475,67.3998,-573.911,0,0
300782.8,67.175,-572.42,0,0
301043.125,67.0626,-570.953,0,0
301303.45,66.9376,-569.435,0,0
301563.775,66.8954,-568.067,0,0
301824.1,66.8795,-566.766,0,0
302084.425,66.9291,-565.397,0,0
302344.75,66.9909,-564.107,0,0
302605.075,67.1354,-562.879,0,0
302865.4,67.1585,-561.636,0,0
303125.725,67.3104,-560.504,0,0
303386.05,67.4267,-559.416,0,0
303646.375,67.5636,-558.394,0,0
303906.7,67.5643,-557.304,0,0
304167.025,67.7082,-556.347,0,0
304427.35,67.8088,-555.373,0,0
304687.675,67.9255,-554.41,0,0
304948.0,68.0252,-553.489,0,0
305208.325,68.0835,-552.633,0,0
305468.65,68.1917,-551.781,0,0
305728.975,68.2931,-550.938,0,0
305989.3,68.3352,-550.101,0,0
306249.625,68.4209,-549.292,0,0
306509.95,68.5165,-548.52,0,0
306770.275,68.5962,-547.761,0,0
307030.6,68.6591,-547.092,0,0
307290.925,68.7338,-546.288,0,0
307551.25,68.8191,-545.613,0,0
307811.575,68.8844,-544.965,0,0
308071.9,68.9004,-544.422,0,0
308332.225,68.9864,-543.835,0,0
308592.55,69.0038,-543.298,0,0
308852.875,68.9836,-542.791,0,0
309113.2,68.8955,-542.403,0,0
309373.525,68.7367,-541.92,0,0
309633.85,68.4803,-541.407,0,0
309894.175,68.2826,-540.919,0,0
310154.5,67.964,-540.36,0,0
310414.825,67.7341,-539.758,0,0
310675.15,67.4736,-539.187,0,0
310935.475,67.2334,-538.657,0,0
311195.8,66.9765,-538.063,0,0
311456.125,66.688,-537.463,0,0
311716.45,66.4529,-536.848,0,0
311976.775,66.1659,-536.192,0,0
312237.1,65.8655,-535.631,0,0
312497.425,65.5618,-535.01,0,0
312757.75,65.2573,-534.463,0,0
313018.075,64.9437,-533.827,0,0
313278.4,64.533,-533.201,0,0
313538.725,64.1862,-532.64,0,0
313799.05,63.809,-531.95,0,0
314059.375,63.393,-531.246,0,0
314319.7,63.0103,-530.506,0,0
314580,62.6292,-529.732,0,0
314840,62.27,-528.916,0,0
315101,61.9208,-528.129,0,0
315361,61.6952,-527.298,0,0
315621,61.4117,-526.447,0,0
315882,61.1936,-525.625,0,0
316142,60.8949,-524.828,0,0
316402,60.7488,-523.974,0,0
316663,60.5457,-523.157,0,0
316923,60.3849,-522.351,0,0
317183,60.2784,-521.512,0,0
317444,60.2,-520.776,0,0
317704,60.1022,-520.036,0,0
317964,60.07,-519.326,0,0
318225,59.9679,-518.617,0,0
318485,59.9102,-517.923,0,0
318745,59.8711,-517.193,0,0
319006,59.7469,-516.551,0,0
319266,59.6729,-515.963,0,0
319526,59.6883,-515.402,0,0
319787,59.5805,-514.787,0,0
320047,59.4231,-514.288,0,0
320307,59.4341,-513.699,0,0
320567,59.3379,-513.24,0,0
320828,59.207,-512.737,0,0
321088,59.0707,-512.352,0,0
321348,58.8472,-511.876,0,0
321609,58.5847,-511.39,0,0
321869,58.3305,-510.938,0,0
322129,58.1412,-510.41,0,0
322390,57.8563,-509.961,0,0
322650,57.6268,-509.514,0,0
322910,57.2845,-509.036,0,0
323171,57.0384,-508.603,0,0
323431,56.7211,-508.114,0,0
323691,56.3817,-507.653,0,0
323952,56.0137,-507.219,0,0
324212,55.5344,-506.711,0,0
324472,55.0842,-506.219,0,0
324733,54.548,-505.642,0,0
324993,54.128,-505.033,0,0
325253,53.6371,-504.421,0,0
325514,53.1929,-503.737,0,0
325774,52.7581,-503.095,0,0
326034,52.3198,-502.403,0,0
326295,51.8416,-501.642,0,0
326555,51.4586,-500.932,0,0
326815,51.0601,-500.228,0,0
327076,50.7027,-499.499,0,0
327336,50.3793,-498.76,0,0
327596,49.9165,-497.954,0,0
327857,49.5529,-497.215,0,0
328117,49.198,-496.511,0,0
328377,48.8396,-495.644,0,0
328638,48.4876,-494.877,0,0
328898,48.1476,-494.117,0,0
329158,47.9002,-493.229,0,0
329419,47.5965,-492.488,0,0
329679,47.2051,-491.643,0,0
329939,46.9543,-490.802,0,0
330200,46.6702,-490.003,0,0
330460,46.4415,-489.219,0,0
330720.15,46.1332,-488.402,0,0
330980.475,45.8782,-487.559,0,0
331240.8,45.5745,-486.728,0,0
331501.125,45.3453,-485.893,0,0
331761.45,45.1501,-485.03,0,0
332021.775,44.9204,-484.143,0,0
332282.1,44.6378,-483.309,0,0
332542.425,44.5247,-482.419,0,0
332802.75,44.3306,-481.589,0,0
333063.075,44.1255,-480.699,0,0
333323.4,44.0677,-479.797,0,0
333583.725,43.9158,-478.949,0,0
333844.05,43.8421,-478.051,0,0
334104.375,43.7793,-477.178,0,0
334364.7,43.6661,-476.301,0,0
334625.025,43.6209,-475.443,0,0
334885.35,43.6129,-474.655,0,0
335145.675,43.6759,-473.854,0,0
335406.0,43.6624,-473.06,0,0
335666.325,43.7039,-472.286,0,0
335926.65,43.7117,-471.545,0,0
336186.975,43.7875,-470.835,0,0
336447.3,43.7714,-470.178,0,0
336707.625,43.7625,-469.508,0,0
336967.95,43.8103,-468.834,0,0
337228.275,43.7888,-468.228,0,0
337488.6,43.7865,-467.567,0,0
337748.925,43.7158,-466.902,0,0
338009.25,43.6805,-466.353,0,0
338269.575,43.6594,-465.688,0,0
338529.9,43.6509,-465.075,0,0
338790.225,43.5748,-464.507,0,0
339050.55,43.5143,-463.886,0,0
339310.875,43.4357,-463.314,0,0
339571.2,43.3971,-462.686,0,0
339831.525,43.2321,-462.092,0,0
340091.85,43.1452,-461.547,0,0
340352.175,43.0117,-460.876,0,0
340612.5,42.9019,-460.264,0,0
340872.825,42.7778,-459.674,0,0
341133.15,42.6433,-459.068,0,0
341393.475,42.5576,-458.424,0,0
341653.8,42.3913,-457.805,0,0
341914.125,42.248,-457.197,0,0
342174.45,42.1097,-456.555,0,0
342434.775,41.9773,-455.895,0,0
342695.1,41.8242,-455.281,0,0
342955.425,41.6429,-454.6,0,0
343215.75,41.476,-453.915,0,0
343476.075,41.3352,-453.239,0,0
343736.4,41.1813,-452.537,0,0
343996.725,41.0484,-451.806,0,0
344257.05,40.8907,-451.081,0,0
344517.375,40.8141,-450.331,0,0
344777.7,40.6724,-449.586,0,0
345038.025,40.6044,-448.83,0,0
345298.35,40.4872,-448.108,0,0
345558.675,40.4152,-447.385,0,0
345819.0,40.3692,-446.613,0,0
346079.325,40.3164,-445.937,0,0
346339.65,40.2983,-445.138,0,0
346599.975,40.2372,-444.358,0,0
346860,40.2789,-443.627,0,0
347121,40.2385,-442.879,0,0
347381,40.2498,-442.149,0,0
347641,40.2682,-441.474,0,0
347902,40.3255,-440.722,0,0
348162,40.3283,-439.975,0,0
348422,40.386,-439.291,0,0
348683,40.3895,-438.539,0,0
348943,40.494,-437.917,0,0
349203,40.571,-437.166,0,0
349464,40.5897,-436.533,0,0
349724,40.7088,-435.836,0,0
349984,40.836,-435.163,0,0
350245,40.9383,-434.546,0,0
350505,40.9887,-433.898,0,0
350765,41.0822,-433.282,0,0
351025,41.1776,-432.635,0,0
351286,41.2502,-432.037,0,0
351546,41.3428,-431.45,0,0
351806,41.422,-430.861,0,0
352067,41.4895,-430.249,0,0
352327,41.5969,-429.71,0,0
352587,41.6649,-429.102,0,0
352848,41.7477,-428.524,0,0
353108,41.8306,-427.989,0,0
353368,41.9005,-427.411,0,0
353629,41.9495,-426.85,0,0
353889,42.0429,-426.271,0,0
354149,42.1064,-425.715,0,0
354410,42.2126,-425.126,0,0
354670,42.3245,-424.601,0,0
354930,42.4341,-424.096,0,0
355191,42.4859,-423.59,0,0
355451,42.5459,-423.063,0,0
355711,42.6264,-422.565,0,0
355972,42.6986,-422.076,0,0
356232,42.7156,-421.59,0,0
356492,42.7458,-421.129,0,0
356753,42.772,-420.68,0,0
357013,42.7845,-420.151,0,0
357273,42.8184,-419.663,0,0
357534,42.7539,-419.168,0,0
357794,42.7653,-418.648,0,0
358054,42.7596,-418.13,0,0
358315,42.7354,-417.6,0,0
358575,42.6891,-417.031,0,0
358835,42.7233,-416.508,0,0
359096,42.6569,-415.952,0,0
359356,42.6601,-415.423,0,0
359616,42.6882,-414.846,0,0
359877,42.6763,-414.283,0,0
360137,42.6493,-413.743,0,0
360397,42.714,-413.119,0,0
360658,42.7255,-412.586,0,0
360918,42.7486,-411.993,0,0
361178,42.7054,-411.41,0,0
361438,42.7441,-410.853,0,0
361699,42.7503,-410.265,0,0
361959,42.7876,-409.651,0,0
362219,42.8182,-409.056,0,0
362480,42.8597,-408.441,0,0
362740.1,42.9402,-407.81,0,0
363000.425,43.0092,-407.141,0,0
363260.75,43.1167,-406.571,0,0
363521.075,43.2385,-405.961,0,0
363781.4,43.3683,-405.333,0,0
364041.725,43.4977,-404.754,0,0
364302.05,43.6305,-404.125,0,0
364562.375,43.7936,-403.541,0,0
364822.7,43.9406,-402.979,0,0
365083.025,44.1325,-402.4,0,0
365343.35,44.324,-401.815,0,0
365603.675,44.5291,-401.315,0,0
365864.0,44.7427,-400.739,0,0
366124.325,44.9372,-400.271,0,0
366384.65,45.2032,-399.763,0,0
366644.975,45.3933,-399.257,0,0
366905.3,45.597,-398.785,0,0
367165.625,45.8367,-398.331,0,0
367425.95,46.0182,-397.914,0,0
367686.275,46.199,-397.479,0,0
367946.6,46.3735,-397.08,0,0
368206.925,46.5326,-396.639,0,0
368467.25,46.7284,-396.169,0,0
368727.575,46.9263,-395.754,0,0
368987.9,47.1547,-395.344,0,0
369248.225,47.3327,-394.884,0,0
369508.55,47.5464,-394.408,0,0
369768.875,47.7934,-394.046,0,0
370029.2,48.0345,-393.635,0,0
370289.525,48.2843,-393.242,0,0
370549.85,48.5533,-392.901,0,0
370810.175,48.8049,-392.608,0,0
371070.5,49.0929,-392.316,0,0
371330.825,49.3424,-392.046,0,0
371591.15,49.5561,-391.841,0,0
371851.475,49.732,-391.65,0,0
372111.8,49.9369,-391.44,0,0
372372.125,50.0726,-391.291,0,0
372632.45,50.2075,-391.135,0,0
372892.775,50.2998,-390.994,0,0
373153.1,50.4025,-390.858,0,0
373413.425,50.3883,-390.737,0,0
373673.75,50.3869,-390.566,0,0
373934.075,50.2974,-390.407,0,0
374194.4,50.2287,-390.188,0,0
374454.725,50.1708,-389.935,0,0
374715.05,50.0733,-389.681,0,0
374975.375,49.9676,-389.427,0,0
375235.7,49.8874,-389.095,0,0
375496.025,49.8235,-388.756,0,0
375756.35,49.7865,-388.384,0,0
376016.675,49.7687,-388.018,0,0
376277.0,49.7288,-387.675,0,0
376537.325,49.762,-387.343,0,0
376797.65,49.7713,-386.984,0,0
377057.975,49.7891,-386.704,0,0
377318.3,49.8251,-386.421,0,0
377578.625,49.8368,-386.159,0,0
377838.95,49.8072,-385.966,0,0
378099.275,49.7837,-385.711,0,0
378359.6,49.649,-385.487,0,0
378619.925,49.531,-385.239,0,0
378880,49.37,-384.904,0,0
379141,49.2103,-384.534,0,0
379401,49.0957,-384.106,0,0
379661,48.9551,-383.683,0,0
379922,48.9513,-383.197,0,0
380182,48.9806,-382.71,0,0
380442,49.0599,-382.282,0,0
380703,49.2071,-381.872,0,0
380963,49.3828,-381.572,0,0
381223,49.5796,-381.367,0,0
381483,49.6771,-381.228,0,0
381744,49.7438,-381.202,0,0
382004,49.7565,-381.211,0,0
382264,49.5973,-381.2,0,0
382525,49.3121,-381.171,0,0
382785,48.9867,-381.047,0,0
383045,48.6278,-380.862,0,0
383306,48.2182,-380.624,0,0
383566,47.8269,-380.29,0,0
383826,47.4557,-379.897,0,0
384087,47.1252,-379.506,0,0
384347,46.8103,-379.02,0,0
384607,46.4977,-378.539,0,0
384868,46.1988,-378.042,0,0
385128,45.9264,-377.5,0,0
385388,45.7134,-376.988,0,0
385649,45.4549,-376.471,0,0
385909,45.2917,-375.872,0,0
386169,45.0713,-375.307,0,0
386430,44.9142,-374.752,0,0
386690,44.763,-374.153,0,0
386950,44.6108,-373.585,0,0
387211,44.5148,-372.95,0,0
387471,44.3533,-372.38,0,0
387731,44.2846,-371.749,0,0
387992,44.2153,-371.166,0,0
388252,44.1551,-370.512,0,0
388512,44.1036,-369.935,0,0
388773,44.0853,-369.318,0,0
389033,44.0999,-368.743,0,0
389293,44.1198,-368.155,0,0
389554,44.1525,-367.586,0,0
389814,44.1982,-367.061,0,0
390074,44.2469,-366.526,0,0
390335,44.3202,-366.02,0,0
390595,44.3482,-365.557,0,0
390855,44.377,-365.081,0,0
391116,44.3886,-364.59,0,0
391376,44.3831,-364.108,0,0
391636,44.4348,-363.641,0,0
391896,44.424,-363.156,0,0
392157,44.4284,-362.691,0,0
392417,44.4424,-362.217,0,0
392677,44.4111,-361.741,0,0
392938,44.4357,-361.291,0,0
393198,44.4155,-360.799,0,0
393458,44.3585,-360.315,0,0
393719,44.3762,-359.83,0,0
393979,44.3462,-359.302,0,0
394239,44.324,-358.825,0,0
394500,44.3319,-358.291,0,0
394760.05,44.3355,-357.773,0,0
395020.375,44.3624,-357.249,0,0
395280.7,44.3522,-356.703,0,0
395541.025,44.3906,-356.186,0,0
395801.35,44.4487,-355.63,0,0
396061.675,44.4969,-355.146,0,0
396322.0,44.5581,-354.626,0,0
396582.325,44.6274,-354.106,0,0
396842.65,44.6949,-353.631,0,0
397102.975,44.7441,-353.135,0,0
397363.3,44.8603,-352.677,0,0
397623.625,44.8839,-352.202,0,0
397883.95,44.9679,-351.732,0,0
398144.275,44.9926,-351.252,0,0
398404.6,45.0547,-350.812,0,0
398664.925,45.1118,-350.347,0,0
398925.25,45.1287,-349.874,0,0
399185.575,45.1526,-349.402,0,0
399445.9,45.2065,-348.942,0,0
399706.225,45.2455,-348.442,0,0
399966.55,45.2866,-347.967,0,0
400006.6,45.3092,-347.915,0,0