File: Accelerated corrosion test data/2025-10-03_18-00-02/sample_4.csv
Frequency (Hz),Impedance (ohms),Phase (Radians),Temperature (C),Humidity (%)
10000.0,267.426,-11746.7,0,0
10260.325,264.047,-11451.2,0,0
10520.65,253.804,-11170.5,0,0
10780.975,248.221,-10902.9,0,0
11041.3,243.25,-10647.3,0,0
11301.625,237.577,-10407,0,0
11561.95,232.276,-10173.3,0,0
11822.275,227.743,-9950.71,0,0
12082.6,222.958,-9738.15,0,0
12342.925,218.13,-9534.34,0,0
12603.25,215.745,-9337.05,0,0
12863.575,211.662,-9152.29,0,0
13123.9,211.078,-8976.07,0,0
13384.225,202.142,-8798.93,0,0
13644.55,199.345,-8630.23,0,0
13904.875,196.336,-8465.47,0,0
14165.2,198.771,-8306.03,0,0
14425.525,203.086,-8154.12,0,0
14685.8,201.03,-8045.59,0,0
14946.175,184.728,-7891.79,0,0
15206.5,183.624,-7749.39,0,0
15466.825,197.085,-7607.19,0,0
15727.15,191.576,-7506.62,0,0
15987.5,189.501,-7392.52,0,0
16247.8,173.668,-7266.81,0,0
16508.125,191,-7140.89,0,0
16768.45,182.105,-7042.86,0,0
17028.775,172.402,-6953.01,0,0
17289.1,162.901,-6841.78,0,0
17549.425,160.681,-6738.87,0,0
17809.75,158,-6638.87,0,0
18070.075,155.992,-6541.29,0,0
18330.4,156.612,-6446.04,0,0
18590.725,155.727,-6359.9,0,0
18851.05,151.989,-6275.16,0,0
19111.375,147.548,-6187.39,0,0
19371.7,145.175,-6102.89,0,0
19632.025,144.048,-6019.81,0,0
19892.35,146.091,-5939.96,0,0
20152.675,145.895,-5864.39,0,0
20413.0,142.694,-5791.93,0,0
20673.3,142.027,-5716.95,0,0
20933.65,139.55,-5645.19,0,0
21193.975,141.903,-5571.37,0,0
21454.3,154.165,-5507.33,0,0
21714.625,145.356,-5448.56,0,0
21974.9,152.641,-5381.54,0,0
22235.275,149.312,-5332.21,0,0
22495.6,137.61,-5277.72,0,0
22755.925,130.133,-5214.04,0,0
23016.25,127.141,-5152.56,0,0
23276.6,124.553,-5093.24,0,0
23536.9,123.173,-5036.68,0,0
23797.225,120.873,-4980.46,0,0
24057.55,119.121,-4925.07,0,0
24317.875,117.871,-4872.01,0,0
24578.2,116.95,-4818.93,0,0
24838.525,116.727,-4767.54,0,0
25098.85,117.165,-4717.53,0,0
25359.175,114.725,-4669.68,0,0
25619.5,114.1,-4621.43,0,0
25879.8,112.371,-4577.23,0,0
26140.1,110.552,-4529.13,0,0
26400.5,109.132,-4482.82,0,0
26660.8,109.31,-4437.78,0,0
26921.1,108.294,-4394.36,0,0
27181.4,107.55,-4349.7,0,0
27441.8,108.22,-4305.46,0,0
27702.1,110.949,-4261.84,0,0
27962.4,119.325,-4223.61,0,0
28222.7,121.32,-4191.67,0,0
28483.1,116.045,-4158.59,0,0
28743.4,111.638,-4119.55,0,0
29003.7,112.628,-4078.72,0,0
29264,117.901,-4045.26,0,0
29524.4,113.438,-4016.31,0,0
29784.7,108.709,-3982.27,0,0
30045,108.903,-3948.32,0,0
30305.3,102.868,-3914.17,0,0
30565.7,101.797,-3879.11,0,0
30826,100.459,-3845.37,0,0
31086.3,100.203,-3811.74,0,0
31346.6,101.008,-3779.31,0,0
31607,100.145,-3749.14,0,0
31867.3,98.3149,-3718.01,0,0
32127.6,100.563,-3687.56,0,0
32387.9,98.9091,-3660.4,0,0
32648.3,98.4373,-3630.71,0,0
32908.6,95.8205,-3604.52,0,0
33168.9,93.9917,-3575.84,0,0
33429.2,91.701,-3546.87,0,0
33689.6,90.2329,-3518.89,0,0
33949.9,89.3048,-3490.31,0,0
34210.2,89.3514,-3463.37,0,0
34470.5,87.6967,-3437.7,0,0
34730.9,86.6165,-3410.63,0,0
34991.2,86.1478,-3384.01,0,0
35251.5,85.8137,-3358.86,0,0
35511.8,84.7115,-3333.59,0,0
35772.2,84.2646,-3308.86,0,0
36032.5,83.4671,-3284.41,0,0
36292.8,82.7005,-3260.07,0,0
36553.1,82.495,-3235.71,0,0
36813.5,82.1227,-3212.05,0,0
37073.8,82.409,-3189.8,0,0
37334.1,81.1303,-3166.93,0,0
37594.4,80.5358,-3144.06,0,0
37854.8,80.538,-3122.03,0,0
38115.1,79.6385,-3100.48,0,0
38375.4,78.9193,-3078.25,0,0
38635.7,78.7352,-3056.25,0,0
38896.1,79.1629,-3035.3,0,0
39156.4,78.5479,-3014.54,0,0
39416.7,78.1083,-2993.75,0,0
39677,77.8286,-2972.58,0,0
39937.4,78.1798,-2951.96,0,0
40197.7,79.7725,-2931.49,0,0
40458,82.086,-2913.92,0,0
40718.3,79.9126,-2896.17,0,0
40978.7,80.4794,-2876.41,0,0
41239,81.092,-2857.38,0,0
41499.3,83.733,-2841.97,0,0
41759.6,80.5074,-2826,0,0
42020,79.0292,-2807.64,0,0
42280.275,78.2646,-2788.38,0,0
42540.6,79.7244,-2771.91,0,0
42800.925,78.1727,-2756.36,0,0
43061.25,76.7544,-2738.4,0,0
43321.575,77.15,-2722.32,0,0
43581.9,75.7113,-2705.61,0,0
43842.225,75.163,-2688.41,0,0
44102.55,74.8134,-2672.94,0,0
44362.875,73.5008,-2656.24,0,0
44623.2,73.3847,-2639.74,0,0
44883.525,73.0916,-2623.93,0,0
45143.85,72.2397,-2608.04,0,0
45404.175,71.9904,-2591.83,0,0
45664.5,73.3031,-2575.62,0,0
45924.825,73.812,-2561.61,0,0
46185.15,72.2271,-2547.81,0,0
46445.475,71.8904,-2531.71,0,0
46705.8,72.645,-2516.76,0,0
46966.125,72.866,-2503.07,0,0
47226.45,73.3838,-2489.39,0,0
47486.775,72.2862,-2477.21,0,0
47747.1,71.2515,-2462.87,0,0
48007.425,70.2533,-2448.89,0,0
48267.75,69.8648,-2434.71,0,0
48528.075,69.1393,-2421.49,0,0
48788.4,68.2693,-2408.11,0,0
49048.725,67.2865,-2394.01,0,0
49309.05,67.6542,-2380.41,0,0
49569.375,66.8033,-2367.53,0,0
49829.7,66.3394,-2353.86,0,0
50090.025,66.0355,-2340.58,0,0
50350.35,65.9421,-2327.46,0,0
50610.675,65.8343,-2314.54,0,0
50871.0,65.4516,-2301.94,0,0
51131.325,65.2056,-2288.98,0,0
51391.65,65.0801,-2275.92,0,0
51651.975,65.5685,-2263.51,0,0
51912.3,65.3141,-2251.1,0,0
52172.625,65.7632,-2238.6,0,0
52432.95,65.5612,-2226.29,0,0
52693.275,66.2033,-2213.4,0,0
52953.6,67.6345,-2201.4,0,0
53213.925,68.0461,-2189.95,0,0
53474.25,68.8422,-2178.04,0,0
53734.575,70.5748,-2165.98,0,0
53994.9,73.3081,-2155.34,0,0
54255.225,75.0531,-2145.6,0,0
54515.55,77.6155,-2137.37,0,0
54775.875,76.8951,-2130.51,0,0
55036.2,74.9016,-2121.13,0,0
55296.525,74.5319,-2111.66,0,0
55556.85,72.9092,-2102.32,0,0
55817.175,71.8132,-2092.5,0,0
56077.5,69.7959,-2082.43,0,0
56337.825,68.4671,-2071.82,0,0
56598.15,67.3913,-2060.52,0,0
56858.475,67.0937,-2049.53,0,0
57118.8,67.179,-2038.53,0,0
57379.125,67.3987,-2028.29,0,0
57639.45,67.6336,-2017.97,0,0
57899.775,67.8011,-2007.61,0,0
58160.1,68.2544,-1997.5,0,0
58420.4,69.2057,-1987.63,0,0
58680.7,69.2414,-1978.45,0,0
58941.1,69.2679,-1968.03,0,0
59201.4,70.5458,-1957.15,0,0
59461.7,72.9469,-1947.52,0,0
59722,75.4026,-1938.78,0,0
59982.4,78.0456,-1931.97,0,0
60242.7,78.3938,-1924.79,0,0
60503,80.018,-1916.87,0,0
60763.3,82.7454,-1911.19,0,0
61023.7,82.0552,-1907.77,0,0
61284,79.545,-1902.7,0,0
61544.3,75.1148,-1895.82,0,0
61804.6,73.002,-1886.24,0,0
62065,71.374,-1877.86,0,0
62325.3,69.855,-1870,0,0
62585.6,66.8926,-1860.74,0,0
62845.9,66.3348,-1850.67,0,0
63106.3,65.9373,-1841.26,0,0
63366.6,66.1882,-1832.32,0,0
63626.9,66.1799,-1824.01,0,0
63887.2,65.6814,-1815.82,0,0
64147.6,65.1727,-1806.93,0,0
64407.9,65.44,-1797.8,0,0
64668.2,66.2089,-1789.65,0,0
64928.5,66.4415,-1781.9,0,0
65188.9,66.5884,-1773.6,0,0
65449.2,67.1818,-1765.83,0,0
65709.5,67.1907,-1757.76,0,0
65969.8,68.511,-1749.69,0,0
66230.2,69.5234,-1742.72,0,0
66490.5,70.0406,-1735.64,0,0
66750.8,70.562,-1728.71,0,0
67011.1,71.0754,-1721.49,0,0
67271.5,72.0405,-1714.55,0,0
67531.8,73.043,-1708.13,0,0
67792.1,74.1033,-1702.21,0,0
68052.4,74.8332,-1696.81,0,0
68312.8,74.9466,-1691.78,0,0
68573.1,74.507,-1686.74,0,0
68833.4,73.3726,-1681.67,0,0
69093.7,71.4958,-1676.15,0,0
69354.1,69.5343,-1669.88,0,0
69614.4,67.7763,-1662.87,0,0
69874.7,66.6782,-1655.51,0,0
70135,65.9986,-1648.47,0,0
70395.4,64.8937,-1641.09,0,0
70655.7,65.261,-1632.98,0,0
70916,66.5849,-1627.03,0,0
71176.3,66.0885,-1621.73,0,0
71436.7,65.4501,-1615.6,0,0
71697,65.2947,-1610.14,0,0
71957.3,63.4885,-1604.74,0,0
72217.6,61.3036,-1598,0,0
72478,60.2016,-1590.41,0,0
72738.3,59.6133,-1583.43,0,0
72998.6,58.6756,-1576.23,0,0
73258.9,58.2812,-1568.49,0,0
73519.3,58.6735,-1561.21,0,0
73779.6,59.0403,-1554.35,0,0
74039.9,59.5475,-1547.77,0,0
74300.225,59.7901,-1541.36,0,0
74560.55,60.1593,-1534.96,0,0
74820.875,60.5546,-1528.57,0,0
75081.2,61.2271,-1522.31,0,0
75341.525,61.8669,-1516.5,0,0
75601.85,62.2825,-1510.89,0,0
75862.175,62.5227,-1505.13,0,0
76122.5,62.9167,-1499.44,0,0
76382.825,63.2063,-1494.21,0,0
76643.15,62.9656,-1488.69,0,0
76903.475,62.8657,-1482.42,0,0
77163.8,63.9228,-1476.26,0,0
77424.125,65.217,-1471.13,0,0
77684.45,66.0275,-1466.64,0,0
77944.775,66.294,-1462.45,0,0
78205.1,66.0139,-1458.1,0,0
78465.425,65.6036,-1453.63,0,0
78725.75,64.95,-1449.02,0,0
78986.075,64.0616,-1444.17,0,0
79246.4,63.1542,-1438.96,0,0
79506.725,62.4101,-1433.52,0,0
79767.05,61.9129,-1428.1,0,0
80027.375,61.4686,-1422.65,0,0
80287.7,61.1633,-1417.15,0,0
80548.025,61.011,-1411.83,0,0
80808.35,60.8786,-1406.51,0,0
81068.675,60.8092,-1401.36,0,0
81329.0,60.673,-1396.28,0,0
81589.325,60.4783,-1391.26,0,0
81849.65,60.2324,-1386.28,0,0
82109.975,59.9878,-1381.22,0,0
82370.3,59.7307,-1376.21,0,0
82630.625,59.5166,-1371.09,0,0
82890.95,59.3131,-1366.13,0,0
83151.275,59.0787,-1361.17,0,0
83411.6,58.8484,-1356.23,0,0
83671.925,58.7162,-1351.21,0,0
83932.25,58.5035,-1346.26,0,0
84192.575,58.3626,-1341.33,0,0
84452.9,58.1448,-1336.42,0,0
84713.225,58.0271,-1331.59,0,0
84973.55,57.9562,-1326.72,0,0
85233.875,57.9374,-1321.94,0,0
85494.2,57.7714,-1317.2,0,0
85754.525,57.5595,-1312.51,0,0
86014.85,57.4975,-1307.76,0,0
86275.175,57.4239,-1303.01,0,0
86535.5,57.4302,-1298.34,0,0
86795.825,57.3729,-1293.78,0,0
87056.15,57.2409,-1289.33,0,0
87316.475,57.0458,-1284.8,0,0
87576.8,56.9069,-1280.41,0,0
87837.125,56.6365,-1276.21,0,0
88097.45,56.0357,-1271.76,0,0
88357.775,55.4035,-1267.12,0,0
88618.1,54.9295,-1262.26,0,0
88878.425,54.5784,-1257.38,0,0
89138.75,54.5171,-1252.54,0,0
89399.075,54.3002,-1247.72,0,0
89659.4,54.3263,-1243.03,0,0
89919.725,54.3832,-1238.4,0,0
90180,54.4254,-1233.87,0,0
90440.4,54.2033,-1229.34,0,0
90700.7,54.1715,-1224.76,0,0
90961,54.0856,-1220.15,0,0
91221.3,54.066,-1215.48,0,0
91481.7,54.1675,-1210.9,0,0
91742,54.2667,-1206.26,0,0
92002.3,54.5585,-1201.82,0,0
92262.6,54.8443,-1197.4,0,0
92523,55.0753,-1193.21,0,0
92783.3,55.367,-1189.08,0,0
93043.6,55.48,-1185.08,0,0
93303.9,55.419,-1181.05,0,0
93564.3,55.3379,-1177.06,0,0
93824.6,55.093,-1173.04,0,0
94084.9,54.8171,-1168.85,0,0
94345.2,54.5187,-1164.54,0,0
94605.6,54.2606,-1160.19,0,0
94865.9,54.0664,-1155.72,0,0
95126.2,53.9656,-1151.15,0,0
95386.5,54.0092,-1146.8,0,0
95646.9,54.0648,-1142.28,0,0
95907.2,54.2684,-1137.83,0,0
96167.5,54.4945,-1133.47,0,0
96427.8,54.7206,-1129.2,0,0
96688.2,54.9215,-1124.94,0,0
96948.5,55.0955,-1120.71,0,0
97208.8,55.3365,-1116.37,0,0
97469.1,55.6606,-1112.16,0,0
97729.5,55.8758,-1108,0,0
97989.8,56.1081,-1103.67,0,0
98250.1,56.4676,-1099.37,0,0
98510.4,56.8803,-1095.1,0,0
98770.8,57.3544,-1090.82,0,0
99031.1,57.9761,-1086.57,0,0
99291.4,58.7942,-1082.47,0,0
99551.7,59.4582,-1078.65,0,0
99812.1,59.9118,-1074.74,0,0
100072,60.5419,-1070.58,0,0
100333,61.5865,-1066.48,0,0
100593,62.904,-1062.84,0,0
100853,63.9866,-1059.81,0,0
101114,64.7611,-1056.83,0,0
101374,65.4609,-1054.03,0,0
101634,65.8247,-1051.61,0,0
101895,65.4681,-1049.33,0,0
102155,64.3107,-1046.47,0,0
102415,63.2297,-1042.81,0,0
102676,62.428,-1038.99,0,0
102936,61.4228,-1034.84,0,0
103196,60.6553,-1030.2,0,0
103457,60.3245,-1025.17,0,0
103717,60.4131,-1020.13,0,0
103977,60.9633,-1015.12,0,0
104238,61.7222,-1010.47,0,0
104498,62.4571,-1005.75,0,0
104758,63.6189,-1001.09,0,0
105019,64.9354,-996.692,0,0
105279,66.2419,-992.566,0,0
105539,67.6086,-988.505,0,0
105800,69.0195,-984.588,0,0
106060,70.4356,-980.852,0,0
106320.175,71.7905,-977.143,0,0
106580.5,73.3033,-973.494,0,0
106840.825,74.7769,-970.063,0,0
107101.15,76.158,-966.705,0,0
107361.475,77.4633,-963.348,0,0
107621.8,78.7882,-959.88,0,0
107882.125,80.3072,-956.428,0,0
108142.45,81.9646,-953.143,0,0
108402.775,83.7456,-949.985,0,0
108663.1,85.5754,-947.005,0,0
108923.425,87.3302,-944.329,0,0
109183.75,89.0062,-941.732,0,0
109444.075,90.7357,-939.308,0,0
109704.4,92.2749,-937.092,0,0
109964.725,93.6484,-934.859,0,0
110225.05,94.9802,-932.571,0,0
110485.375,96.3544,-930.527,0,0
110745.7,97.6449,-928.439,0,0
111006.025,98.7498,-926.506,0,0
111266.35,99.8251,-924.643,0,0
111526.675,100.657,-922.716,0,0
111787.0,101.71,-920.76,0,0
112047.325,102.571,-918.91,0,0
112307.65,103.672,-917.117,0,0
112567.975,104.354,-915.485,0,0
112828.3,105.135,-913.759,0,0
113088.625,105.72,-912.064,0,0
113348.95,106.313,-910.474,0,0
113609.275,106.759,-908.894,0,0
113869.6,107.136,-907.317,0,0
114129.925,107.448,-905.702,0,0
114390.25,107.657,-904.078,0,0
114650.575,107.925,-902.539,0,0
114910.9,108.029,-900.941,0,0
115171.225,108.153,-899.417,0,0
115431.55,108.007,-897.953,0,0
115691.875,107.694,-896.377,0,0
115952.2,107.401,-894.617,0,0
116212.525,107.131,-892.896,0,0
116472.85,106.697,-891.25,0,0
116733.175,106.02,-889.421,0,0
116993.5,105.274,-887.464,0,0
117253.825,104.55,-885.282,0,0
117514.15,103.82,-882.919,0,0
117774.475,103.144,-880.434,0,0
118034.8,102.505,-877.768,0,0
118295.125,102.017,-874.872,0,0
118555.45,101.677,-871.838,0,0
118815.775,101.699,-868.55,0,0
119076.1,102.205,-865.211,0,0
119336.425,103.255,-862.265,0,0
119596.75,104.723,-859.789,0,0
119857.075,106.27,-857.97,0,0
120117.4,107.874,-856.964,0,0
120377.725,108.629,-856.834,0,0
120638.05,108.422,-856.946,0,0
120898.375,107.086,-856.618,0,0
121158.7,105.455,-855.464,0,0
121419.025,103.84,-853.714,0,0
121679.35,102.429,-851.657,0,0
121939.675,101.143,-849.41,0,0
122200.0,99.9856,-847.042,0,0
122460,98.9151,-844.536,0,0
122721,97.9556,-841.916,0,0
122981,97.1643,-839.294,0,0
123241,96.4017,-836.665,0,0
123502,95.7427,-834.041,0,0
123762,95.1274,-831.426,0,0
124022,94.4892,-828.885,0,0
124283,93.8661,-826.402,0,0
124543,93.1588,-823.789,0,0
124803,92.5139,-821.088,0,0
125064,91.9799,-818.329,0,0
125324,91.5393,-815.699,0,0
125584,91.0203,-813.073,0,0
125845,90.5725,-810.458,0,0
126105,90.1853,-807.957,0,0
126365,89.7081,-805.633,0,0
126626,88.9785,-803.22,0,0
126886,88.168,-800.652,0,0
127146,87.4009,-798.03,0,0
127406,86.6217,-795.256,0,0
127667,86.0778,-792.515,0,0
127927,85.3736,-789.976,0,0
128187,84.5531,-787.385,0,0
128448,83.5862,-784.631,0,0
128708,82.6961,-781.78,0,0
128968,81.7016,-778.904,0,0
129229,80.6959,-775.947,0,0
129489,79.6478,-772.766,0,0
129749,78.6755,-769.403,0,0
130010,77.8374,-765.94,0,0
130270,77.1207,-762.454,0,0
130530,76.483,-758.969,0,0
130791,75.861,-755.424,0,0
131051,75.3108,-751.826,0,0
131311,74.8086,-748.162,0,0
131572,74.5338,-744.467,0,0
131832,74.2772,-740.829,0,0
132092,74.0367,-737.241,0,0
132353,73.7616,-733.554,0,0
132613,73.6309,-729.808,0,0
132873,73.5933,-726.116,0,0
133134,73.6101,-722.444,0,0
133394,73.617,-718.768,0,0
133654,73.6704,-715.077,0,0
133915,73.8174,-711.369,0,0
134175,74.0032,-707.643,0,0
134435,74.2687,-703.986,0,0
134696,74.5092,-700.275,0,0
134956,74.8718,-696.573,0,0
135216,75.3289,-692.873,0,0
135477,75.8224,-689.213,0,0
135737,76.3811,-685.666,0,0
135997,76.9164,-682.168,0,0
136258,77.4093,-678.669,0,0
136518,77.9854,-675.081,0,0
136778,78.6775,-671.602,0,0
137039,79.3969,-668.177,0,0
137299,80.0697,-664.946,0,0
137559,80.5536,-661.74,0,0
137819,80.9774,-658.464,0,0
138080,81.2864,-655.071,0,0
138340.125,81.6286,-651.525,0,0
138600.45,82.1051,-647.914,0,0
138860.775,82.5907,-644.297,0,0
139121.1,83.1214,-640.586,0,0
139381.425,83.7602,-636.832,0,0
139641.75,84.4884,-633.093,0,0
139902.075,85.2136,-629.365,0,0
140162.4,85.9791,-625.577,0,0
140422.725,86.8599,-621.755,0,0
140683.05,87.8356,-617.963,0,0
140943.375,88.8756,-614.148,0,0
141203.7,90.0249,-610.4,0,0
141464.025,91.1787,-606.736,0,0
141724.35,92.3335,-603.083,0,0
141984.675,93.4888,-599.43,0,0
142245.0,94.6675,-595.744,0,0
142505.325,95.9043,-592.021,0,0
142765.65,97.1737,-588.318,0,0
143025.975,98.4725,-584.598,0,0
143286.3,99.8672,-580.846,0,0
143546.625,101.296,-577.112,0,0
143806.95,102.774,-573.357,0,0
144067.275,104.293,-569.61,0,0
144327.6,105.908,-565.831,0,0
144587.925,107.59,-562.061,0,0
144848.25,109.369,-558.306,0,0
145108.575,111.212,-554.627,0,0
145368.9,113.091,-550.938,0,0
145629.225,115.018,-547.261,0,0
145889.55,116.987,-543.643,0,0
146149.875,118.957,-539.952,0,0
146410.2,121.069,-536.251,0,0
146670.525,123.309,-532.61,0,0
146930.85,125.567,-529.069,0,0
147191.175,127.838,-525.538,0,0
147451.5,130.164,-522.007,0,0
147711.825,132.554,-518.498,0,0
147972.15,134.902,-515.03,0,0
148232.475,137.286,-511.407,0,0
148492.8,139.864,-507.74,0,0
148753.125,142.577,-504.126,0,0
149013.45,145.429,-500.526,0,0
149273.775,148.399,-496.986,0,0
149534.1,151.464,-493.494,0,0
149794.425,154.657,-490.052,0,0
150054.75,157.961,-486.694,0,0
150315.075,161.332,-483.401,0,0
150575.4,164.846,-480.07,0,0
150835.725,168.581,-476.813,0,0
151096.05,172.531,-473.726,0,0
151356.375,176.631,-470.902,0,0
151616.7,180.735,-468.332,0,0
151877.025,184.828,-465.843,0,0
152137.35,189.036,-463.421,0,0
152397.675,193.411,-461.116,0,0
152658.0,197.948,-459.173,0,0
152918.325,202.523,-457.534,0,0
153178.65,207.035,-456.256,0,0
153438.975,211.372,-455.282,0,0
153699.3,215.522,-454.499,0,0
153959.625,219.463,-453.925,0,0
154219.95,223.171,-453.459,0,0
154480,226.584,-453.039,0,0
154741,229.695,-452.661,0,0
155001,232.66,-452.025,0,0
155261,235.669,-451.131,0,0
155522,238.824,-450.263,0,0
155782,242.076,-449.545,0,0
156042,245.18,-448.948,0,0
156303,248.139,-448.394,0,0
156563,250.96,-447.837,0,0
156823,253.419,-447.087,0,0
157084,256.046,-445.904,0,0
157344,259.071,-444.661,0,0
157604,261.885,-443.545,0,0
157864,264.878,-442.004,0,0
158125,268.567,-440.204,0,0
158385,272.794,-438.877,0,0
158645,276.994,-438.061,0,0
158906,281.465,-437.32,0,0
159166,286.15,-437.159,0,0
159426,290.759,-437.554,0,0
159687,295.301,-438.317,0,0
159947,299.606,-439.566,0,0
160207,303.528,-441.383,0,0
160468,306.833,-443.257,0,0
160728,309.887,-445.195,0,0
160988,312.703,-447.485,0,0
161249,314.622,-450.048,0,0
161509,315.562,-452.117,0,0
161769,316.172,-453.438,0,0
162030,316.726,-454.219,0,0
162290,317.17,-454.537,0,0
162550,318.048,-454.129,0,0
162811,319.286,-453.796,0,0
163071,320.617,-453.396,0,0
163331,321.938,-452.777,0,0
163592,323.332,-451.926,0,0
163852,324.995,-450.816,0,0
164112,327.038,-449.484,0,0
164373,329.725,-447.919,0,0
164633,332.934,-446.8,0,0
164893,336.307,-446.183,0,0
165154,339.747,-445.88,0,0
165414,343.054,-445.623,0,0
165674,346.433,-445.294,0,0
165935,350.018,-444.946,0,0
166195,353.98,-444.765,0,0
166455,358.335,-444.62,0,0
166716,363.195,-444.853,0,0
166976,368.474,-445.721,0,0
167236,373.847,-447.274,0,0
167497,379.296,-449.446,0,0
167757,384.947,-452.442,0,0
168017,390.405,-456.494,0,0
168277,395.181,-461.581,0,0
168538,398.938,-467.172,0,0
168798,401.979,-472.835,0,0
169058,404.48,-478.658,0,0
169319,406.509,-484.709,0,0
169579,407.953,-491.076,0,0
169839,408.592,-497.553,0,0
170100,408.781,-503.908,0,0
170360.075,408.55,-510.702,0,0
170620.4,407.282,-518.044,0,0
170880.725,404.542,-525.232,0,0
171141.05,400.476,-531.743,0,0
171401.375,395.667,-537.114,0,0
171661.7,390.622,-541.696,0,0
171922.025,385.219,-545.657,0,0
172182.35,379.505,-548.959,0,0
172442.675,373.547,-551.705,0,0
172703.0,367.098,-553.799,0,0
172963.325,360.273,-554.834,0,0
173223.65,353.721,-554.719,0,0
173483.975,347.575,-554.082,0,0
173744.3,341.496,-552.808,0,0
174004.625,335.788,-550.862,0,0
174264.95,330.381,-548.512,0,0
174525.275,325.245,-545.557,0,0
174785.6,320.694,-542.116,0,0
175045.925,316.629,-538.532,0,0
175306.25,312.756,-534.718,0,0
175566.575,309.211,-530.522,0,0
175826.9,306.224,-525.975,0,0
176087.225,303.772,-521.315,0,0
176347.55,301.76,-516.657,0,0
176607.875,300.132,-511.995,0,0
176868.2,298.864,-507.321,0,0
177128.525,297.917,-502.723,0,0
177388.85,297.312,-498.134,0,0
177649.175,297.061,-493.677,0,0
177909.5,297.086,-489.467,0,0
178169.825,297.162,-485.481,0,0
178430.15,297.265,-481.578,0,0
178690.475,297.438,-477.667,0,0
178950.8,297.769,-473.77,0,0
179211.125,298.185,-469.943,0,0
179471.45,298.714,-466.145,0,0
179731.775,299.388,-462.397,0,0
179992.1,300.146,-458.711,0,0
180252.425,300.959,-455.143,0,0
180512.75,301.734,-451.613,0,0
180773.075,302.54,-448.046,0,0
181033.4,303.413,-444.449,0,0
181293.725,304.352,-440.862,0,0
181554.05,305.304,-437.272,0,0
181814.375,306.282,-433.663,0,0
182074.7,307.279,-430.035,0,0
182335.025,308.268,-426.298,0,0
182595.35,309.286,-422.422,0,0
182855.675,310.397,-418.45,0,0
183116.0,311.609,-414.329,0,0
183376.325,312.972,-410.054,0,0
183636.65,314.482,-405.664,0,0
183896.975,316.222,-401.188,0,0
184157.3,318.172,-396.648,0,0
184417.625,320.312,-392.098,0,0
184677.95,322.64,-387.524,0,0
184938.275,325.076,-382.909,0,0
185198.6,327.707,-378.227,0,0
185458.925,330.559,-373.434,0,0
185719.25,333.695,-368.607,0,0
185979.575,337.104,-363.794,0,0
186239.9,340.776,-359.05,0,0
186500,344.626,-354.408,0,0
186761,348.635,-349.697,0,0
187021,352.953,-345.06,0,0
187281,357.395,-340.439,0,0
187542,362.121,-335.83,0,0
187802,367.135,-331.29,0,0
188062,372.48,-326.842,0,0
188322,378.09,-322.41,0,0
188583,383.92,-318.173,0,0
188843,389.996,-313.998,0,0
189103,396.4,-310.027,0,0
189364,403.093,-306.157,0,0
189624,409.936,-302.476,0,0
189884,417.205,-298.859,0,0
190145,424.691,-295.531,0,0
190405,432.564,-292.479,0,0
190665,440.721,-289.706,0,0
190926,449.164,-287.334,0,0
191186,457.697,-285.341,0,0
191446,466.38,-283.677,0,0
191707,475.311,-282.354,0,0
191967,484.333,-281.354,0,0
192227,493.391,-280.834,0,0
192488,502.49,-280.609,0,0
192748,511.689,-280.689,0,0
193008,521.011,-281.306,0,0
193269,530.218,-282.198,0,0
193529,539.4,-283.474,0,0
193789,548.441,-285.064,0,0
194050,557.411,-286.81,0,0
194310,566.42,-288.789,0,0
194570,575.539,-291.07,0,0
194831,584.563,-293.722,0,0
195091,593.544,-296.668,0,0
195351,602.373,-299.859,0,0
195612,611.175,-303.133,0,0
195872,620.014,-306.658,0,0
196132,628.969,-310.393,0,0
196393,637.917,-314.406,0,0
196653,646.952,-318.699,0,0
196913,656.14,-323.25,0,0
197174,665.507,-328.244,0,0
197434,674.972,-333.779,0,0
197694,684.464,-339.903,0,0
197955,693.898,-346.675,0,0
198215,703.14,-354.057,0,0
198475,712.093,-362.051,0,0
198735,720.813,-370.52,0,0
198996,729.312,-379.624,0,0
199256,737.454,-389.384,0,0
199516,745.061,-399.889,0,0
199777,751.833,-410.891,0,0
200037,757.934,-422.276,0,0
200297,763.47,-433.798,0,0
200558,768.216,-445.631,0,0
200818,772.371,-457.649,0,0
201078,775.734,-469.993,0,0
201339,778.234,-482.392,0,0
201599,779.847,-494.392,0,0
201859,780.795,-506.142,0,0
202120,781.349,-517.659,0,0
202380.025,781.565,-529.085,0,0
202640.35,780.87,-540.223,0,0
202900.675,779.491,-550.729,0,0
203161.0,777.957,-560.326,0,0
203421.325,776.891,-569.486,0,0
203681.65,775.852,-578.722,0,0
203941.975,774.805,-588.061,0,0
204202.3,773.464,-597.456,0,0
204462.625,771.617,-606.721,0,0
204722.95,769.76,-615.545,0,0
204983.275,768.008,-624.03,0,0
205243.6,766.318,-633.113,0,0
205503.925,764.3,-642.212,0,0
205764.25,761.761,-651.229,0,0
206024.575,758.985,-659.938,0,0
206284.9,756.104,-668.394,0,0
206545.225,753.424,-676.865,0,0
206805.55,750.752,-685.657,0,0
207065.875,747.965,-694.776,0,0
207326.2,744.402,-704.354,0,0
207586.525,740.087,-714.097,0,0
207846.85,735.045,-723.674,0,0
208107.175,729.149,-733.051,0,0
208367.5,722.427,-742.028,0,0
208627.825,714.948,-750.293,0,0
208888.15,706.968,-757.784,0,0
209148.475,698.67,-764.454,0,0
209408.8,690.183,-770.16,0,0
209669.125,681.732,-775.083,0,0
209929.45,673.418,-779.113,0,0
210189.775,665.384,-782.673,0,0
210450.1,657.735,-785.769,0,0
210710.425,650.3,-788.435,0,0
210970.75,642.931,-790.912,0,0
211231.075,635.673,-792.92,0,0
211491.4,628.544,-794.342,0,0
211751.725,621.764,-795.333,0,0
212012.05,615.433,-795.756,0,0
212272.375,609.512,-795.957,0,0
212532.7,604.043,-795.899,0,0
212793.025,599.103,-795.608,0,0
213053.35,594.64,-795.277,0,0
213313.675,590.679,-794.957,0,0
213574.0,586.978,-794.577,0,0
213834.325,583.867,-794.067,0,0
214094.65,581.307,-793.662,0,0
214354.975,579.368,-793.533,0,0
214615.3,577.986,-793.851,0,0
214875.625,576.796,-794.805,0,0
215135.95,575.831,-796.389,0,0
215396.275,574.753,-798.345,0,0
215656.6,573.562,-800.903,0,0
215916.925,572.129,-803.881,0,0
216177.25,570.397,-807.116,0,0
216437.575,568.28,-810.623,0,0
216697.9,565.915,-814.191,0,0
216958.225,563.18,-817.809,0,0
217218.55,560.251,-821.492,0,0
217478.875,557.035,-825.067,0,0
217739.2,553.605,-828.7,0,0
217999.525,549.919,-832.241,0,0
218259.85,545.971,-835.677,0,0
218520,541.792,-838.931,0,0
218780,537.672,-841.915,0,0
219041,533.579,-844.757,0,0
219301,529.655,-847.651,0,0
219561,525.758,-850.753,0,0
219822,521.612,-854.086,0,0
220082,517.094,-857.457,0,0
220342,512.242,-860.829,0,0
220603,507.213,-863.977,0,0
220863,501.915,-867.026,0,0
221123,496.404,-869.951,0,0
221384,490.659,-872.731,0,0
221644,484.551,-875.266,0,0
221904,478.295,-877.53,0,0
222165,471.932,-879.265,0,0
222425,465.525,-880.69,0,0
222685,459.392,-881.723,0,0
222946,453.284,-882.668,0,0
223206,447.281,-883.685,0,0
223466,441.208,-884.523,0,0
223727,435.086,-885.19,0,0
223987,428.842,-885.601,0,0
224247,422.716,-885.809,0,0
224508,416.665,-885.942,0,0
224768,410.555,-885.969,0,0
225028,404.448,-885.932,0,0
225289,398.328,-885.664,0,0
225549,392.075,-885.353,0,0
225809,385.645,-884.766,0,0
226070,379.239,-883.805,0,0
226330,372.825,-882.539,0,0
226590,366.542,-881.012,0,0
226851,360.393,-879.063,0,0
227111,354.598,-877.041,0,0
227371,348.887,-874.883,0,0
227632,343.302,-872.75,0,0
227892,337.676,-870.379,0,0
228152,332.146,-867.823,0,0
228413,326.717,-864.909,0,0
228673,321.439,-861.838,0,0
228933,316.37,-858.504,0,0
229193,311.653,-855.052,0,0
229454,307.118,-851.464,0,0
229714,302.759,-847.733,0,0
229974,298.69,-843.832,0,0
230235,294.889,-839.864,0,0
230495,291.482,-835.98,0,0
230755,288.341,-831.984,0,0
231016,285.371,-828.107,0,0
231276,282.67,-824.324,0,0
231536,280.168,-820.551,0,0
231797,277.8,-816.973,0,0
232057,275.512,-813.477,0,0
232317,273.236,-809.939,0,0
232578,271.189,-806.359,0,0
232838,269.306,-802.862,0,0
233098,267.545,-799.359,0,0
233359,265.994,-795.958,0,0
233619,264.618,-792.613,0,0
233879,263.39,-789.412,0,0
234140,262.316,-786.302,0,0
234400,261.181,-783.337,0,0
234660.3,260.152,-780.424,0,0
234920.625,259.369,-777.68,0,0
235180.95,258.501,-774.988,0,0
235441.275,257.791,-772.408,0,0
235701.6,257.071,-770.021,0,0
235961.925,256.371,-767.866,0,0
236222.25,255.593,-765.601,0,0
236482.575,254.751,-763.472,0,0
236742.9,253.94,-761.305,0,0
237003.225,253.174,-759.132,0,0
237263.55,252.532,-756.99,0,0
237523.875,251.944,-754.901,0,0
237784.2,251.44,-752.884,0,0
238044.525,250.948,-750.928,0,0
238304.85,250.628,-749.059,0,0
238565.175,250.324,-747.404,0,0
238825.5,250.026,-745.912,0,0
239085.825,249.655,-744.573,0,0
239346.15,249.172,-743.351,0,0
239606.475,248.632,-742.092,0,0
239866.8,248.028,-740.978,0,0
240127.125,247.556,-739.899,0,0
240387.45,246.818,-738.878,0,0
240647.775,246.039,-737.914,0,0
240908.1,245.212,-737.07,0,0
241168.425,244.202,-736.154,0,0
241428.75,243.046,-735.31,0,0
241689.075,241.862,-734.295,0,0
241949.4,240.677,-733.288,0,0
242209.725,239.499,-732.182,0,0
242470.05,238.291,-731.16,0,0
242730.375,236.907,-730.095,0,0
242990.7,235.517,-728.867,0,0
243251.025,234.176,-727.608,0,0
243511.35,232.902,-726.309,0,0
243771.675,231.61,-725.026,0,0
244032.0,230.271,-723.769,0,0
244292.325,228.864,-722.417,0,0
244552.65,227.42,-721.049,0,0
244812.975,226.036,-719.621,0,0
245073.3,224.747,-717.925,0,0
245333.625,223.335,-716.42,0,0
245593.95,221.972,-714.728,0,0
245854.275,220.669,-712.964,0,0
246114.6,219.468,-711.11,0,0
246374.925,218.405,-709.285,0,0
246635.25,217.364,-707.397,0,0
246895.575,216.492,-705.634,0,0
247155.9,215.651,-703.83,0,0
247416.225,214.928,-702.005,0,0
247676.55,214.382,-700.316,0,0
247936.875,213.776,-698.864,0,0
248197.2,213.126,-697.554,0,0
248457.525,212.293,-696.243,0,0
248717.85,211.47,-694.974,0,0
248978.175,210.516,-693.706,0,0
249238.5,209.505,-692.446,0,0
249498.825,208.37,-691.092,0,0
249759.15,207.15,-689.755,0,0
250019.475,205.956,-688.174,0,0
250279.8,204.796,-686.612,0,0
250540,203.698,-685.03,0,0
250800,202.619,-683.545,0,0
251061,201.434,-682.104,0,0
251321,200.137,-680.607,0,0
251581,198.716,-679.075,0,0
251842,197.13,-677.447,0,0
252102,195.433,-675.706,0,0
252362,193.648,-673.661,0,0
252623,191.794,-671.407,0,0
252883,189.978,-668.797,0,0
253143,188.243,-665.965,0,0
253404,186.807,-662.873,0,0
253664,185.598,-659.651,0,0
253924,184.626,-656.354,0,0
254185,183.777,-653.045,0,0
254445,183.091,-649.642,0,0
254705,182.572,-646.223,0,0
254966,182.141,-642.7,0,0
255226,181.868,-639.201,0,0
255486,181.726,-635.608,0,0
255747,181.728,-631.886,0,0
256007,181.984,-628.019,0,0
256267,182.532,-624.109,0,0
256528,183.365,-620.231,0,0
256788,184.474,-616.424,0,0
257048,185.806,-612.681,0,0
257309,187.307,-609.063,0,0
257569,189.012,-605.487,0,0
257829,190.932,-602.023,0,0
258090,193.015,-598.669,0,0
258350,195.26,-595.384,0,0
258610,197.697,-592.118,0,0
258871,200.461,-588.996,0,0
259131,203.457,-585.97,0,0
259391,206.744,-583.191,0,0
259651,210.257,-580.684,0,0
259912,213.933,-578.432,0,0
260172,217.714,-576.447,0,0
260432,221.689,-574.729,0,0
260693,225.819,-573.323,0,0
260953,230.034,-572.287,0,0
261213,234.26,-571.601,0,0
261474,238.524,-571.246,0,0
261734,242.698,-571.259,0,0
261994,246.744,-571.507,0,0
262255,250.715,-571.941,0,0
262515,254.716,-572.607,0,0
262775,258.777,-573.567,0,0
263036,262.754,-574.815,0,0
263296,266.705,-576.42,0,0
263556,270.545,-578.391,0,0
263817,274.172,-581.021,0,0
264077,277.335,-583.549,0,0
264337,280.298,-586.227,0,0
264598,283.166,-589.017,0,0
264858,285.871,-592.092,0,0
265118,288.421,-595.359,0,0
265379,290.757,-598.989,0,0
265639,292.74,-602.854,0,0
265899,294.42,-606.814,0,0
266160,295.797,-611.036,0,0
266420,296.771,-615.457,0,0
266680.25,297.203,-620.051,0,0
266940.575,296.982,-624.714,0,0
267200.9,296.211,-628.984,0,0
267461.225,295.08,-632.972,0,0
267721.55,293.879,-636.689,0,0
267981.875,292.42,-640.197,0,0
268242.2,290.862,-643.574,0,0
268502.525,289.159,-646.859,0,0
268762.85,287.269,-650.01,0,0
269023.175,285.121,-653.168,0,0
269283.5,282.685,-656.233,0,0
269543.825,279.677,-659.074,0,0
269804.15,276.269,-661.314,0,0
270064.475,272.871,-662.792,0,0
270324.8,269.595,-663.679,0,0
270585.125,266.808,-664.221,0,0
270845.45,264.362,-664.586,0,0
271105.775,262.246,-664.811,0,0
271366.1,260.483,-665.079,0,0
271626.425,259.063,-665.539,0,0
271886.75,257.743,-666.182,0,0
272147.075,256.444,-667.116,0,0
272407.4,255.143,-668.368,0,0
272667.725,253.532,-669.718,0,0
272928.05,251.727,-671.089,0,0
273188.375,249.809,-672.384,0,0
273448.7,247.823,-673.739,0,0
273709.025,245.661,-675.127,0,0
273969.35,243.4,-676.477,0,0
274229.675,240.933,-677.948,0,0
274490.0,238.208,-679.424,0,0
274750.325,235.115,-680.797,0,0
275010.65,231.705,-682.012,0,0
275270.975,228.053,-682.879,0,0
275531.3,224.265,-683.454,0,0
275791.625,220.29,-683.575,0,0
276051.95,216.321,-683.416,0,0
276312.275,212.354,-682.951,0,0
276572.6,208.33,-682.138,0,0
276832.925,204.398,-680.909,0,0
277093.25,200.596,-679.362,0,0
277353.575,197,-677.46,0,0
277613.9,193.603,-675.277,0,0
277874.225,190.481,-672.837,0,0
278134.55,187.681,-670.179,0,0
278394.875,185.165,-667.415,0,0
278655.2,182.949,-664.488,0,0
278915.525,181.085,-661.448,0,0
279175.85,179.583,-658.361,0,0
279436.175,178.517,-655.314,0,0
279696.5,177.875,-652.493,0,0
279956.825,177.451,-649.906,0,0
280217.15,177.177,-647.6,0,0
280477.475,177.012,-645.576,0,0
280737.8,176.791,-643.739,0,0
280998.125,176.612,-642,0,0
281258.45,176.398,-640.484,0,0
281518.775,176.018,-639.125,0,0
281779.1,175.525,-637.699,0,0
282039.425,174.958,-636.175,0,0
282299.75,174.422,-634.526,0,0
282560,174.046,-632.758,0,0
282820,173.928,-630.941,0,0
283081,174.004,-629.227,0,0
283341,174.287,-627.696,0,0
283601,174.656,-626.413,0,0
283862,175.022,-625.397,0,0
284122,175.25,-624.614,0,0
284382,175.264,-623.884,0,0
284643,175.199,-623.145,0,0
284903,175.042,-622.392,0,0
285163,174.991,-621.587,0,0
285424,174.894,-620.911,0,0
285684,174.783,-620.353,0,0
285944,174.531,-619.91,0,0
286205,174.026,-619.512,0,0
286465,173.312,-619.025,0,0
286725,172.448,-618.366,0,0
286986,171.477,-617.531,0,0
287246,170.402,-616.475,0,0
287506,169.271,-615.115,0,0
287767,168.211,-613.388,0,0
288027,167.408,-611.358,0,0
288287,166.904,-609.129,0,0
288548,166.693,-606.747,0,0
288808,166.828,-604.235,0,0
289068,167.373,-601.72,0,0
289329,168.349,-599.26,0,0
289589,169.715,-596.965,0,0
289849,171.474,-594.927,0,0
290109,173.523,-593.228,0,0
290370,175.788,-591.909,0,0
290630,178.182,-590.996,0,0
290890,180.605,-590.439,0,0
291151,183.075,-590.255,0,0
291411,185.521,-590.476,0,0
291671,187.865,-591.054,0,0
291932,190.05,-591.921,0,0
292192,192.076,-593.094,0,0
292452,193.97,-594.475,0,0
292713,195.726,-596.101,0,0
292973,197.343,-598.048,0,0
293233,198.746,-600.328,0,0
293494,199.789,-602.964,0,0
293754,200.337,-605.795,0,0
294014,200.459,-608.745,0,0
294275,200.113,-611.648,0,0
294535,199.377,-614.54,0,0
294795,198.217,-617.33,0,0
295056,196.644,-619.948,0,0
295316,194.709,-622.333,0,0
295576,192.53,-624.373,0,0
295837,190.111,-626.122,0,0
296097,187.608,-627.546,0,0
296357,184.972,-628.677,0,0
296618,182.33,-629.531,0,0
296878,179.681,-630.062,0,0
297138,177.098,-630.347,0,0
297399,174.575,-630.389,0,0
297659,172.189,-630.269,0,0
297919,169.908,-629.995,0,0
298180,167.737,-629.593,0,0
298440,165.731,-629.107,0,0
298700.2,163.826,-628.598,0,0
298960.525,161.996,-628.064,0,0
299220.85,160.235,-627.521,0,0
299481.175,158.509,-626.956,0,0
299741.5,156.857,-626.367,0,0
300001.825,155.216,-625.8,0,0
300262.15,153.571,-625.221,0,0
300522.475,151.892,-624.646,0,0
300782.8,150.19,-623.984,0,0
301043.125,148.485,-623.232,0,0
301303.45,146.79,-622.409,0,0
301563.775,145.124,-621.486,0,0
301824.1,143.512,-620.491,0,0
302084.425,141.959,-619.416,0,0
302344.75,140.502,-618.252,0,0
302605.075,139.147,-617.08,0,0
302865.4,137.88,-615.911,0,0
303125.725,136.643,-614.728,0,0
303386.05,135.424,-613.553,0,0
303646.375,134.259,-612.314,0,0
303906.7,133.158,-611.036,0,0
304167.025,132.138,-609.722,0,0
304427.35,131.187,-608.391,0,0
304687.675,130.323,-607.087,0,0
304948.0,129.515,-605.769,0,0
305208.325,128.775,-604.485,0,0
305468.65,128.133,-603.168,0,0
305728.975,127.581,-601.893,0,0
305989.3,127.105,-600.669,0,0
306249.625,126.661,-599.536,0,0
306509.95,126.286,-598.442,0,0
306770.275,125.945,-597.406,0,0
307030.6,125.62,-596.46,0,0
307290.925,125.294,-595.58,0,0
307551.25,124.952,-594.758,0,0
307811.575,124.624,-593.975,0,0
308071.9,124.278,-593.249,0,0
308332.225,123.903,-592.587,0,0
308592.55,123.489,-591.945,0,0
308852.875,123.057,-591.324,0,0
309113.2,122.576,-590.728,0,0
309373.525,122.069,-590.161,0,0
309633.85,121.525,-589.573,0,0
309894.175,120.95,-588.975,0,0
310154.5,120.366,-588.441,0,0
310414.825,119.746,-587.829,0,0
310675.15,119.097,-587.274,0,0
310935.475,118.38,-586.699,0,0
311195.8,117.637,-586.073,0,0
311456.125,116.864,-585.4,0,0
311716.45,116.085,-584.676,0,0
311976.775,115.317,-583.888,0,0
312237.1,114.561,-583.056,0,0
312497.425,113.855,-582.193,0,0
312757.75,113.177,-581.285,0,0
313018.075,112.553,-580.361,0,0
313278.4,111.967,-579.435,0,0
313538.725,111.428,-578.502,0,0
313799.05,110.935,-577.594,0,0
314059.375,110.476,-576.681,0,0
314319.7,110.044,-575.805,0,0
314580,109.64,-574.935,0,0
314840,109.304,-574.11,0,0
315101,108.914,-573.282,0,0
315361,108.573,-572.52,0,0
315621,108.308,-571.738,0,0
315882,108.02,-571.04,0,0
316142,107.738,-570.442,0,0
316402,107.442,-569.746,0,0
316663,107.147,-569.181,0,0
316923,106.836,-568.646,0,0
317183,106.415,-568.07,0,0
317444,106.138,-567.541,0,0
317704,105.753,-567.058,0,0
317964,105.374,-566.746,0,0
318225,104.918,-566.308,0,0
318485,104.452,-565.942,0,0
318745,103.948,-565.628,0,0
319006,103.375,-565.208,0,0
319266,102.742,-564.92,0,0
319526,102.082,-564.62,0,0
319787,101.414,-564.242,0,0
320047,100.714,-563.736,0,0
320307,99.9164,-563.476,0,0
320567,99.1195,-563.113,0,0
320828,98.2649,-562.75,0,0
321088,97.3203,-562.474,0,0
321348,96.2371,-562.077,0,0
321609,95.0775,-561.608,0,0
321869,93.8571,-561.084,0,0
322129,92.6406,-560.436,0,0
322390,91.2285,-559.653,0,0
322650,89.8769,-558.775,0,0
322910,88.5435,-557.718,0,0
323171,87.1996,-556.474,0,0
323431,86.0135,-555.161,0,0
323691,84.9501,-553.778,0,0
323952,83.9443,-552.252,0,0
324212,83.1472,-550.787,0,0
324472,82.3113,-549.218,0,0
324733,81.7019,-547.686,0,0
324993,81.1272,-546.33,0,0
325253,80.5997,-544.838,0,0
325514,80.1683,-543.445,0,0
325774,79.7299,-542.06,0,0
326034,79.3069,-540.721,0,0
326295,78.8895,-539.374,0,0
326555,78.4859,-538.043,0,0
326815,78.1307,-536.752,0,0
327076,77.7683,-535.403,0,0
327336,77.4064,-534.078,0,0
327596,77.113,-532.67,0,0
327857,76.8001,-531.286,0,0
328117,76.4602,-529.954,0,0
328377,76.3044,-528.566,0,0
328638,76.1033,-527.136,0,0
328898,75.934,-525.767,0,0
329158,75.9253,-524.317,0,0
329419,75.8666,-522.822,0,0
329679,76.0223,-521.473,0,0
329939,76.2043,-520.081,0,0
330200,76.51,-518.819,0,0
330460,76.7536,-517.595,0,0
330720.15,77.0889,-516.462,0,0
330980.475,77.5086,-515.34,0,0
331240.8,77.8284,-514.466,0,0
331501.125,78.2678,-513.556,0,0
331761.45,78.579,-512.708,0,0
332021.775,78.9085,-512.001,0,0
332282.1,79.1498,-511.288,0,0
332542.425,79.3446,-510.663,0,0
332802.75,79.5315,-510.027,0,0
333063.075,79.6398,-509.512,0,0
333323.4,79.726,-508.998,0,0
333583.725,79.7143,-508.477,0,0
333844.05,79.6959,-507.934,0,0
334104.375,79.5397,-507.393,0,0
334364.7,79.3632,-506.829,0,0
334625.025,79.1295,-506.252,0,0
334885.35,78.8668,-505.648,0,0
335145.675,78.6296,-505.016,0,0
335406.0,78.3478,-504.25,0,0
335666.325,78.0304,-503.485,0,0
335926.65,77.6185,-502.754,0,0
336186.975,77.3237,-501.9,0,0
336447.3,76.9713,-501.045,0,0
336707.625,76.6088,-500.095,0,0
336967.95,76.2428,-499.015,0,0
337228.275,75.9421,-498.019,0,0
337488.6,75.6634,-496.84,0,0
337748.925,75.5127,-495.728,0,0
338009.25,75.3901,-494.527,0,0
338269.575,75.1933,-493.232,0,0
338529.9,75.2245,-491.946,0,0
338790.225,75.2691,-490.673,0,0
339050.55,75.4149,-489.36,0,0
339310.875,75.6464,-488.132,0,0
339571.2,75.9882,-486.879,0,0
339831.525,76.3311,-485.658,0,0
340091.85,76.6279,-484.431,0,0
340352.175,77.1192,-483.259,0,0
340612.5,77.6357,-482.074,0,0
340872.825,78.2708,-480.955,0,0
341133.15,78.9685,-479.892,0,0
341393.475,79.7376,-478.951,0,0
341653.8,80.6012,-478.001,0,0
341914.125,81.5262,-477.248,0,0
342174.45,82.4442,-476.565,0,0
342434.775,83.4402,-476.047,0,0
342695.1,84.4469,-475.637,0,0
342955.425,85.3982,-475.395,0,0
343215.75,86.2065,-475.317,0,0
343476.075,87.0157,-475.297,0,0
343736.4,87.649,-475.406,0,0
343996.725,88.2434,-475.556,0,0
344257.05,88.7218,-475.74,0,0
344517.375,89.0551,-475.982,0,0
344777.7,89.3479,-476.182,0,0
345038.025,89.4315,-476.435,0,0
345298.35,89.4519,-476.639,0,0
345558.675,89.4311,-476.85,0,0
345819.0,89.2818,-476.996,0,0
346079.325,89.161,-477.068,0,0
346339.65,88.943,-477.138,0,0
346599.975,88.6922,-477.137,0,0
346860,88.4324,-477.113,0,0
347121,88.111,-477.045,0,0
347381,87.7522,-476.949,0,0
347641,87.3926,-476.858,0,0
347902,87.0296,-476.677,0,0
348162,86.557,-476.465,0,0
348422,86.1721,-476.197,0,0
348683,85.6807,-475.919,0,0
348943,85.2717,-475.561,0,0
349203,84.7737,-475.213,0,0
349464,84.3565,-474.749,0,0
349724,83.8035,-474.361,0,0
349984,83.3671,-473.824,0,0
350245,82.9509,-473.359,0,0
350505,82.4339,-472.755,0,0
350765,82.0207,-472.162,0,0
351025,81.6685,-471.495,0,0
351286,81.2613,-470.837,0,0
351546,80.9149,-470.15,0,0
351806,80.5208,-469.366,0,0
352067,80.1954,-468.582,0,0
352327,79.9464,-467.771,0,0
352587,79.7882,-466.922,0,0
352848,79.5833,-466.049,0,0
353108,79.4968,-465.248,0,0
353368,79.4581,-464.398,0,0
353629,79.4455,-463.535,0,0
353889,79.5349,-462.755,0,0
354149,79.6687,-461.964,0,0
354410,79.903,-461.317,0,0
354670,80.0679,-460.697,0,0
354930,80.2459,-460.21,0,0
355191,80.2967,-459.689,0,0
355451,80.4317,-459.288,0,0
355711,80.5108,-458.87,0,0
355972,80.551,-458.446,0,0
356232,80.5367,-458.064,0,0
356492,80.5059,-457.682,0,0
356753,80.4342,-457.288,0,0
357013,80.3428,-456.913,0,0
357273,80.2355,-456.613,0,0
357534,80.0457,-456.283,0,0
357794,79.7565,-455.886,0,0
358054,79.4253,-455.45,0,0
358315,79.0555,-455.002,0,0
358575,78.6202,-454.371,0,0
358835,78.2517,-453.715,0,0
359096,77.8574,-452.952,0,0
359356,77.543,-452.076,0,0
359616,77.3376,-451.232,0,0
359877,77.1319,-450.294,0,0
360137,77.0882,-449.378,0,0
360397,77.0799,-448.487,0,0
360658,77.0903,-447.551,0,0
360918,77.1901,-446.745,0,0
361178,77.223,-445.832,0,0
361438,77.3419,-444.959,0,0
361699,77.5612,-444.141,0,0
361959,77.8137,-443.315,0,0
362219,78.0716,-442.533,0,0
362480,78.3592,-441.839,0,0
362740.1,78.7092,-441.149,0,0
363000.425,78.9818,-440.563,0,0
363260.75,79.3083,-440.002,0,0
363521.075,79.627,-439.513,0,0
363781.4,79.9203,-439.122,0,0
364041.725,80.0567,-438.73,0,0
364302.05,80.1677,-438.346,0,0
364562.375,80.1949,-437.905,0,0
364822.7,80.1932,-437.415,0,0
365083.025,80.1611,-436.898,0,0
365343.35,80.0767,-436.337,0,0
365603.675,80.042,-435.652,0,0
365864.0,79.973,-434.932,0,0
366124.325,80.0291,-434.147,0,0
366384.65,80.0837,-433.32,0,0
366644.975,80.2479,-432.519,0,0
366905.3,80.4343,-431.645,0,0
367165.625,80.6745,-430.778,0,0
367425.95,80.9832,-429.867,0,0
367686.275,81.3317,-429.007,0,0
367946.6,81.7728,-428.154,0,0
368206.925,82.2982,-427.336,0,0
368467.25,82.9059,-426.424,0,0
368727.575,83.5483,-425.641,0,0
368987.9,84.2818,-424.886,0,0
369248.225,85.0514,-424.256,0,0
369508.55,85.9069,-423.71,0,0
369768.875,86.7555,-423.154,0,0
370029.2,87.6387,-422.676,0,0
370289.525,88.5591,-422.317,0,0
370549.85,89.4567,-422.019,0,0
370810.175,90.462,-421.742,0,0
371070.5,91.5161,-421.651,0,0
371330.825,92.5321,-421.656,0,0
371591.15,93.5259,-421.784,0,0
371851.475,94.499,-422.04,0,0
372111.8,95.4251,-422.473,0,0
372372.125,96.2655,-422.93,0,0
372632.45,96.9436,-423.532,0,0
372892.775,97.5282,-424.248,0,0
373153.1,98.0137,-425.016,0,0
373413.425,98.2921,-425.828,0,0
373673.75,98.4051,-426.61,0,0
373934.075,98.3582,-427.335,0,0
374194.4,98.196,-428.042,0,0
374454.725,98.007,-428.574,0,0
374715.05,97.6687,-429.05,0,0
374975.375,97.3242,-429.478,0,0
375235.7,96.9321,-429.813,0,0
375496.025,96.5583,-430.018,0,0
375756.35,96.2281,-430.149,0,0
376016.675,95.9082,-430.264,0,0
376277.0,95.6029,-430.358,0,0
376537.325,95.3112,-430.426,0,0
376797.65,95.0875,-430.493,0,0
377057.975,94.7803,-430.566,0,0
377318.3,94.4675,-430.642,0,0
377578.625,94.1273,-430.716,0,0
377838.95,93.8556,-430.744,0,0
378099.275,93.5533,-430.757,0,0
378359.6,93.236,-430.75,0,0
378619.925,92.9424,-430.695,0,0
378880,92.6422,-430.66,0,0
379141,92.3092,-430.622,0,0
379401,91.9868,-430.621,0,0
379661,91.7142,-430.589,0,0
379922,91.4077,-430.505,0,0
380182,91.0788,-430.477,0,0
380442,90.7076,-430.392,0,0
380703,90.3815,-430.362,0,0
380963,89.9738,-430.193,0,0
381223,89.6151,-430.058,0,0
381483,89.2112,-429.886,0,0
381744,88.883,-429.633,0,0
382004,88.6505,-429.322,0,0
382264,88.4155,-429.02,0,0
382525,88.3678,-428.821,0,0
382785,88.3719,-428.599,0,0
383045,88.3815,-428.556,0,0
383306,88.4396,-428.694,0,0
383566,88.3964,-428.89,0,0
383826,88.1998,-429.288,0,0
384087,87.8507,-429.702,0,0
384347,87.3974,-430.035,0,0
384607,86.8306,-430.389,0,0
384868,86.0874,-430.658,0,0
385128,85.214,-430.847,0,0
385388,84.3648,-430.977,0,0
385649,83.4065,-430.986,0,0
385909,82.463,-430.852,0,0
386169,81.4801,-430.678,0,0
386430,80.4833,-430.354,0,0
386690,79.5126,-429.955,0,0
386950,78.5131,-429.489,0,0
387211,77.5644,-428.881,0,0
387471,76.654,-428.179,0,0
387731,75.8306,-427.36,0,0
387992,75.0545,-426.477,0,0
388252,74.3844,-425.471,0,0
388512,73.9373,-424.457,0,0
388773,73.5829,-423.496,0,0
389033,73.3421,-422.507,0,0
389293,73.199,-421.559,0,0
389554,73.1236,-420.722,0,0
389814,73.1488,-419.885,0,0
390074,73.2966,-419.153,0,0
390335,73.4489,-418.527,0,0
390595,73.628,-418.053,0,0
390855,73.8594,-417.646,0,0
391116,74.0532,-417.44,0,0
391376,74.1882,-417.295,0,0
391636,74.2139,-417.27,0,0
391896,74.1508,-417.329,0,0
392157,73.9372,-417.421,0,0
392417,73.597,-417.49,0,0
392677,73.1364,-417.604,0,0
392938,72.5511,-417.605,0,0
393198,71.8982,-417.578,0,0
393458,71.1452,-417.447,0,0
393719,70.3758,-417.221,0,0
393979,69.5624,-416.876,0,0
394239,68.7329,-416.443,0,0
394500,67.9167,-415.901,0,0
394760.05,67.1891,-415.337,0,0
395020.375,66.4391,-414.687,0,0
395280.7,65.743,-414.028,0,0
395541.025,65.0684,-413.277,0,0
395801.35,64.4327,-412.496,0,0
396061.675,63.8262,-411.657,0,0
396322.0,63.2742,-410.86,0,0
396582.325,62.776,-409.985,0,0
396842.65,62.2576,-409.122,0,0
397102.975,61.8246,-408.236,0,0
397363.3,61.3728,-407.324,0,0
397623.625,61.0541,-406.395,0,0
397883.95,60.6754,-405.542,0,0
398144.275,60.3374,-404.63,0,0
398404.6,60.0301,-403.732,0,0
398664.925,59.7232,-402.81,0,0
398925.25,59.4568,-401.918,0,0
399185.575,59.21,-400.986,0,0
399445.9,59.0111,-400.047,0,0
399706.225,58.7638,-399.04,0,0
399966.55,58.6068,-398.087,0,0
400006.6,58.5412,-397.933,0,0