File: Accelerated corrosion test data/2025-10-05_18-00-02/sample_8.csv
Frequency (Hz),Impedance (ohms),Phase (Radians),Temperature (C),Humidity (%)
10000.0,311.902,-10919.7,0,0
10260.325,304.184,-10646.2,0,0
10520.65,297.131,-10385.9,0,0
10780.975,289.412,-10138.5,0,0
11041.3,282.944,-9901.91,0,0
11301.625,276.655,-9677.45,0,0
11561.95,270.566,-9461.29,0,0
11822.275,264.803,-9255.82,0,0
12082.6,262.959,-9056.59,0,0
12342.925,259.54,-8871.39,0,0
12603.25,254.307,-8690.95,0,0
12863.575,250.809,-8520.45,0,0
13123.9,242.245,-8356.65,0,0
13384.225,236.209,-8194.54,0,0
13644.55,233.371,-8040,0,0
13904.875,225.865,-7892.83,0,0
14165.2,221.461,-7748.34,0,0
14425.525,216.139,-7610.53,0,0
14685.8,213.057,-7476.29,0,0
14946.175,208.9,-7347.44,0,0
15206.5,205.923,-7222.2,0,0
15466.825,202.478,-7102.81,0,0
15727.15,199.275,-6986.22,0,0
15987.5,195.966,-6873.78,0,0
16247.8,192.972,-6764.61,0,0
16508.125,189.999,-6658.64,0,0
16768.45,187.083,-6556.23,0,0
17028.775,184.244,-6456.98,0,0
17289.1,181.557,-6360.11,0,0
17549.425,178.763,-6266.47,0,0
17809.75,176.533,-6175.28,0,0
18070.075,174.373,-6086.58,0,0
18330.4,171.543,-6000.36,0,0
18590.725,169.554,-5916.25,0,0
18851.05,169.734,-5833.25,0,0
19111.375,167.96,-5754.87,0,0
19371.7,170.438,-5677.95,0,0
19632.025,166.522,-5605.99,0,0
19892.35,164.115,-5536.07,0,0
20152.675,160.843,-5463.43,0,0
20413.0,160.386,-5393.81,0,0
20673.3,159.634,-5327.02,0,0
20933.65,157.954,-5263.56,0,0
21193.975,154.887,-5200.3,0,0
21454.3,152.594,-5136.33,0,0
21714.625,151.043,-5074.58,0,0
21974.9,150.974,-5015.09,0,0
22235.275,150.543,-4957.11,0,0
22495.6,148.872,-4901.32,0,0
22755.925,147.395,-4847.17,0,0
23016.25,144.882,-4793.13,0,0
23276.6,141.14,-4740.91,0,0
23536.9,140.147,-4687.77,0,0
23797.225,137.809,-4636.48,0,0
24057.55,135.836,-4586.42,0,0
24317.875,134.588,-4537.59,0,0
24578.2,132.276,-4489.31,0,0
24838.525,130.601,-4441.67,0,0
25098.85,129.751,-4395.18,0,0
25359.175,128.865,-4350.33,0,0
25619.5,127.691,-4306,0,0
25879.8,126.371,-4261.67,0,0
26140.1,125.308,-4219.95,0,0
26400.5,124.538,-4178.59,0,0
26660.8,123.088,-4137.34,0,0
26921.1,122.144,-4096.17,0,0
27181.4,122.73,-4056.58,0,0
27441.8,121.187,-4018.31,0,0
27702.1,120.874,-3981.05,0,0
27962.4,119.202,-3944.37,0,0
28222.7,118.46,-3906.11,0,0
28483.1,117.958,-3871.42,0,0
28743.4,117.99,-3835.43,0,0
29003.7,117.787,-3801.33,0,0
29264,117.278,-3766.51,0,0
29524.4,116.788,-3733.97,0,0
29784.7,116.58,-3700.77,0,0
30045,116.322,-3669.45,0,0
30305.3,116.098,-3638.43,0,0
30565.7,115.335,-3607.74,0,0
30826,114.451,-3577.42,0,0
31086.3,113.775,-3547.56,0,0
31346.6,113.419,-3517.68,0,0
31607,112.768,-3488.62,0,0
31867.3,112.465,-3459.97,0,0
32127.6,112.363,-3432.18,0,0
32387.9,111.71,-3404.02,0,0
32648.3,111.94,-3376.6,0,0
32908.6,112.424,-3348.99,0,0
33168.9,112.467,-3323.3,0,0
33429.2,113.573,-3297.87,0,0
33689.6,114.853,-3273.41,0,0
33949.9,114.605,-3250.66,0,0
34210.2,113.816,-3227.21,0,0
34470.5,112.458,-3203.77,0,0
34730.9,111.741,-3180.35,0,0
34991.2,111.698,-3157.64,0,0
35251.5,110.784,-3135.77,0,0
35511.8,109.682,-3114.09,0,0
35772.2,107.966,-3092.57,0,0
36032.5,106.537,-3070.93,0,0
36292.8,104.791,-3049.54,0,0
36553.1,103.239,-3028.08,0,0
36813.5,101.621,-3006.88,0,0
37073.8,100.421,-2985.64,0,0
37334.1,99.3248,-2964.88,0,0
37594.4,97.7007,-2944.64,0,0
37854.8,96.2557,-2924.27,0,0
38115.1,95.0843,-2904.28,0,0
38375.4,93.5561,-2884.38,0,0
38635.7,92.3991,-2864.45,0,0
38896.1,91.2205,-2845.05,0,0
39156.4,89.9623,-2825.42,0,0
39416.7,88.9201,-2806.1,0,0
39677,88.1874,-2787.25,0,0
39937.4,86.8957,-2768.29,0,0
40197.7,86.211,-2749.3,0,0
40458,86.0076,-2730.7,0,0
40718.3,85.8019,-2712.81,0,0
40978.7,85.1278,-2695.67,0,0
41239,84.7394,-2677.95,0,0
41499.3,84.1267,-2660.66,0,0
41759.6,83.7022,-2643.54,0,0
42020,83.0787,-2626.95,0,0
42280.275,82.568,-2610.24,0,0
42540.6,82.3756,-2593.45,0,0
42800.925,82.0514,-2576.87,0,0
43061.25,81.9429,-2560.91,0,0
43321.575,82.2617,-2545.39,0,0
43581.9,82.2202,-2530.09,0,0
43842.225,81.6421,-2515.69,0,0
44102.55,80.8317,-2500.63,0,0
44362.875,80.1869,-2485.75,0,0
44623.2,79.5463,-2471.04,0,0
44883.525,78.9297,-2456.11,0,0
45143.85,78.4337,-2441.55,0,0
45404.175,77.9232,-2427.24,0,0
45664.5,77.3998,-2412.82,0,0
45924.825,76.9582,-2398.91,0,0
46185.15,76.4467,-2384.73,0,0
46445.475,75.9399,-2370.97,0,0
46705.8,75.4996,-2357.13,0,0
46966.125,75.2746,-2343.57,0,0
47226.45,74.9442,-2330.21,0,0
47486.775,74.7848,-2317.09,0,0
47747.1,74.5298,-2304.01,0,0
48007.425,74.2537,-2291.26,0,0
48267.75,73.8556,-2278.51,0,0
48528.075,73.4983,-2265.99,0,0
48788.4,73.2257,-2253.71,0,0
49048.725,72.496,-2241.34,0,0
49309.05,72.0203,-2228.76,0,0
49569.375,71.8602,-2216.67,0,0
49829.7,71.3735,-2204.67,0,0
50090.025,70.8906,-2192.65,0,0
50350.35,70.6704,-2180.69,0,0
50610.675,70.3797,-2168.89,0,0
50871.0,70.1907,-2157.14,0,0
51131.325,70.0813,-2145.51,0,0
51391.65,69.8237,-2134.21,0,0
51651.975,69.8992,-2122.78,0,0
51912.3,69.8117,-2111.85,0,0
52172.625,69.6977,-2100.89,0,0
52432.95,69.5234,-2090.22,0,0
52693.275,69.3411,-2079.25,0,0
52953.6,69.5058,-2068.66,0,0
53213.925,69.5927,-2058.39,0,0
53474.25,69.3872,-2048.21,0,0
53734.575,69.5158,-2038.54,0,0
53994.9,68.6752,-2029.04,0,0
54255.225,68.0145,-2018.79,0,0
54515.55,67.3178,-2008.9,0,0
54775.875,66.9703,-1998.72,0,0
55036.2,66.4838,-1989.29,0,0
55296.525,65.7484,-1979.45,0,0
55556.85,65.0333,-1969.5,0,0
55817.175,64.7253,-1959.6,0,0
56077.5,64.0178,-1949.88,0,0
56337.825,63.5929,-1940.1,0,0
56598.15,63.2054,-1930.28,0,0
56858.475,63.0222,-1920.6,0,0
57118.8,62.8553,-1911.16,0,0
57379.125,62.681,-1901.66,0,0
57639.45,62.5098,-1892.4,0,0
57899.775,62.3707,-1883.25,0,0
58160.1,62.2069,-1874.13,0,0
58420.4,62.2145,-1865.02,0,0
58680.7,62.1557,-1856.16,0,0
58941.1,62.267,-1847.34,0,0
59201.4,62.3698,-1838.9,0,0
59461.7,62.0916,-1830.69,0,0
59722,61.5962,-1822.14,0,0
59982.4,61.237,-1813.53,0,0
60242.7,60.9243,-1804.93,0,0
60503,60.7908,-1796.45,0,0
60763.3,60.5455,-1787.91,0,0
61023.7,60.5829,-1779.41,0,0
61284,60.5558,-1771.21,0,0
61544.3,60.601,-1763,0,0
61804.6,60.6839,-1755.19,0,0
62065,60.3595,-1747.11,0,0
62325.3,60.3082,-1738.95,0,0
62585.6,60.4202,-1730.92,0,0
62845.9,60.5122,-1723.07,0,0
63106.3,60.75,-1715.18,0,0
63366.6,61.0094,-1707.41,0,0
63626.9,61.2927,-1699.96,0,0
63887.2,61.494,-1692.67,0,0
64147.6,61.8483,-1685.29,0,0
64407.9,62.3051,-1678.28,0,0
64668.2,62.3117,-1671.6,0,0
64928.5,62.1562,-1664.68,0,0
65188.9,62.0096,-1657.88,0,0
65449.2,61.6989,-1651.16,0,0
65709.5,61.2975,-1644.34,0,0
65969.8,61.1583,-1637.45,0,0
66230.2,60.8656,-1630.63,0,0
66490.5,60.2235,-1623.97,0,0
66750.8,59.7645,-1617,0,0
67011.1,59.5159,-1609.84,0,0
67271.5,59.2556,-1603.19,0,0
67531.8,58.8826,-1596.13,0,0
67792.1,58.719,-1589.32,0,0
68052.4,58.347,-1582.38,0,0
68312.8,58.2886,-1575.71,0,0
68573.1,58.1855,-1568.92,0,0
68833.4,58.1075,-1562.18,0,0
69093.7,57.9654,-1555.51,0,0
69354.1,57.9714,-1548.85,0,0
69614.4,58.1423,-1542.26,0,0
69874.7,58.1474,-1535.82,0,0
70135,58.2349,-1529.42,0,0
70395.4,58.2746,-1523.12,0,0
70655.7,58.4169,-1516.94,0,0
70916,58.4187,-1510.83,0,0
71176.3,58.438,-1504.59,0,0
71436.7,58.5554,-1498.52,0,0
71697,58.6887,-1492.56,0,0
71957.3,58.8122,-1486.73,0,0
72217.6,58.73,-1480.86,0,0
72478,58.7727,-1475.03,0,0
72738.3,58.6967,-1469.58,0,0
72998.6,58.3272,-1463.9,0,0
73258.9,57.8849,-1457.98,0,0
73519.3,57.678,-1451.98,0,0
73779.6,57.5861,-1446.07,0,0
74039.9,57.6436,-1440.24,0,0
74300.225,57.655,-1434.57,0,0
74560.55,57.4535,-1429.02,0,0
74820.875,57.2961,-1423.23,0,0
75081.2,57.202,-1417.49,0,0
75341.525,57.187,-1411.93,0,0
75601.85,57.1559,-1406.15,0,0
75862.175,57.2635,-1400.56,0,0
76122.5,57.3184,-1395.11,0,0
76382.825,57.3905,-1389.7,0,0
76643.15,57.4359,-1384.38,0,0
76903.475,57.4126,-1379.06,0,0
77163.8,57.3099,-1373.77,0,0
77424.125,57.2564,-1368.42,0,0
77684.45,57.1528,-1363.13,0,0
77944.775,57.1185,-1357.89,0,0
78205.1,56.9753,-1352.66,0,0
78465.425,56.87,-1347.43,0,0
78725.75,56.7661,-1342.09,0,0
78986.075,56.7009,-1336.75,0,0
79246.4,56.7216,-1331.56,0,0
79506.725,56.7365,-1326.29,0,0
79767.05,56.7178,-1321.1,0,0
80027.375,56.7584,-1315.86,0,0
80287.7,56.8552,-1310.67,0,0
80548.025,56.9888,-1305.64,0,0
80808.35,57.0659,-1300.6,0,0
81068.675,57.009,-1295.52,0,0
81329.0,57.0365,-1290.35,0,0
81589.325,57.2855,-1285.18,0,0
81849.65,57.503,-1280.12,0,0
82109.975,57.8183,-1275.08,0,0
82370.3,58.2431,-1270.19,0,0
82630.625,58.5484,-1265.33,0,0
82890.95,58.8746,-1260.51,0,0
83151.275,59.21,-1255.79,0,0
83411.6,59.5575,-1251.17,0,0
83671.925,59.8172,-1246.43,0,0
83932.25,60.3013,-1241.77,0,0
84192.575,60.7738,-1237.29,0,0
84452.9,61.2132,-1232.92,0,0
84713.225,61.4862,-1228.6,0,0
84973.55,61.8962,-1224.57,0,0
85233.875,61.8279,-1220.67,0,0
85494.2,61.4805,-1216.34,0,0
85754.525,61.2623,-1211.78,0,0
86014.85,61.1717,-1207.15,0,0
86275.175,61.2263,-1202.49,0,0
86535.5,61.2576,-1197.92,0,0
86795.825,61.4034,-1193.19,0,0
87056.15,61.814,-1188.59,0,0
87316.475,62.2119,-1184.15,0,0
87576.8,62.4748,-1179.74,0,0
87837.125,62.76,-1175.28,0,0
88097.45,63.2016,-1170.82,0,0
88357.775,63.6586,-1166.5,0,0
88618.1,64.0993,-1162.28,0,0
88878.425,64.3982,-1158.01,0,0
89138.75,64.8327,-1153.68,0,0
89399.075,65.3082,-1149.41,0,0
89659.4,65.7834,-1145.08,0,0
89919.725,66.2691,-1140.84,0,0
90180,66.9306,-1136.58,0,0
90440.4,67.6165,-1132.39,0,0
90700.7,68.4451,-1128.27,0,0
90961,69.438,-1124.33,0,0
91221.3,70.3972,-1120.33,0,0
91481.7,71.4823,-1116.67,0,0
91742,72.4945,-1113.41,0,0
92002.3,73.4059,-1110.13,0,0
92262.6,74.1347,-1107.06,0,0
92523,74.7523,-1104.09,0,0
92783.3,75.1129,-1101.29,0,0
93043.6,75.2599,-1098.44,0,0
93303.9,74.9935,-1095.61,0,0
93564.3,74.4615,-1092.15,0,0
93824.6,74.3612,-1088.33,0,0
94084.9,74.5891,-1084.63,0,0
94345.2,74.8345,-1081.19,0,0
94605.6,74.8553,-1077.76,0,0
94865.9,75.0174,-1073.99,0,0
95126.2,75.2737,-1070.64,0,0
95386.5,75.352,-1066.95,0,0
95646.9,75.9324,-1063.42,0,0
95907.2,76.2027,-1060.27,0,0
96167.5,76.2264,-1056.83,0,0
96427.8,76.5298,-1053.17,0,0
96688.2,77.0843,-1049.61,0,0
96948.5,77.6279,-1046.4,0,0
97208.8,77.9716,-1043.2,0,0
97469.1,78.4179,-1039.88,0,0
97729.5,79.059,-1036.72,0,0
97989.8,79.6239,-1033.8,0,0
98250.1,80.0762,-1030.96,0,0
98510.4,80.3691,-1028.22,0,0
98770.8,80.5987,-1025.41,0,0
99031.1,80.7656,-1022.82,0,0
99291.4,80.5594,-1020.15,0,0
99551.7,80.3434,-1017.07,0,0
99812.1,80.3703,-1013.91,0,0
100072,80.4955,-1010.83,0,0
100333,80.6867,-1007.89,0,0
100593,80.8433,-1005.02,0,0
100853,80.9359,-1002.31,0,0
101114,80.7646,-999.599,0,0
101374,80.6405,-996.73,0,0
101634,80.5307,-993.863,0,0
101895,80.3698,-991.115,0,0
102155,79.9714,-988.192,0,0
102415,79.6859,-985.162,0,0
102676,79.3635,-982.057,0,0
102936,79.1653,-978.828,0,0
103196,78.9737,-975.658,0,0
103457,78.8901,-972.39,0,0
103717,78.9855,-969.129,0,0
103977,79.1491,-966.072,0,0
104238,79.214,-963.135,0,0
104498,79.1766,-960.295,0,0
104758,78.9801,-957.272,0,0
105019,78.7708,-954.063,0,0
105279,78.717,-950.778,0,0
105539,78.9333,-947.469,0,0
105800,79.2234,-944.317,0,0
106060,79.525,-941.273,0,0
106320.175,79.7955,-938.37,0,0
106580.5,80.0715,-935.403,0,0
106840.825,80.448,-932.532,0,0
107101.15,80.7563,-929.877,0,0
107361.475,80.9603,-927.323,0,0
107621.8,81.0348,-924.724,0,0
107882.125,80.9978,-922.153,0,0
108142.45,80.8463,-919.467,0,0
108402.775,80.6307,-916.602,0,0
108663.1,80.5674,-913.621,0,0
108923.425,80.6138,-910.678,0,0
109183.75,80.7047,-907.804,0,0
109444.075,80.9301,-904.9,0,0
109704.4,81.1696,-902.115,0,0
109964.725,81.3507,-899.484,0,0
110225.05,81.4925,-896.894,0,0
110485.375,81.5896,-894.323,0,0
110745.7,81.6091,-891.677,0,0
111006.025,81.6283,-889.051,0,0
111266.35,81.4289,-886.516,0,0
111526.675,81.3726,-883.854,0,0
111787.0,81.4713,-881.076,0,0
112047.325,81.5598,-878.417,0,0
112307.65,81.4847,-875.803,0,0
112567.975,81.521,-873.166,0,0
112828.3,81.4321,-870.532,0,0
113088.625,81.3859,-867.944,0,0
113348.95,81.3509,-865.355,0,0
113609.275,81.2922,-862.692,0,0
113869.6,81.249,-860.14,0,0
114129.925,81.1294,-857.459,0,0
114390.25,81.0638,-854.802,0,0
114650.575,80.906,-852.105,0,0
114910.9,80.85,-849.425,0,0
115171.225,80.8786,-846.743,0,0
115431.55,80.8138,-844.174,0,0
115691.875,80.6464,-841.644,0,0
115952.2,80.4985,-838.971,0,0
116212.525,80.374,-836.237,0,0
116472.85,80.2431,-833.555,0,0
116733.175,80.105,-830.919,0,0
116993.5,79.9372,-828.162,0,0
117253.825,79.7757,-825.323,0,0
117514.15,79.7326,-822.471,0,0
117774.475,79.746,-819.63,0,0
118034.8,79.789,-816.853,0,0
118295.125,79.8707,-814.048,0,0
118555.45,80.0417,-811.298,0,0
118815.775,80.25,-808.635,0,0
119076.1,80.3603,-806.199,0,0
119336.425,80.3226,-803.715,0,0
119596.75,80.2637,-801.124,0,0
119857.075,80.11,-798.435,0,0
120117.4,80.0674,-795.762,0,0
120377.725,80.0911,-793.088,0,0
120638.05,80.0501,-790.422,0,0
120898.375,79.9348,-787.72,0,0
121158.7,79.9201,-784.878,0,0
121419.025,80.0291,-782.154,0,0
121679.35,80.0457,-779.482,0,0
121939.675,80.0975,-776.722,0,0
122200.0,80.1933,-773.995,0,0
122460,80.3626,-771.266,0,0
122721,80.545,-768.704,0,0
122981,80.5546,-766.216,0,0
123241,80.3798,-763.65,0,0
123502,80.2402,-760.85,0,0
123762,80.2271,-757.943,0,0
124022,80.3285,-755.063,0,0
124283,80.4986,-752.208,0,0
124543,80.6706,-749.346,0,0
124803,80.988,-746.548,0,0
125064,81.2813,-743.747,0,0
125324,81.6565,-741.022,0,0
125584,82.0331,-738.387,0,0
125845,82.3498,-735.828,0,0
126105,82.6804,-733.268,0,0
126365,82.9338,-730.791,0,0
126626,83.1697,-728.215,0,0
126886,83.4594,-725.665,0,0
127146,83.6886,-723.133,0,0
127406,84.0155,-720.676,0,0
127667,84.1294,-718.316,0,0
127927,84.301,-715.783,0,0
128187,84.434,-713.318,0,0
128448,84.5802,-710.834,0,0
128708,84.6584,-708.389,0,0
128968,84.68,-705.84,0,0
129229,84.7517,-703.309,0,0
129489,84.7662,-700.723,0,0
129749,84.7801,-698.068,0,0
130010,84.7639,-695.316,0,0
130270,84.8184,-692.505,0,0
130530,85.0124,-689.512,0,0
130791,85.4959,-686.608,0,0
131051,86.0624,-683.996,0,0
131311,86.475,-681.525,0,0
131572,86.788,-678.975,0,0
131832,87.0969,-676.62,0,0
132092,87.1254,-674.314,0,0
132353,87.0373,-671.731,0,0
132613,87.0105,-668.901,0,0
132873,87.1522,-665.992,0,0
133134,87.483,-663.108,0,0
133394,87.9293,-660.327,0,0
133654,88.2845,-657.62,0,0
133915,88.6331,-654.981,0,0
134175,88.9354,-652.254,0,0
134435,89.2405,-649.481,0,0
134696,89.6232,-646.672,0,0
134956,90.0578,-643.842,0,0
135216,90.5782,-640.968,0,0
135477,91.3058,-638.21,0,0
135737,92.0567,-635.591,0,0
135997,92.8476,-633.129,0,0
136258,93.594,-630.856,0,0
136518,94.1132,-628.81,0,0
136778,94.4312,-626.692,0,0
137039,94.6206,-624.605,0,0
137299,94.5754,-622.453,0,0
137559,94.364,-620.129,0,0
137819,94.0813,-617.62,0,0
138080,93.8056,-614.871,0,0
138340.125,93.5563,-611.878,0,0
138600.45,93.4697,-608.715,0,0
138860.775,93.6575,-605.533,0,0
139121.1,93.9186,-602.41,0,0
139381.425,94.2792,-599.327,0,0
139641.75,94.611,-596.379,0,0
139902.075,94.8338,-593.359,0,0
140162.4,95.1772,-590.213,0,0
140422.725,95.5652,-587.129,0,0
140683.05,95.8642,-584.059,0,0
140943.375,96.1324,-580.859,0,0
141203.7,96.5242,-577.494,0,0
141464.025,97.0675,-574.144,0,0
141724.35,97.6654,-570.849,0,0
141984.675,98.2516,-567.623,0,0
142245.0,98.7607,-564.321,0,0
142505.325,99.3222,-560.854,0,0
142765.65,100.042,-557.306,0,0
143025.975,100.845,-553.841,0,0
143286.3,101.719,-550.364,0,0
143546.625,102.599,-546.888,0,0
143806.95,103.493,-543.406,0,0
144067.275,104.392,-539.793,0,0
144327.6,105.385,-536.112,0,0
144587.925,106.465,-532.328,0,0
144848.25,107.662,-528.37,0,0
145108.575,109.265,-524.357,0,0
145368.9,111.134,-520.45,0,0
145629.225,113.196,-516.727,0,0
145889.55,115.495,-513.277,0,0
146149.875,117.646,-510.17,0,0
146410.2,119.65,-507.094,0,0
146670.525,121.644,-503.939,0,0
146930.85,123.835,-500.884,0,0
147191.175,125.969,-498.069,0,0
147451.5,128.009,-495.349,0,0
147711.825,129.922,-492.823,0,0
147972.15,131.339,-490.31,0,0
148232.475,132.488,-487.246,0,0
148492.8,133.859,-483.604,0,0
148753.125,135.767,-479.729,0,0
149013.45,137.969,-476.02,0,0
149273.775,140.298,-472.181,0,0
149534.1,142.987,-468.373,0,0
149794.425,145.943,-464.743,0,0
150054.75,149.042,-461.042,0,0
150315.075,152.535,-457.396,0,0
150575.4,156.474,-453.903,0,0
150835.725,160.914,-450.655,0,0
151096.05,165.922,-447.971,0,0
151356.375,171.036,-446.093,0,0
151616.7,176.06,-445.081,0,0
151877.025,180.782,-444.838,0,0
152137.35,184.735,-445.061,0,0
152397.675,188.261,-445.517,0,0
152658.0,190.984,-446.264,0,0
152918.325,192.944,-446.573,0,0
153178.65,194.637,-446.426,0,0
153438.975,196.422,-446.065,0,0
153699.3,197.935,-445.462,0,0
153959.625,199.561,-444.788,0,0
154219.95,201.009,-443.889,0,0
154480,202.496,-442.772,0,0
154741,204.034,-441.293,0,0
155001,205.953,-439.468,0,0
155261,208.533,-437.68,0,0
155522,211.628,-436.375,0,0
155782,214.867,-435.691,0,0
156042,218.211,-435.602,0,0
156303,221.574,-436.555,0,0
156563,223.688,-438.991,0,0
156823,223.478,-440.995,0,0
157084,222.268,-441.866,0,0
157344,220.488,-441.157,0,0
157604,219.117,-438.889,0,0
157864,218.785,-435.719,0,0
158125,219.5,-432.335,0,0
158385,220.599,-429.336,0,0
158645,222.432,-425.632,0,0
158906,225.48,-422.756,0,0
159166,229.07,-420.724,0,0
159426,232.856,-419.77,0,0
159687,236.096,-419.882,0,0
159947,238.224,-420.68,0,0
160207,239.065,-421.286,0,0
160468,239.434,-421.017,0,0
160728,239.306,-420.254,0,0
160988,239.023,-418.459,0,0
161249,239.451,-415.492,0,0
161509,240.956,-412.386,0,0
161769,243.242,-409.42,0,0
162030,246.031,-407.048,0,0
162290,248.994,-404.787,0,0
162550,252.624,-402.918,0,0
162811,256.441,-401.864,0,0
163071,260.087,-401.408,0,0
163331,263.404,-401.421,0,0
163592,266.65,-401.914,0,0
163852,269.391,-403.051,0,0
164112,271.567,-404.139,0,0
164373,273.078,-405.528,0,0
164633,274.022,-406.249,0,0
164893,275.318,-406.892,0,0
165154,276.4,-407.674,0,0
165414,277.681,-408.634,0,0
165674,278.497,-410.278,0,0
165935,278.2,-412.278,0,0
166195,276.722,-413.608,0,0
166455,275.056,-413.976,0,0
166716,273.225,-414.08,0,0
166976,270.909,-413.606,0,0
167236,268.609,-412.238,0,0
167497,266.624,-410.191,0,0
167757,265.03,-407.939,0,0
168017,263.353,-405.545,0,0
168277,261.69,-402.556,0,0
168538,260.425,-399.072,0,0
168798,259.45,-395.472,0,0
169058,258.796,-391.49,0,0
169319,258.444,-387.267,0,0
169579,258.58,-383.032,0,0
169839,259.161,-378.727,0,0
170100,259.951,-374.816,0,0
170360.075,260.33,-370.98,0,0
170620.4,260.846,-366.466,0,0
170880.725,261.839,-361.836,0,0
171141.05,263.069,-357.216,0,0
171401.375,264.574,-352.498,0,0
171661.7,266.162,-347.536,0,0
171922.025,268.136,-342.336,0,0
172182.35,270.774,-336.895,0,0
172442.675,274.254,-331.831,0,0
172703.0,278.085,-327.47,0,0
172963.325,281.831,-323.377,0,0
173223.65,285.66,-319.588,0,0
173483.975,289.362,-315.831,0,0
173744.3,293.312,-312.202,0,0
174004.625,297.413,-308.632,0,0
174264.95,301.642,-305.487,0,0
174525.275,305.826,-302.575,0,0
174785.6,309.734,-300.223,0,0
175045.925,313.28,-297.704,0,0
175306.25,316.47,-294.903,0,0
175566.575,319.667,-291.867,0,0
175826.9,322.802,-288.42,0,0
176087.225,326.161,-284.386,0,0
176347.55,330.46,-280.24,0,0
176607.875,335.06,-276.367,0,0
176868.2,339.852,-272.713,0,0
177128.525,345.014,-269.07,0,0
177388.85,350.396,-265.832,0,0
177649.175,355.504,-262.896,0,0
177909.5,360.351,-259.668,0,0
178169.825,365.73,-255.816,0,0
178430.15,372.006,-252.009,0,0
178690.475,378.647,-248.486,0,0
178950.8,385.934,-245.755,0,0
179211.125,393.334,-243.489,0,0
179471.45,400.735,-241.863,0,0
179731.775,408.007,-240.567,0,0
179992.1,415.079,-239.547,0,0
180252.425,422.603,-239.076,0,0
180512.75,429.872,-238.892,0,0
180773.075,436.451,-239.409,0,0
181033.4,442.752,-239.42,0,0
181293.725,449.013,-239.461,0,0
181554.05,454.94,-239.565,0,0
181814.375,461.002,-239.316,0,0
182074.7,467.378,-239.36,0,0
182335.025,473.584,-239.496,0,0
182595.35,479.917,-239.513,0,0
182855.675,487.224,-239.281,0,0
183116.0,494.406,-240.798,0,0
183376.325,500.301,-242.907,0,0
183636.65,505.042,-244.223,0,0
183896.975,509.677,-244.542,0,0
184157.3,514.943,-244.603,0,0
184417.625,520.303,-244.17,0,0
184677.95,526.235,-243.533,0,0
184938.275,532.702,-243.247,0,0
185198.6,539.343,-243.199,0,0
185458.925,546.015,-243.061,0,0
185719.25,553.117,-242.743,0,0
185979.575,560.624,-242.682,0,0
186239.9,568.527,-242.577,0,0
186500,577.366,-242.796,0,0
186761,586.63,-244.248,0,0
187021,595.167,-246.599,0,0
187281,603.203,-248.924,0,0
187542,610.98,-250.926,0,0
187802,619.258,-252.531,0,0
188062,628.343,-254.385,0,0
188322,638.072,-256.926,0,0
188583,648.134,-260.535,0,0
188843,657.973,-265.268,0,0
189103,667.184,-270.955,0,0
189364,675.493,-277.562,0,0
189624,682.26,-284.142,0,0
189884,688.196,-289.805,0,0
190145,694.229,-294.7,0,0
190405,700.323,-299.383,0,0
190665,706.272,-303.601,0,0
190926,712.586,-306.871,0,0
191186,720.299,-309.693,0,0
191446,729.28,-313.262,0,0
191707,738.582,-317.79,0,0
191967,748.306,-323.174,0,0
192227,757.725,-329.626,0,0
192488,766.634,-336.379,0,0
192748,775.028,-343.231,0,0
193008,783.359,-349.099,0,0
193269,793.418,-354.458,0,0
193529,804.816,-361.102,0,0
193789,817.449,-369.348,0,0
194050,830.348,-379.396,0,0
194310,843.333,-391.587,0,0
194570,855.721,-405.853,0,0
194831,866.646,-421.853,0,0
195091,875.676,-439.39,0,0
195351,882.572,-457.18,0,0
195612,888.486,-474.308,0,0
195872,894.386,-491.375,0,0
196132,900.187,-509.813,0,0
196393,904.815,-529.833,0,0
196653,907.456,-551.061,0,0
196913,907.705,-572.45,0,0
197174,906.166,-593.379,0,0
197434,903.18,-613.79,0,0
197694,899.011,-633.93,0,0
197955,893.255,-653.81,0,0
198215,885.941,-673.049,0,0
198475,876.802,-690.968,0,0
198735,867.275,-707.068,0,0
198996,857.714,-722.622,0,0
199256,847.841,-737.638,0,0
199516,837.179,-752.388,0,0
199777,825.57,-766.652,0,0
200037,812.707,-780.345,0,0
200297,798.846,-792.74,0,0
200558,784.064,-803.611,0,0
200818,769.101,-812.752,0,0
201078,753.819,-820.178,0,0
201339,739.39,-826.092,0,0
201599,725.845,-831.337,0,0
201859,712.722,-836.451,0,0
202120,699.359,-841.312,0,0
202380.025,685.866,-845.699,0,0
202640.35,671.533,-849.252,0,0
202900.675,656.921,-850.982,0,0
203161.0,642.957,-851.259,0,0
203421.325,630.27,-850.323,0,0
203681.65,618.512,-849.21,0,0
203941.975,607.264,-847.606,0,0
204202.3,596.777,-845.473,0,0
204462.625,586.894,-843.148,0,0
204722.95,577.745,-840.772,0,0
204983.275,568.727,-838.209,0,0
205243.6,560.446,-835.507,0,0
205503.925,552.411,-832.933,0,0
205764.25,544.281,-830.201,0,0
206024.575,536.113,-826.894,0,0
206284.9,528.232,-822.784,0,0
206545.225,521.147,-817.781,0,0
206805.55,514.996,-812.411,0,0
207065.875,510.242,-806.963,0,0
207326.2,506.286,-801.844,0,0
207586.525,503.062,-797.117,0,0
207846.85,500.331,-792.708,0,0
208107.175,498.127,-788.898,0,0
208367.5,496.106,-785.644,0,0
208627.825,493.973,-782.742,0,0
208888.15,491.831,-779.874,0,0
209148.475,489.739,-776.848,0,0
209408.8,487.923,-773.821,0,0
209669.125,486.628,-770.721,0,0
209929.45,485.77,-767.9,0,0
210189.775,485.432,-765.407,0,0
210450.1,485.052,-763.164,0,0
210710.425,485.095,-761.271,0,0
210970.75,485.379,-759.689,0,0
211231.075,485.699,-758.696,0,0
211491.4,485.926,-757.97,0,0
211751.725,486.205,-757.366,0,0
212012.05,486.717,-757.104,0,0
212272.375,487.37,-757.459,0,0
212532.7,487.678,-758.051,0,0
212793.025,488.049,-759.19,0,0
213053.35,488.084,-760.587,0,0
213313.675,487.774,-762.297,0,0
213574.0,487.083,-764.138,0,0
213834.325,486.127,-765.963,0,0
214094.65,484.984,-767.97,0,0
214354.975,483.499,-770.146,0,0
214615.3,481.491,-772.407,0,0
214875.625,479.103,-774.368,0,0
215135.95,476.49,-776.099,0,0
215396.275,473.566,-777.542,0,0
215656.6,470.324,-778.716,0,0
215916.925,466.983,-779.373,0,0
216177.25,463.752,-779.672,0,0
216437.575,460.509,-779.38,0,0
216697.9,457.56,-778.687,0,0
216958.225,454.984,-777.596,0,0
217218.55,452.933,-776.171,0,0
217478.875,451.591,-774.782,0,0
217739.2,450.936,-773.556,0,0
217999.525,450.529,-772.817,0,0
218259.85,450.384,-772.35,0,0
218520,450.512,-772.261,0,0
218780,450.744,-772.611,0,0
219041,450.859,-773.427,0,0
219301,450.976,-774.339,0,0
219561,450.932,-775.641,0,0
219822,450.844,-777.174,0,0
220082,450.544,-778.927,0,0
220342,450.085,-780.852,0,0
220603,449.377,-782.758,0,0
220863,448.723,-784.705,0,0
221123,448.026,-786.788,0,0
221384,447.2,-789.063,0,0
221644,446.402,-791.461,0,0
221904,445.57,-794.132,0,0
222165,444.571,-797.129,0,0
222425,443.071,-800.478,0,0
222685,441.065,-803.98,0,0
222946,438.649,-807.346,0,0
223206,435.721,-810.377,0,0
223466,432.628,-813.207,0,0
223727,429.421,-815.589,0,0
223987,426.567,-817.744,0,0
224247,423.805,-819.978,0,0
224508,421.178,-822.545,0,0
224768,418.322,-825.417,0,0
225028,415.172,-828.261,0,0
225289,411.765,-831.21,0,0
225549,408.042,-834.302,0,0
225809,403.752,-837.396,0,0
226070,398.838,-840.2,0,0
226330,393.709,-842.502,0,0
226590,388.549,-844.381,0,0
226851,383.24,-845.95,0,0
227111,377.875,-847.291,0,0
227371,372.545,-848.324,0,0
227632,367.091,-849.249,0,0
227892,361.266,-849.751,0,0
228152,355.453,-849.592,0,0
228413,350.033,-848.813,0,0
228673,345.219,-847.823,0,0
228933,340.931,-846.882,0,0
229193,336.978,-846.018,0,0
229454,333.151,-845.47,0,0
229714,329.41,-845.26,0,0
229974,325.541,-845.264,0,0
230235,321.333,-845.501,0,0
230495,316.773,-845.671,0,0
230755,311.813,-845.65,0,0
231016,306.527,-845.293,0,0
231276,301.339,-844.282,0,0
231536,296.318,-842.992,0,0
231797,291.487,-841.59,0,0
232057,286.71,-839.96,0,0
232317,282.064,-838.341,0,0
232578,277.432,-836.562,0,0
232838,272.793,-834.531,0,0
233098,268.319,-832.284,0,0
233359,264.087,-829.91,0,0
233619,259.984,-827.487,0,0
233879,255.94,-825.094,0,0
234140,251.844,-822.5,0,0
234400,247.855,-819.69,0,0
234660.3,244.102,-816.716,0,0
234920.625,240.543,-813.622,0,0
235180.95,237.082,-810.301,0,0
235441.275,233.9,-807.007,0,0
235701.6,230.971,-803.565,0,0
235961.925,228.252,-800.078,0,0
236222.25,225.824,-796.676,0,0
236482.575,223.58,-793.298,0,0
236742.9,221.577,-789.943,0,0
237003.225,219.744,-786.698,0,0
237263.55,218.065,-783.551,0,0
237523.875,216.476,-780.501,0,0
237784.2,215.028,-777.632,0,0
238044.525,213.578,-774.845,0,0
238304.85,212.217,-772.078,0,0
238565.175,210.873,-769.155,0,0
238825.5,209.766,-766.23,0,0
239085.825,208.956,-763.447,0,0
239346.15,208.451,-760.867,0,0
239606.475,208.075,-758.815,0,0
239866.8,207.628,-757.045,0,0
240127.125,206.961,-755.654,0,0
240387.45,206.078,-754.473,0,0
240647.775,204.892,-753.304,0,0
240908.1,203.458,-752.064,0,0
241168.425,201.939,-750.821,0,0
241428.75,200.202,-749.489,0,0
241689.075,198.31,-748.11,0,0
241949.4,196.438,-746.595,0,0
242209.725,194.431,-745.033,0,0
242470.05,192.26,-743.287,0,0
242730.375,190.048,-741.32,0,0
242990.7,187.885,-739.086,0,0
243251.025,185.864,-736.689,0,0
243511.35,183.982,-734.157,0,0
243771.675,182.213,-731.533,0,0
244032.0,180.543,-728.884,0,0
244292.325,178.96,-726.135,0,0
244552.65,177.558,-723.294,0,0
244812.975,176.368,-720.502,0,0
245073.3,175.293,-717.74,0,0
245333.625,174.233,-715.022,0,0
245593.95,173.176,-712.289,0,0
245854.275,172.274,-709.393,0,0
246114.6,171.53,-706.5,0,0
246374.925,171.035,-703.581,0,0
246635.25,170.814,-700.86,0,0
246895.575,170.699,-698.366,0,0
247155.9,170.632,-696.109,0,0
247416.225,170.478,-694.064,0,0
247676.55,170.113,-692.176,0,0
247936.875,169.595,-690.276,0,0
248197.2,168.904,-688.282,0,0
248457.525,168.224,-686.174,0,0
248717.85,167.41,-684.054,0,0
248978.175,166.624,-681.67,0,0
249238.5,165.856,-679.176,0,0
249498.825,165.243,-676.543,0,0
249759.15,164.726,-673.704,0,0
250019.475,164.508,-670.881,0,0
250279.8,164.373,-668.011,0,0
250540,164.434,-665.12,0,0
250800,164.693,-662.331,0,0
251061,165.046,-659.501,0,0
251321,165.587,-656.724,0,0
251581,166.325,-653.985,0,0
251842,167.281,-651.313,0,0
252102,168.482,-648.785,0,0
252362,169.884,-646.509,0,0
252623,171.511,-644.523,0,0
252883,173.173,-642.929,0,0
253143,174.704,-641.731,0,0
253404,176.013,-640.794,0,0
253664,177.044,-640.028,0,0
253924,177.836,-639.283,0,0
254185,178.397,-638.506,0,0
254445,178.89,-637.679,0,0
254705,179.194,-636.76,0,0
254966,179.355,-635.719,0,0
255226,179.621,-634.449,0,0
255486,179.956,-633.199,0,0
255747,180.308,-631.804,0,0
256007,180.766,-630.375,0,0
256267,181.294,-628.952,0,0
256528,181.973,-627.548,0,0
256788,182.712,-626.242,0,0
257048,183.437,-624.982,0,0
257309,184.216,-623.668,0,0
257569,185.033,-622.362,0,0
257829,185.97,-621.049,0,0
258090,187.025,-619.803,0,0
258350,188.163,-618.621,0,0
258610,189.405,-617.567,0,0
258871,190.696,-616.614,0,0
259131,192.024,-615.772,0,0
259391,193.413,-615.071,0,0
259651,194.844,-614.522,0,0
259912,196.36,-614.062,0,0
260172,197.647,-613.908,0,0
260432,198.799,-613.85,0,0
260693,199.766,-613.792,0,0
260953,200.74,-613.719,0,0
261213,201.661,-613.645,0,0
261474,202.544,-613.607,0,0
261734,203.416,-613.596,0,0
261994,204.255,-613.605,0,0
262255,205.117,-613.696,0,0
262515,205.894,-613.913,0,0
262775,206.48,-614.228,0,0
263036,206.835,-614.415,0,0
263296,207.147,-614.408,0,0
263556,207.552,-614.297,0,0
263817,208.019,-614.213,0,0
264077,208.433,-614.171,0,0
264337,208.789,-614.107,0,0
264598,209.081,-613.85,0,0
264858,209.394,-613.476,0,0
265118,209.852,-612.823,0,0
265379,210.501,-612.046,0,0
265639,211.428,-611.295,0,0
265899,212.568,-610.578,0,0
266160,213.956,-609.874,0,0
266420,215.595,-609.253,0,0
266680.25,217.543,-608.744,0,0
266940.575,219.742,-608.538,0,0
267200.9,222.136,-608.588,0,0
267461.225,224.691,-608.977,0,0
267721.55,227.348,-609.784,0,0
267981.875,230.016,-611.035,0,0
268242.2,232.62,-612.637,0,0
268502.525,235.174,-614.606,0,0
268762.85,237.627,-616.949,0,0
269023.175,239.859,-619.64,0,0
269283.5,241.986,-622.813,0,0
269543.825,243.522,-626.37,0,0
269804.15,244.598,-629.997,0,0
270064.475,245.475,-633.647,0,0
270324.8,246.108,-637.473,0,0
270585.125,246.491,-641.532,0,0
270845.45,246.494,-645.831,0,0
271105.775,245.976,-650.181,0,0
271366.1,245.032,-654.718,0,0
271626.425,243.564,-659.071,0,0
271886.75,241.655,-663.292,0,0
272147.075,239.491,-667.378,0,0
272407.4,236.952,-671.41,0,0
272667.725,233.968,-675.34,0,0
272928.05,230.542,-679.033,0,0
273188.375,226.689,-682.364,0,0
273448.7,222.52,-685.383,0,0
273709.025,218.117,-687.923,0,0
273969.35,213.551,-690.084,0,0
274229.675,208.795,-691.829,0,0
274490.0,203.942,-693.112,0,0
274750.325,198.942,-693.901,0,0
275010.65,194.122,-694.286,0,0
275270.975,189.338,-694.229,0,0
275531.3,184.769,-693.827,0,0
275791.625,180.388,-693.029,0,0
276051.95,176.278,-692.008,0,0
276312.275,172.429,-690.806,0,0
276572.6,168.873,-689.526,0,0
276832.925,165.266,-688.314,0,0
277093.25,161.887,-686.796,0,0
277353.575,158.674,-685.13,0,0
277613.9,155.642,-683.414,0,0
277874.225,152.763,-681.645,0,0
278134.55,149.992,-679.826,0,0
278394.875,147.305,-677.94,0,0
278655.2,144.724,-675.933,0,0
278915.525,142.27,-673.849,0,0
279175.85,139.93,-671.643,0,0
279436.175,137.799,-669.335,0,0
279696.5,135.83,-666.905,0,0
279956.825,134.1,-664.472,0,0
280217.15,132.615,-662.023,0,0
280477.475,131.347,-659.576,0,0
280737.8,130.289,-657.186,0,0
280998.125,129.426,-654.966,0,0
281258.45,128.713,-652.861,0,0
281518.775,128.104,-650.872,0,0
281779.1,127.57,-648.997,0,0
282039.425,127.085,-647.239,0,0
282299.75,126.67,-645.592,0,0
282560,126.285,-644.063,0,0
282820,125.929,-642.652,0,0
283081,125.553,-641.348,0,0
283341,125.085,-640.118,0,0
283601,124.575,-638.903,0,0
283862,124.032,-637.622,0,0
284122,123.527,-636.331,0,0
284382,123.042,-635.015,0,0
284643,122.665,-633.666,0,0
284903,122.3,-632.379,0,0
285163,121.992,-631.001,0,0
285424,121.846,-629.609,0,0
285684,121.931,-628.219,0,0
285944,122.188,-626.963,0,0
286205,122.522,-625.916,0,0
286465,123.066,-625.056,0,0
286725,123.696,-624.461,0,0
286986,124.395,-624.185,0,0
287246,125.01,-624.283,0,0
287506,125.426,-624.727,0,0
287767,125.527,-625.413,0,0
288027,125.268,-626.274,0,0
288287,124.621,-627.116,0,0
288548,123.686,-627.881,0,0
288808,122.524,-628.507,0,0
289068,121.16,-628.983,0,0
289329,119.68,-629.332,0,0
289589,118.034,-629.487,0,0
289849,116.357,-629.475,0,0
290109,114.608,-629.295,0,0
290370,112.842,-628.921,0,0
290630,111.17,-628.394,0,0
290890,109.606,-627.738,0,0
291151,108.135,-627.085,0,0
291411,106.702,-626.49,0,0
291671,105.244,-625.909,0,0
291932,103.735,-625.326,0,0
292192,102.113,-624.705,0,0
292452,100.417,-623.97,0,0
292713,98.7082,-623.106,0,0
292973,97.0291,-622.114,0,0
293233,95.3731,-621.006,0,0
293494,93.7962,-619.814,0,0
293754,92.2936,-618.559,0,0
294014,90.8312,-617.267,0,0
294275,89.4611,-615.931,0,0
294535,88.1181,-614.556,0,0
294795,86.8161,-613.137,0,0
295056,85.5614,-611.695,0,0
295316,84.3712,-610.207,0,0
295576,83.2034,-608.703,0,0
295837,82.1103,-607.157,0,0
296097,81.0969,-605.617,0,0
296357,80.1102,-604.027,0,0
296618,79.2159,-602.425,0,0
296878,78.3652,-600.848,0,0
297138,77.5684,-599.289,0,0
297399,76.813,-597.739,0,0
297659,76.0941,-596.195,0,0
297919,75.3792,-594.629,0,0
298180,74.7148,-593.085,0,0
298440,74.0853,-591.539,0,0
298700.2,73.4911,-589.978,0,0
298960.525,72.9413,-588.421,0,0
299220.85,72.4345,-586.876,0,0
299481.175,71.9431,-585.324,0,0
299741.5,71.4938,-583.799,0,0
300001.825,71.0639,-582.227,0,0
300262.15,70.6781,-580.651,0,0
300522.475,70.3467,-579.062,0,0
300782.8,70.0797,-577.492,0,0
301043.125,69.8688,-575.925,0,0
301303.45,69.7382,-574.35,0,0
301563.775,69.6738,-572.825,0,0
301824.1,69.6741,-571.349,0,0
302084.425,69.7198,-569.938,0,0
302344.75,69.8133,-568.612,0,0
302605.075,69.9097,-567.315,0,0
302865.4,70.0414,-566.076,0,0
303125.725,70.1852,-564.911,0,0
303386.05,70.3066,-563.786,0,0
303646.375,70.4328,-562.7,0,0
303906.7,70.5316,-561.648,0,0
304167.025,70.6526,-560.631,0,0
304427.35,70.7638,-559.632,0,0
304687.675,70.856,-558.656,0,0
304948.0,70.9752,-557.706,0,0
305208.325,71.0852,-556.755,0,0
305468.65,71.2186,-555.825,0,0
305728.975,71.4026,-554.957,0,0
305989.3,71.5596,-554.121,0,0
306249.625,71.7405,-553.343,0,0
306509.95,71.8776,-552.611,0,0
306770.275,72.008,-551.913,0,0
307030.6,72.1301,-551.235,0,0
307290.925,72.2248,-550.592,0,0
307551.25,72.3007,-549.957,0,0
307811.575,72.4004,-549.337,0,0
308071.9,72.5099,-548.772,0,0
308332.225,72.6025,-548.258,0,0
308592.55,72.6812,-547.804,0,0
308852.875,72.7024,-547.433,0,0
309113.2,72.6326,-547.123,0,0
309373.525,72.4522,-546.798,0,0
309633.85,72.2027,-546.452,0,0
309894.175,71.8935,-546.056,0,0
310154.5,71.5605,-545.595,0,0
310414.825,71.222,-545.089,0,0
310675.15,70.8892,-544.568,0,0
310935.475,70.5627,-544.026,0,0
311195.8,70.2504,-543.464,0,0
311456.125,69.9144,-542.915,0,0
311716.45,69.6132,-542.352,0,0
311976.775,69.2884,-541.802,0,0
312237.1,68.949,-541.264,0,0
312497.425,68.6063,-540.719,0,0
312757.75,68.2406,-540.169,0,0
313018.075,67.8441,-539.621,0,0
313278.4,67.4351,-539.055,0,0
313538.725,67.0024,-538.497,0,0
313799.05,66.5418,-537.922,0,0
314059.375,66.047,-537.31,0,0
314319.7,65.5282,-536.647,0,0
314580,64.9396,-535.934,0,0
314840,64.5329,-535.168,0,0
315101,64.0008,-534.436,0,0
315361,63.6735,-533.521,0,0
315621,63.1307,-532.777,0,0
315882,62.8085,-531.931,0,0
316142,62.4785,-531.047,0,0
316402,62.1252,-530.15,0,0
316663,61.8496,-529.249,0,0
316923,61.5906,-528.444,0,0
317183,61.3745,-527.59,0,0
317444,61.1532,-526.709,0,0
317704,60.9798,-525.91,0,0
317964,60.8253,-525.075,0,0
318225,60.6839,-524.242,0,0
318485,60.5611,-523.471,0,0
318745,60.4375,-522.706,0,0
319006,60.3203,-521.997,0,0
319266,60.2586,-521.287,0,0
319526,60.1855,-520.601,0,0
319787,60.1085,-519.864,0,0
320047,60.111,-519.281,0,0
320307,59.9745,-518.72,0,0
320567,59.9217,-518.181,0,0
320828,59.7531,-517.634,0,0
321088,59.5823,-517.127,0,0
321348,59.3829,-516.681,0,0
321609,59.2202,-516.148,0,0
321869,58.9828,-515.738,0,0
322129,58.653,-515.174,0,0
322390,58.3742,-514.713,0,0
322650,58.1243,-514.195,0,0
322910,57.8022,-513.66,0,0
323171,57.5196,-513.142,0,0
323431,57.1841,-512.622,0,0
323691,56.8418,-512.204,0,0
323952,56.5287,-511.64,0,0
324212,56.109,-511.159,0,0
324472,55.6943,-510.635,0,0
324733,55.2695,-510.068,0,0
324993,54.7515,-509.509,0,0
325253,54.284,-508.88,0,0
325514,53.7309,-508.281,0,0
325774,53.2818,-507.562,0,0
326034,52.8215,-506.842,0,0
326295,52.3959,-506.123,0,0
326555,51.9301,-505.363,0,0
326815,51.4708,-504.632,0,0
327076,51.0889,-503.867,0,0
327336,50.7053,-503.077,0,0
327596,50.3087,-502.254,0,0
327857,49.9658,-501.514,0,0
328117,49.5949,-500.659,0,0
328377,49.2626,-499.859,0,0
328638,48.9179,-499.072,0,0
328898,48.6277,-498.284,0,0
329158,48.288,-497.399,0,0
329419,47.9426,-496.679,0,0
329679,47.6791,-495.769,0,0
329939,47.3832,-494.99,0,0
330200,47.0812,-494.14,0,0
330460,46.7501,-493.323,0,0
330720.15,46.4433,-492.508,0,0
330980.475,46.1639,-491.643,0,0
331240.8,45.9013,-490.779,0,0
331501.125,45.6831,-489.9,0,0
331761.45,45.4517,-488.994,0,0
332021.775,45.2225,-488.17,0,0
332282.1,44.9941,-487.261,0,0
332542.425,44.8137,-486.452,0,0
332802.75,44.6675,-485.526,0,0
333063.075,44.5057,-484.65,0,0
333323.4,44.3524,-483.816,0,0
333583.725,44.2141,-482.911,0,0
333844.05,44.1483,-482.024,0,0
334104.375,44.0309,-481.128,0,0
334364.7,43.9717,-480.279,0,0
334625.025,43.9417,-479.427,0,0
334885.35,43.9008,-478.6,0,0
335145.675,43.9088,-477.812,0,0
335406.0,43.922,-476.998,0,0
335666.325,43.9223,-476.207,0,0
335926.65,43.9142,-475.517,0,0
336186.975,43.8903,-474.752,0,0
336447.3,43.9394,-474.103,0,0
336707.625,43.9708,-473.371,0,0
336967.95,43.9805,-472.634,0,0
337228.275,43.9569,-471.977,0,0
337488.6,43.9492,-471.354,0,0
337748.925,43.9346,-470.698,0,0
338009.25,43.918,-470.095,0,0
338269.575,43.8817,-469.49,0,0
338529.9,43.8522,-468.878,0,0
338790.225,43.8146,-468.274,0,0
339050.55,43.7245,-467.658,0,0
339310.875,43.6212,-467.088,0,0
339571.2,43.496,-466.501,0,0
339831.525,43.3636,-465.858,0,0
340091.85,43.3073,-465.298,0,0
340352.175,43.1985,-464.696,0,0
340612.5,42.9865,-464.073,0,0
340872.825,42.8583,-463.433,0,0
341133.15,42.7415,-462.823,0,0
341393.475,42.5315,-462.229,0,0
341653.8,42.4054,-461.555,0,0
341914.125,42.2134,-460.881,0,0
342174.45,42.0352,-460.204,0,0
342434.775,41.9034,-459.521,0,0
342695.1,41.7535,-458.834,0,0
342955.425,41.6331,-458.126,0,0
343215.75,41.4676,-457.438,0,0
343476.075,41.3103,-456.747,0,0
343736.4,41.1552,-456.009,0,0
343996.725,41.0543,-455.28,0,0
344257.05,40.9008,-454.534,0,0
344517.375,40.8462,-453.832,0,0
344777.7,40.7736,-453.079,0,0
345038.025,40.6869,-452.274,0,0
345298.35,40.5581,-451.547,0,0
345558.675,40.5244,-450.839,0,0
345819.0,40.4275,-450.093,0,0
346079.325,40.3404,-449.322,0,0
346339.65,40.331,-448.613,0,0
346599.975,40.3071,-447.88,0,0
346860,40.2793,-447.108,0,0
347121,40.2871,-446.353,0,0
347381,40.3213,-445.639,0,0
347641,40.2337,-444.889,0,0
347902,40.3176,-444.172,0,0
348162,40.3546,-443.434,0,0
348422,40.3869,-442.737,0,0
348683,40.4331,-442.014,0,0
348943,40.4786,-441.36,0,0
349203,40.4873,-440.602,0,0
349464,40.5714,-439.963,0,0
349724,40.6427,-439.278,0,0
349984,40.7233,-438.61,0,0
350245,40.7685,-437.904,0,0
350505,40.8938,-437.234,0,0
350765,40.9915,-436.591,0,0
351025,41.0928,-435.984,0,0
351286,41.1742,-435.377,0,0
351546,41.3148,-434.767,0,0
351806,41.3586,-434.169,0,0
352067,41.4428,-433.561,0,0
352327,41.5316,-433.051,0,0
352587,41.6145,-432.463,0,0
352848,41.66,-431.866,0,0
353108,41.7168,-431.284,0,0
353368,41.8324,-430.686,0,0
353629,41.8829,-430.126,0,0
353889,41.9956,-429.556,0,0
354149,42.065,-428.968,0,0
354410,42.1418,-428.428,0,0
354670,42.2478,-427.851,0,0
354930,42.3208,-427.35,0,0
355191,42.3851,-426.858,0,0
355451,42.532,-426.338,0,0
355711,42.5814,-425.815,0,0
355972,42.6771,-425.347,0,0
356232,42.6967,-424.886,0,0
356492,42.7632,-424.43,0,0
356753,42.7351,-423.968,0,0
357013,42.7527,-423.516,0,0
357273,42.7597,-423.012,0,0
357534,42.7497,-422.575,0,0
357794,42.7429,-422.032,0,0
358054,42.7335,-421.538,0,0
358315,42.6734,-421.084,0,0
358575,42.6765,-420.537,0,0
358835,42.6003,-419.986,0,0
359096,42.5351,-419.459,0,0
359356,42.5209,-418.864,0,0
359616,42.4718,-418.348,0,0
359877,42.491,-417.733,0,0
360137,42.4831,-417.191,0,0
360397,42.4226,-416.616,0,0
360658,42.4293,-416.071,0,0
360918,42.4224,-415.472,0,0
361178,42.4132,-414.899,0,0
361438,42.4195,-414.298,0,0
361699,42.4409,-413.733,0,0
361959,42.4406,-413.141,0,0
362219,42.4389,-412.568,0,0
362480,42.4881,-411.932,0,0
362740.1,42.4902,-411.34,0,0
363000.425,42.5718,-410.735,0,0
363260.75,42.5927,-410.134,0,0
363521.075,42.6861,-409.539,0,0
363781.4,42.7487,-408.896,0,0
364041.725,42.8212,-408.334,0,0
364302.05,42.9233,-407.712,0,0
364562.375,43.0586,-407.109,0,0
364822.7,43.1943,-406.537,0,0
365083.025,43.2921,-405.934,0,0
365343.35,43.4398,-405.391,0,0
365603.675,43.6154,-404.814,0,0
365864.0,43.7946,-404.271,0,0
366124.325,43.9566,-403.746,0,0
366384.65,44.1041,-403.258,0,0
366644.975,44.2608,-402.777,0,0
366905.3,44.3938,-402.271,0,0
367165.625,44.5274,-401.871,0,0
367425.95,44.66,-401.407,0,0
367686.275,44.7951,-400.894,0,0
367946.6,44.8742,-400.453,0,0
368206.925,44.9618,-399.925,0,0
368467.25,45.0445,-399.399,0,0
368727.575,45.1771,-398.877,0,0
368987.9,45.3106,-398.353,0,0
369248.225,45.5017,-397.801,0,0
369508.55,45.5941,-397.288,0,0
369768.875,45.8293,-396.719,0,0
370029.2,46.0782,-396.22,0,0
370289.525,46.3419,-395.723,0,0
370549.85,46.6222,-395.299,0,0
370810.175,46.9508,-394.873,0,0
371070.5,47.1985,-394.506,0,0
371330.825,47.4736,-394.201,0,0
371591.15,47.7233,-393.889,0,0
371851.475,47.9124,-393.594,0,0
372111.8,48.1586,-393.37,0,0
372372.125,48.3093,-393.102,0,0
372632.45,48.4391,-392.846,0,0
372892.775,48.5721,-392.622,0,0
373153.1,48.6936,-392.389,0,0
373413.425,48.7879,-392.145,0,0
373673.75,48.8522,-391.91,0,0
373934.075,48.8653,-391.71,0,0
374194.4,48.8397,-391.447,0,0
374454.725,48.8879,-391.19,0,0
374715.05,48.8502,-390.859,0,0
374975.375,48.8314,-390.572,0,0
375235.7,48.8598,-390.199,0,0
375496.025,48.867,-389.86,0,0
375756.35,48.8473,-389.539,0,0
376016.675,48.8781,-389.167,0,0
376277.0,48.918,-388.801,0,0
376537.325,48.9339,-388.431,0,0
376797.65,49.0227,-388.13,0,0
377057.975,49.1105,-387.775,0,0
377318.3,49.1348,-387.5,0,0
377578.625,49.1988,-387.2,0,0
377838.95,49.2764,-386.99,0,0
378099.275,49.2723,-386.734,0,0
378359.6,49.2509,-386.504,0,0
378619.925,49.1891,-386.258,0,0
378880,49.0342,-386.008,0,0
379141,48.9358,-385.687,0,0
379401,48.8044,-385.322,0,0
379661,48.6858,-384.901,0,0
379922,48.6024,-384.419,0,0
380182,48.5844,-383.918,0,0
380442,48.6611,-383.459,0,0
380703,48.7858,-382.993,0,0
380963,49.0038,-382.586,0,0
381223,49.2561,-382.303,0,0
381483,49.4381,-382.102,0,0
381744,49.6008,-381.981,0,0
382004,49.6705,-381.92,0,0
382264,49.6383,-381.925,0,0
382525,49.5402,-381.848,0,0
382785,49.3407,-381.777,0,0
383045,49.1095,-381.719,0,0
383306,48.8212,-381.508,0,0
383566,48.556,-381.315,0,0
383826,48.2536,-381.072,0,0
384087,47.9157,-380.761,0,0
384347,47.6201,-380.437,0,0
384607,47.2902,-380.055,0,0
384868,46.9726,-379.627,0,0
385128,46.7041,-379.195,0,0
385388,46.381,-378.73,0,0
385649,46.134,-378.21,0,0
385909,45.8476,-377.715,0,0
386169,45.625,-377.178,0,0
386430,45.3859,-376.612,0,0
386690,45.2384,-376.048,0,0
386950,45.0382,-375.499,0,0
387211,44.8438,-374.933,0,0
387471,44.733,-374.341,0,0
387731,44.6103,-373.705,0,0
387992,44.515,-373.152,0,0
388252,44.4014,-372.498,0,0
388512,44.3659,-371.866,0,0
388773,44.3042,-371.267,0,0
389033,44.3103,-370.683,0,0
389293,44.3096,-370.11,0,0
389554,44.3304,-369.524,0,0
389814,44.3389,-368.972,0,0
390074,44.3947,-368.455,0,0
390335,44.4068,-367.94,0,0
390595,44.4498,-367.45,0,0
390855,44.4957,-366.962,0,0
391116,44.4681,-366.459,0,0
391376,44.4701,-365.963,0,0
391636,44.4716,-365.493,0,0
391896,44.4887,-365.012,0,0
392157,44.4633,-364.519,0,0
392417,44.4442,-364.006,0,0
392677,44.427,-363.521,0,0
392938,44.4216,-363.016,0,0
393198,44.4054,-362.501,0,0
393458,44.4432,-361.987,0,0
393719,44.433,-361.465,0,0
393979,44.4678,-360.977,0,0
394239,44.4768,-360.472,0,0
394500,44.4809,-359.923,0,0
394760.05,44.4872,-359.449,0,0
395020.375,44.5132,-358.924,0,0
395280.7,44.5125,-358.42,0,0
395541.025,44.5463,-357.905,0,0
395801.35,44.6054,-357.346,0,0
396061.675,44.6393,-356.839,0,0
396322.0,44.7065,-356.31,0,0
396582.325,44.7789,-355.81,0,0
396842.65,44.8725,-355.314,0,0
397102.975,44.9068,-354.847,0,0
397363.3,44.9969,-354.355,0,0
397623.625,45.0716,-353.924,0,0
397883.95,45.1369,-353.445,0,0
398144.275,45.2094,-353.01,0,0
398404.6,45.2361,-352.548,0,0
398664.925,45.2652,-352.099,0,0
398925.25,45.315,-351.643,0,0
399185.575,45.3094,-351.176,0,0
399445.9,45.3386,-350.727,0,0
399706.225,45.3447,-350.237,0,0
399966.55,45.3544,-349.785,0,0
400006.6,45.3371,-349.662,0,0