File: Accelerated corrosion test data/2025-10-05_18-00-02/sample_3.csv
Frequency (Hz),Impedance (ohms),Phase (Radians),Temperature (C),Humidity (%)
10000.0,252.222,-11742.8,0,0
10260.325,246.026,-11446.9,0,0
10520.65,240.133,-11165.6,0,0
10780.975,235.557,-10897.2,0,0
11041.3,230.282,-10645.8,0,0
11301.625,224.958,-10401.7,0,0
11561.95,220.215,-10168.4,0,0
11822.275,215.185,-9946.4,0,0
12082.6,212.828,-9733.49,0,0
12342.925,209.963,-9528.5,0,0
12603.25,203.915,-9335.44,0,0
12863.575,199.973,-9146.55,0,0
13123.9,199.897,-8963.94,0,0
13384.225,193.192,-8796.15,0,0
13644.55,189.941,-8628.93,0,0
13904.875,186.031,-8466.02,0,0
14165.2,185.156,-8310.58,0,0
14425.525,181.456,-8160.72,0,0
14685.8,178.106,-8017.02,0,0
14946.175,177.148,-7879.02,0,0
15206.5,173.702,-7740.24,0,0
15466.825,178.959,-7601.81,0,0
15727.15,194.441,-7496.48,0,0
15987.5,174.74,-7387.75,0,0
16247.8,168.311,-7259.01,0,0
16508.125,162.434,-7147.52,0,0
16768.45,165.156,-7026.67,0,0
17028.775,157.884,-6929.2,0,0
17289.1,160.969,-6816.34,0,0
17549.425,156.701,-6724.57,0,0
17809.75,156.697,-6620.29,0,0
18070.075,163.471,-6532.94,0,0
18330.4,151.366,-6441.18,0,0
18590.725,149.137,-6348.84,0,0
18851.05,145.166,-6259.94,0,0
19111.375,146.591,-6170,0,0
19371.7,145.817,-6088.2,0,0
19632.025,146.358,-6005.54,0,0
19892.35,147.538,-5923.72,0,0
20152.675,149.271,-5850.13,0,0
20413.0,157.605,-5771.17,0,0
20673.3,164.445,-5705.1,0,0
20933.65,160.903,-5650.73,0,0
21193.975,163.581,-5587.07,0,0
21454.3,145.63,-5526.78,0,0
21714.625,138.549,-5452.16,0,0
21974.9,142.386,-5386.3,0,0
22235.275,138.766,-5327.8,0,0
22495.6,137.989,-5266.29,0,0
22755.925,129.419,-5206.72,0,0
23016.25,128.301,-5147.86,0,0
23276.6,128.14,-5085.9,0,0
23536.9,129.636,-5039.44,0,0
23797.225,121.468,-4981.67,0,0
24057.55,119.681,-4924.66,0,0
24317.875,119.321,-4869.4,0,0
24578.2,117.279,-4819.95,0,0
24838.525,118.267,-4766.51,0,0
25098.85,116.682,-4720.62,0,0
25359.175,114.885,-4670.74,0,0
25619.5,113.896,-4622.78,0,0
25879.8,111.105,-4576.75,0,0
26140.1,108.957,-4529.65,0,0
26400.5,107.722,-4482.82,0,0
26660.8,108.65,-4438.05,0,0
26921.1,108.799,-4393.66,0,0
27181.4,108.429,-4353.61,0,0
27441.8,107.285,-4309.67,0,0
27702.1,108.684,-4270.54,0,0
27962.4,105.459,-4231.11,0,0
28222.7,104.001,-4188.65,0,0
28483.1,110.151,-4145.07,0,0
28743.4,112.618,-4110.86,0,0
29003.7,115.542,-4080.92,0,0
29264,107.11,-4048.31,0,0
29524.4,110.35,-4010,0,0
29784.7,105.046,-3977.04,0,0
30045,102.65,-3943.03,0,0
30305.3,100.739,-3906.4,0,0
30565.7,102.842,-3872.37,0,0
30826,100.406,-3840.09,0,0
31086.3,102.562,-3807.56,0,0
31346.6,98.9488,-3777.65,0,0
31607,97.2765,-3743.33,0,0
31867.3,98.4564,-3709.6,0,0
32127.6,101.134,-3676.91,0,0
32387.9,109.307,-3648.02,0,0
32648.3,112.235,-3629.77,0,0
32908.6,103.379,-3606.13,0,0
33168.9,101.194,-3578.38,0,0
33429.2,99.9254,-3551.49,0,0
33689.6,94.3205,-3524.9,0,0
33949.9,91.2902,-3495.25,0,0
34210.2,90.8897,-3467.4,0,0
34470.5,89.8641,-3440.84,0,0
34730.9,87.9971,-3414.76,0,0
34991.2,86.8506,-3388.37,0,0
35251.5,86.1211,-3362.53,0,0
35511.8,85.0921,-3337.4,0,0
35772.2,84.4419,-3312.27,0,0
36032.5,83.628,-3287.49,0,0
36292.8,82.9697,-3263.05,0,0
36553.1,82.8206,-3239.77,0,0
36813.5,81.7865,-3216.46,0,0
37073.8,81.4052,-3193.46,0,0
37334.1,80.6806,-3170.21,0,0
37594.4,80.2476,-3147.67,0,0
37854.8,79.8636,-3125.87,0,0
38115.1,79.0108,-3103.86,0,0
38375.4,78.4366,-3082.34,0,0
38635.7,78.2894,-3060.86,0,0
38896.1,77.9018,-3040.03,0,0
39156.4,77.5343,-3018.97,0,0
39416.7,77.3287,-2999.02,0,0
39677,76.7439,-2978.88,0,0
39937.4,76.0078,-2958.94,0,0
40197.7,75.6127,-2938.89,0,0
40458,75.3486,-2919.59,0,0
40718.3,75.145,-2900.37,0,0
40978.7,74.5458,-2881.12,0,0
41239,74.5894,-2862.26,0,0
41499.3,74.5907,-2844.12,0,0
41759.6,74.4744,-2825.54,0,0
42020,74.0014,-2808.07,0,0
42280.275,73.9494,-2790.26,0,0
42540.6,73.6504,-2772.84,0,0
42800.925,73.2836,-2755.73,0,0
43061.25,72.9895,-2738.55,0,0
43321.575,72.2461,-2721.62,0,0
43581.9,71.9166,-2704.56,0,0
43842.225,71.983,-2687.55,0,0
44102.55,72.1864,-2671.15,0,0
44362.875,72.1645,-2655.71,0,0
44623.2,71.6226,-2639.76,0,0
44883.525,71.5496,-2623.66,0,0
45143.85,71.0911,-2608.32,0,0
45404.175,70.7971,-2592.92,0,0
45664.5,70.2914,-2577.24,0,0
45924.825,70.7885,-2562.13,0,0
46185.15,70.6505,-2547.8,0,0
46445.475,70.1897,-2532.78,0,0
46705.8,69.9362,-2518.13,0,0
46966.125,70.1958,-2503.5,0,0
47226.45,69.5844,-2489.61,0,0
47486.775,69.6536,-2474.92,0,0
47747.1,70.2872,-2460.51,0,0
48007.425,70.8941,-2447.63,0,0
48267.75,70.8597,-2434.76,0,0
48528.075,69.6259,-2421.6,0,0
48788.4,69.573,-2408.39,0,0
49048.725,68.8709,-2395.31,0,0
49309.05,67.9918,-2381.97,0,0
49569.375,68.0171,-2368.73,0,0
49829.7,67.9358,-2355.9,0,0
50090.025,67.2993,-2343.41,0,0
50350.35,66.9222,-2330.59,0,0
50610.675,66.6073,-2317.58,0,0
50871.0,66.6826,-2304.88,0,0
51131.325,66.5585,-2292.57,0,0
51391.65,66.4022,-2280.28,0,0
51651.975,66.4387,-2268.02,0,0
51912.3,66.4496,-2256.07,0,0
52172.625,66.2292,-2244.2,0,0
52432.95,66.1752,-2232.19,0,0
52693.275,66.4408,-2220.21,0,0
52953.6,66.874,-2208.49,0,0
53213.925,67.5406,-2196.89,0,0
53474.25,68.3008,-2186.1,0,0
53734.575,68.4585,-2175.41,0,0
53994.9,68.6186,-2164.61,0,0
54255.225,69.5934,-2153.87,0,0
54515.55,70.5325,-2144.58,0,0
54775.875,69.9842,-2135.67,0,0
55036.2,68.987,-2125.76,0,0
55296.525,68.4357,-2116.35,0,0
55556.85,67.0087,-2106.81,0,0
55817.175,65.44,-2096.33,0,0
56077.5,64.4809,-2085.71,0,0
56337.825,63.7852,-2075.18,0,0
56598.15,62.7412,-2064.82,0,0
56858.475,61.9314,-2054.12,0,0
57118.8,61.5066,-2043.27,0,0
57379.125,61.4412,-2032.79,0,0
57639.45,61.4123,-2022.4,0,0
57899.775,61.4421,-2012.32,0,0
58160.1,61.4073,-2002.27,0,0
58420.4,61.3216,-1992.37,0,0
58680.7,61.3915,-1982.29,0,0
58941.1,61.5722,-1972.61,0,0
59201.4,61.7267,-1962.78,0,0
59461.7,61.9243,-1953.23,0,0
59722,62.1868,-1943.82,0,0
59982.4,62.4331,-1934.49,0,0
60242.7,62.8039,-1925.18,0,0
60503,62.928,-1915.96,0,0
60763.3,63.3455,-1906.67,0,0
61023.7,63.7663,-1897.68,0,0
61284,64.2355,-1888.71,0,0
61544.3,64.7355,-1879.58,0,0
61804.6,65.2741,-1871.06,0,0
62065,65.5516,-1862.26,0,0
62325.3,65.9748,-1853.41,0,0
62585.6,66.6072,-1844.78,0,0
62845.9,67.2026,-1835.87,0,0
63106.3,68.3835,-1827.13,0,0
63366.6,69.181,-1818.87,0,0
63626.9,70.1325,-1809.96,0,0
63887.2,72.0532,-1801.71,0,0
64147.6,73.3774,-1793.47,0,0
64407.9,75.368,-1785.29,0,0
64668.2,77.9394,-1777.18,0,0
64928.5,80.8663,-1770.03,0,0
65188.9,85.1032,-1763.99,0,0
65449.2,87.5246,-1759.99,0,0
65709.5,89.2753,-1755.45,0,0
65969.8,91.9123,-1752.53,0,0
66230.2,91.5541,-1752.15,0,0
66490.5,86.6089,-1750.26,0,0
66750.8,81.109,-1744.26,0,0
67011.1,77.6919,-1734.84,0,0
67271.5,76.6924,-1726.99,0,0
67531.8,74.9158,-1718.95,0,0
67792.1,75.1843,-1710.5,0,0
68052.4,75.1737,-1702.99,0,0
68312.8,76.2312,-1695.8,0,0
68573.1,76.5612,-1689.84,0,0
68833.4,76.5165,-1683.76,0,0
69093.7,76.8302,-1677.41,0,0
69354.1,77.1165,-1671.89,0,0
69614.4,76.4471,-1666.48,0,0
69874.7,75.7021,-1660.82,0,0
70135,74.7255,-1655.15,0,0
70395.4,73.7662,-1649.08,0,0
70655.7,72.7333,-1643.05,0,0
70916,71.5719,-1636.8,0,0
71176.3,70.3176,-1630.31,0,0
71436.7,69.6893,-1623.58,0,0
71697,68.9752,-1616.84,0,0
71957.3,68.9134,-1609.98,0,0
72217.6,68.9873,-1603.73,0,0
72478,68.9993,-1597.64,0,0
72738.3,68.9985,-1591.87,0,0
72998.6,68.8093,-1586.33,0,0
73258.9,68.1951,-1580.76,0,0
73519.3,67.5521,-1574.97,0,0
73779.6,67.269,-1569.24,0,0
74039.9,66.6829,-1563.72,0,0
74300.225,65.9103,-1558.09,0,0
74560.55,65.1562,-1552.32,0,0
74820.875,64.471,-1546.56,0,0
75081.2,63.7302,-1540.94,0,0
75341.525,63.0048,-1535.03,0,0
75601.85,62.2877,-1529.19,0,0
75862.175,61.5825,-1523.34,0,0
76122.5,60.8999,-1517.42,0,0
76382.825,60.2885,-1511.61,0,0
76643.15,59.8061,-1505.66,0,0
76903.475,59.3225,-1499.84,0,0
77163.8,58.8936,-1494,0,0
77424.125,58.447,-1488.31,0,0
77684.45,57.9986,-1482.7,0,0
77944.775,57.4726,-1476.99,0,0
78205.1,57.0497,-1471.28,0,0
78465.425,56.6437,-1465.56,0,0
78725.75,56.2406,-1459.89,0,0
78986.075,55.8715,-1454.26,0,0
79246.4,55.5484,-1448.66,0,0
79506.725,55.1903,-1442.97,0,0
79767.05,54.8841,-1437.43,0,0
80027.375,54.6096,-1431.85,0,0
80287.7,54.3954,-1426.37,0,0
80548.025,54.191,-1420.88,0,0
80808.35,53.9548,-1415.43,0,0
81068.675,53.8445,-1410.05,0,0
81329.0,53.6039,-1404.67,0,0
81589.325,53.4026,-1399.21,0,0
81849.65,53.3153,-1393.93,0,0
82109.975,53.1521,-1388.6,0,0
82370.3,53.1387,-1383.35,0,0
82630.625,52.9869,-1378.08,0,0
82890.95,52.8845,-1372.87,0,0
83151.275,52.865,-1367.77,0,0
83411.6,52.7941,-1362.57,0,0
83671.925,52.7261,-1357.44,0,0
83932.25,52.6951,-1352.36,0,0
84192.575,52.6818,-1347.28,0,0
84452.9,52.6751,-1342.28,0,0
84713.225,52.6339,-1337.28,0,0
84973.55,52.6337,-1332.25,0,0
85233.875,52.6219,-1327.34,0,0
85494.2,52.6596,-1322.38,0,0
85754.525,52.6695,-1317.43,0,0
86014.85,52.7745,-1312.6,0,0
86275.175,52.8585,-1307.82,0,0
86535.5,52.844,-1302.99,0,0
86795.825,52.9097,-1298.13,0,0
87056.15,52.8747,-1293.39,0,0
87316.475,52.9655,-1288.51,0,0
87576.8,53.1121,-1283.72,0,0
87837.125,53.3526,-1278.99,0,0
88097.45,53.4772,-1274.23,0,0
88357.775,53.6456,-1269.6,0,0
88618.1,53.8147,-1264.92,0,0
88878.425,54.0023,-1260.05,0,0
89138.75,54.3285,-1255.29,0,0
89399.075,54.8546,-1250.65,0,0
89659.4,55.3239,-1246.04,0,0
89919.725,55.8848,-1241.6,0,0
90180,56.3959,-1237.26,0,0
90440.4,56.8611,-1233.03,0,0
90700.7,57.2144,-1228.8,0,0
90961,57.6608,-1224.51,0,0
91221.3,58.1302,-1220.21,0,0
91481.7,58.7785,-1216.07,0,0
91742,59.3601,-1212.13,0,0
92002.3,59.9266,-1208.09,0,0
92262.6,60.5916,-1204.12,0,0
92523,61.319,-1200.32,0,0
92783.3,61.9142,-1196.74,0,0
93043.6,62.5578,-1193.1,0,0
93303.9,63.2016,-1189.59,0,0
93564.3,63.9652,-1186.47,0,0
93824.6,64.4289,-1183.54,0,0
94084.9,64.7057,-1180.81,0,0
94345.2,64.4841,-1178.05,0,0
94605.6,64.3493,-1175.18,0,0
94865.9,63.9919,-1172.8,0,0
95126.2,62.487,-1170.38,0,0
95386.5,60.7174,-1166.74,0,0
95646.9,59.4113,-1162.37,0,0
95907.2,58.7222,-1157.99,0,0
96167.5,58.1673,-1153.74,0,0
96427.8,57.8162,-1149.31,0,0
96688.2,57.7305,-1145.04,0,0
96948.5,57.7896,-1141.03,0,0
97208.8,57.6479,-1137.05,0,0
97469.1,57.635,-1133.1,0,0
97729.5,57.6098,-1129.29,0,0
97989.8,57.556,-1125.5,0,0
98250.1,57.4566,-1121.7,0,0
98510.4,57.381,-1117.9,0,0
98770.8,57.4277,-1114.16,0,0
99031.1,57.2982,-1110.51,0,0
99291.4,57.1574,-1106.91,0,0
99551.7,56.8494,-1103.13,0,0
99812.1,56.6343,-1099.29,0,0
100072,56.4816,-1095.44,0,0
100333,56.3384,-1091.61,0,0
100593,56.0965,-1087.71,0,0
100853,55.9364,-1083.72,0,0
101114,55.9229,-1079.63,0,0
101374,55.9175,-1075.6,0,0
101634,56.0445,-1071.49,0,0
101895,56.3149,-1067.37,0,0
102155,56.6626,-1063.33,0,0
102415,57.0963,-1059.17,0,0
102676,57.9612,-1055.09,0,0
102936,59.0125,-1051.49,0,0
103196,59.8014,-1048.18,0,0
103457,60.3595,-1044.9,0,0
103717,60.9232,-1041.52,0,0
103977,61.7246,-1038.03,0,0
104238,62.7983,-1034.91,0,0
104498,63.7913,-1032.28,0,0
104758,64.2866,-1030.04,0,0
105019,64.3362,-1027.69,0,0
105279,64.1906,-1025.02,0,0
105539,64.153,-1022.27,0,0
105800,64.1036,-1019.62,0,0
106060,63.7447,-1017.09,0,0
106320.175,63.171,-1014.26,0,0
106580.5,62.6473,-1011.26,0,0
106840.825,62.23,-1008.25,0,0
107101.15,61.5586,-1005.13,0,0
107361.475,60.8817,-1001.85,0,0
107621.8,60.395,-998.351,0,0
107882.125,59.9971,-994.842,0,0
108142.45,59.5872,-991.306,0,0
108402.775,59.3046,-987.759,0,0
108663.1,58.9559,-984.191,0,0
108923.425,58.6964,-980.477,0,0
109183.75,58.5002,-976.655,0,0
109444.075,58.5026,-972.749,0,0
109704.4,58.6746,-969.078,0,0
109964.725,58.8151,-965.387,0,0
110225.05,58.8563,-961.731,0,0
110485.375,59.0744,-957.855,0,0
110745.7,59.5447,-954.092,0,0
111006.025,60.3196,-950.398,0,0
111266.35,60.901,-947.337,0,0
111526.675,61.4131,-943.939,0,0
111787.0,61.6787,-940.632,0,0
112047.325,62.2417,-937.312,0,0
112307.65,62.6905,-934.2,0,0
112567.975,63.2236,-931.012,0,0
112828.3,63.4685,-927.923,0,0
113088.625,63.7004,-924.609,0,0
113348.95,64.1269,-921.414,0,0
113609.275,64.5125,-918.266,0,0
113869.6,64.832,-915.121,0,0
114129.925,65.2334,-911.81,0,0
114390.25,65.579,-908.603,0,0
114650.575,65.8517,-905.22,0,0
114910.9,66.3278,-901.823,0,0
115171.225,66.9265,-898.451,0,0
115431.55,67.5915,-895.102,0,0
115691.875,68.2442,-891.868,0,0
115952.2,68.9461,-888.619,0,0
116212.525,69.6285,-885.348,0,0
116472.85,70.4446,-882.016,0,0
116733.175,71.5132,-878.749,0,0
116993.5,72.6418,-875.734,0,0
117253.825,73.5235,-872.864,0,0
117514.15,74.2835,-869.716,0,0
117774.475,75.4857,-866.267,0,0
118034.8,77.2321,-863.299,0,0
118295.125,78.893,-860.753,0,0
118555.45,80.4792,-858.496,0,0
118815.775,81.7749,-856.514,0,0
119076.1,82.6875,-854.342,0,0
119336.425,83.9038,-851.829,0,0
119596.75,85.724,-849.603,0,0
119857.075,87.5567,-848.389,0,0
120117.4,88.6531,-847.539,0,0
120377.725,89.0246,-846.715,0,0
120638.05,89.0838,-845.547,0,0
120898.375,89.0206,-844.269,0,0
121158.7,88.7858,-842.832,0,0
121419.025,88.2854,-841.279,0,0
121679.35,87.5415,-839.352,0,0
121939.675,86.8818,-836.897,0,0
122200.0,86.6513,-834.255,0,0
122460,86.5896,-831.623,0,0
122721,86.7225,-829.04,0,0
122981,86.8745,-826.521,0,0
123241,87.2261,-824.005,0,0
123502,87.6794,-821.779,0,0
123762,87.8997,-819.679,0,0
124022,88.0189,-817.452,0,0
124283,88.2662,-815.195,0,0
124543,88.5293,-812.988,0,0
124803,88.7657,-810.865,0,0
125064,89.0235,-808.823,0,0
125324,89.1652,-806.816,0,0
125584,89.2834,-804.759,0,0
125845,89.4015,-802.766,0,0
126105,89.4729,-800.915,0,0
126365,89.3353,-799.061,0,0
126626,89.1014,-797.142,0,0
126886,88.8156,-795.186,0,0
127146,88.4021,-793.096,0,0
127406,88.0782,-790.96,0,0
127667,87.7465,-788.743,0,0
127927,87.3083,-786.393,0,0
128187,86.996,-784.088,0,0
128448,86.5041,-781.879,0,0
128708,85.9433,-779.36,0,0
128968,85.4708,-776.684,0,0
129229,85.1479,-773.869,0,0
129489,84.958,-771.199,0,0
129749,84.7996,-768.384,0,0
130010,84.7461,-765.536,0,0
130270,84.8707,-762.677,0,0
130530,85.2014,-759.928,0,0
130791,85.6795,-757.408,0,0
131051,86.0784,-755.229,0,0
131311,86.1228,-753.088,0,0
131572,86.1206,-750.854,0,0
131832,86.0906,-748.659,0,0
132092,85.9486,-746.448,0,0
132353,85.6661,-744.113,0,0
132613,85.4789,-741.586,0,0
132873,85.4626,-739.149,0,0
133134,85.3764,-736.811,0,0
133394,85.2169,-734.48,0,0
133654,85.0053,-732.088,0,0
133915,84.7568,-729.717,0,0
134175,84.434,-727.221,0,0
134435,84.1805,-724.7,0,0
134696,83.9312,-722.23,0,0
134956,83.5296,-719.684,0,0
135216,83.0991,-716.899,0,0
135477,82.9251,-714.079,0,0
135737,82.7549,-711.381,0,0
135997,82.4692,-708.705,0,0
136258,82.1836,-705.894,0,0
136518,81.9299,-702.999,0,0
136778,81.686,-699.918,0,0
137039,81.7263,-696.796,0,0
137299,81.8408,-693.812,0,0
137559,82.0922,-690.812,0,0
137819,82.2949,-688.006,0,0
138080,82.445,-685.154,0,0
138340.125,82.7652,-682.248,0,0
138600.45,83.2046,-679.636,0,0
138860.775,83.4242,-677.278,0,0
139121.1,83.3199,-674.826,0,0
139381.425,83.1455,-672.176,0,0
139641.75,82.9877,-669.462,0,0
139902.075,82.7662,-666.663,0,0
140162.4,82.6207,-663.671,0,0
140422.725,82.6329,-660.62,0,0
140683.05,82.7561,-657.702,0,0
140943.375,82.8143,-654.912,0,0
141203.7,82.7601,-652.095,0,0
141464.025,82.5981,-649.197,0,0
141724.35,82.4201,-646.206,0,0
141984.675,82.247,-643.067,0,0
142245.0,82.1753,-639.83,0,0
142505.325,82.1708,-636.615,0,0
142765.65,82.1314,-633.379,0,0
143025.975,82.1455,-630.096,0,0
143286.3,82.1659,-626.68,0,0
143546.625,82.2111,-623.218,0,0
143806.95,82.3515,-619.726,0,0
144067.275,82.5903,-616.173,0,0
144327.6,82.8615,-612.641,0,0
144587.925,83.1316,-609.101,0,0
144848.25,83.4876,-605.49,0,0
145108.575,83.8992,-601.887,0,0
145368.9,84.3197,-598.275,0,0
145629.225,84.742,-594.635,0,0
145889.55,85.1974,-590.913,0,0
146149.875,85.7093,-587.094,0,0
146410.2,86.3303,-583.235,0,0
146670.525,87.0317,-579.356,0,0
146930.85,87.8086,-575.467,0,0
147191.175,88.6467,-571.527,0,0
147451.5,89.5508,-567.58,0,0
147711.825,90.5307,-563.542,0,0
147972.15,91.6881,-559.483,0,0
148232.475,92.9738,-555.483,0,0
148492.8,94.2695,-551.58,0,0
148753.125,95.5203,-547.58,0,0
149013.45,96.8913,-543.481,0,0
149273.775,98.4389,-539.359,0,0
149534.1,100.053,-535.161,0,0
149794.425,101.961,-530.84,0,0
150054.75,104.214,-526.687,0,0
150315.075,106.606,-522.731,0,0
150575.4,109.107,-518.965,0,0
150835.725,111.684,-515.351,0,0
151096.05,114.303,-511.932,0,0
151356.375,116.935,-508.635,0,0
151616.7,119.548,-505.519,0,0
151877.025,122.138,-502.483,0,0
152137.35,124.734,-499.517,0,0
152397.675,127.383,-496.709,0,0
152658.0,129.943,-494.097,0,0
152918.325,132.451,-491.55,0,0
153178.65,134.87,-489.227,0,0
153438.975,136.919,-487.036,0,0
153699.3,138.744,-484.508,0,0
153959.625,140.742,-481.86,0,0
154219.95,142.775,-479.319,0,0
154480,144.711,-476.945,0,0
154741,146.19,-474.523,0,0
155001,147.302,-471.754,0,0
155261,148.553,-468.158,0,0
155522,150.603,-464.154,0,0
155782,153.3,-460.804,0,0
156042,155.788,-458.002,0,0
156303,157.67,-455.077,0,0
156563,159.406,-451.531,0,0
156823,161.813,-447.617,0,0
157084,164.894,-443.779,0,0
157344,168.302,-440.308,0,0
157604,171.889,-437.625,0,0
157864,175.033,-435.404,0,0
158125,177.758,-433.189,0,0
158385,180.615,-431.134,0,0
158645,182.624,-429.451,0,0
158906,183.754,-427.325,0,0
159166,184.53,-423.97,0,0
159426,186.058,-420.001,0,0
159687,187.576,-416.061,0,0
159947,188.778,-411.148,0,0
160207,190.964,-405.403,0,0
160468,194.06,-399.588,0,0
160728,197.836,-393.548,0,0
160988,202.962,-387.762,0,0
161249,208.321,-383.367,0,0
161509,212.882,-378.985,0,0
161769,217.529,-373.69,0,0
162030,223.459,-367.826,0,0
162290,230.531,-362.89,0,0
162550,237.837,-358.606,0,0
162811,245.2,-354.85,0,0
163071,252.735,-351.144,0,0
163331,260.702,-347.807,0,0
163592,268.94,-344.591,0,0
163852,277.795,-341.647,0,0
164112,287.412,-339.387,0,0
164373,297.05,-338.282,0,0
164633,306.393,-337.324,0,0
164893,316.418,-336.167,0,0
165154,328.053,-335.918,0,0
165414,340.002,-338.31,0,0
165674,350.535,-342.183,0,0
165935,360.047,-346.212,0,0
166195,369.855,-350.269,0,0
166455,379.849,-356.157,0,0
166716,388.108,-363.36,0,0
166976,395.283,-370.304,0,0
167236,401.866,-377.884,0,0
167497,407.339,-385.449,0,0
167757,412.371,-392.922,0,0
168017,417.253,-400.52,0,0
168277,421.404,-409.101,0,0
168538,423.936,-418.126,0,0
168798,425.112,-426.277,0,0
169058,425.961,-433.551,0,0
169319,427.247,-440.565,0,0
169579,428.304,-449.02,0,0
169839,426.883,-458.312,0,0
170100,423.018,-466.034,0,0
170360.075,418.544,-471.272,0,0
170620.4,414.571,-474.946,0,0
170880.725,411.02,-477.997,0,0
171141.05,407.449,-480.309,0,0
171401.375,404.064,-481.456,0,0
171661.7,401.685,-481.598,0,0
171922.025,400.376,-481.775,0,0
172182.35,399.351,-481.98,0,0
172442.675,398.877,-482.001,0,0
172703.0,398.707,-482.11,0,0
172963.325,399.104,-481.528,0,0
173223.65,401.251,-481.224,0,0
173483.975,403.958,-482.893,0,0
173744.3,405.441,-485.694,0,0
174004.625,406.241,-487.918,0,0
174264.95,407.721,-489.618,0,0
174525.275,410.094,-492.64,0,0
174785.6,411.446,-497.106,0,0
175045.925,411.55,-501.544,0,0
175306.25,411.074,-505.547,0,0
175566.575,410.678,-509.617,0,0
175826.9,409.567,-514.173,0,0
176087.225,407.283,-518.406,0,0
176347.55,404.567,-521.857,0,0
176607.875,402.018,-524.617,0,0
176868.2,399.69,-527.743,0,0
177128.525,396.576,-531.285,0,0
177388.85,392.287,-534.066,0,0
177649.175,387.963,-535.849,0,0
177909.5,383.681,-537.506,0,0
178169.825,378.345,-538.654,0,0
178430.15,372.6,-538.036,0,0
178690.475,367.849,-535.933,0,0
178950.8,364.198,-533.328,0,0
179211.125,361.531,-530.508,0,0
179471.45,359.466,-528.097,0,0
179731.775,357.411,-525.601,0,0
179992.1,355.943,-522.423,0,0
180252.425,355.729,-519.327,0,0
180512.75,356.303,-516.959,0,0
180773.075,357.172,-515.442,0,0
181033.4,357.737,-514.619,0,0
181293.725,358.043,-513.74,0,0
181554.05,358.82,-512.946,0,0
181814.375,359.991,-512.933,0,0
182074.7,360.955,-514.41,0,0
182335.025,360.276,-516.596,0,0
182595.35,358.135,-518.332,0,0
182855.675,355.463,-518.842,0,0
183116.0,352.916,-518.722,0,0
183376.325,350.498,-518.165,0,0
183636.65,348.065,-517.665,0,0
183896.975,345.39,-516.845,0,0
184157.3,342.578,-515.533,0,0
184417.625,339.849,-513.783,0,0
184677.95,337.381,-511.633,0,0
184938.275,335.074,-509.443,0,0
185198.6,332.593,-506.965,0,0
185458.925,330.203,-504.071,0,0
185719.25,327.97,-500.786,0,0
185979.575,325.885,-496.983,0,0
186239.9,324.162,-492.683,0,0
186500,323.022,-487.811,0,0
186761,322.742,-482.696,0,0
187021,323.409,-477.764,0,0
187281,324.746,-473.52,0,0
187542,326.05,-469.687,0,0
187802,327.471,-466.038,0,0
188062,329.213,-462.561,0,0
188322,331.079,-459.327,0,0
188583,333.274,-456.685,0,0
188843,334.933,-454.605,0,0
189103,335.956,-452.35,0,0
189364,336.879,-449.672,0,0
189624,338.035,-446.492,0,0
189884,339.612,-443.184,0,0
190145,341.807,-440.239,0,0
190405,343.927,-437.716,0,0
190665,345.786,-435.423,0,0
190926,347.586,-433.052,0,0
191186,349.327,-430.397,0,0
191446,351.067,-427.842,0,0
191707,352.894,-425.231,0,0
191967,354.771,-422.439,0,0
192227,356.878,-419.381,0,0
192488,359.038,-416.569,0,0
192748,361.143,-413.629,0,0
193008,363.213,-410.312,0,0
193269,365.605,-406.511,0,0
193529,368.696,-402.52,0,0
193789,372.316,-398.628,0,0
194050,376.382,-394.697,0,0
194310,381.191,-390.816,0,0
194570,386.866,-387.245,0,0
194831,393.287,-384.288,0,0
195091,400.273,-382.499,0,0
195351,407.214,-381.817,0,0
195612,413.505,-382.186,0,0
195872,419.153,-382.507,0,0
196132,424.921,-382.989,0,0
196393,430.667,-383.966,0,0
196653,436.691,-385.528,0,0
196913,442.113,-388.361,0,0
197174,446.266,-391.839,0,0
197434,448.896,-395.243,0,0
197694,450.758,-397.172,0,0
197955,453.342,-398.33,0,0
198215,456.405,-399.994,0,0
198475,458.927,-402.254,0,0
198735,460.4,-404.567,0,0
198996,461.081,-405.917,0,0
199256,462.006,-406.013,0,0
199516,463.957,-405.684,0,0
199777,466.651,-405.955,0,0
200037,469.107,-407.164,0,0
200297,470.339,-408.661,0,0
200558,470.701,-409.186,0,0
200818,471.029,-408.509,0,0
201078,472.052,-406.944,0,0
201339,473.847,-405.151,0,0
201599,476.148,-403.259,0,0
201859,478.735,-401.375,0,0
202120,481.614,-399.235,0,0
202380.025,485.306,-396.669,0,0
202640.35,490.002,-394.302,0,0
202900.675,495.415,-392.582,0,0
203161.0,501.133,-391.425,0,0
203421.325,507.217,-390.762,0,0
203681.65,513.657,-390.749,0,0
203941.975,520.104,-391.569,0,0
204202.3,526.296,-393.019,0,0
204462.625,532.24,-394.816,0,0
204722.95,538.06,-397.01,0,0
204983.275,543.794,-399.507,0,0
205243.6,549.413,-402.791,0,0
205503.925,554.385,-406.696,0,0
205764.25,558.388,-410.917,0,0
206024.575,561.397,-415.075,0,0
206284.9,563.303,-418.654,0,0
206545.225,564.656,-420.863,0,0
206805.55,566.588,-421.981,0,0
207065.875,569.168,-422.386,0,0
207326.2,572.512,-422.587,0,0
207586.525,576.639,-422.872,0,0
207846.85,581.434,-423.452,0,0
208107.175,586.462,-424.424,0,0
208367.5,591.816,-425.371,0,0
208627.825,597.757,-426.743,0,0
208888.15,603.989,-428.624,0,0
209148.475,610.475,-431.052,0,0
209408.8,617.114,-433.92,0,0
209669.125,623.918,-437.548,0,0
209929.45,630.473,-441.903,0,0
210189.775,636.822,-446.688,0,0
210450.1,642.946,-451.82,0,0
210710.425,648.694,-457.304,0,0
210970.75,654.168,-462.997,0,0
211231.075,659.432,-468.968,0,0
211491.4,664.566,-475.051,0,0
211751.725,669.598,-481.442,0,0
212012.05,674.35,-488.157,0,0
212272.375,678.774,-495.045,0,0
212532.7,683.028,-502.212,0,0
212793.025,686.972,-509.32,0,0
213053.35,690.98,-516.598,0,0
213313.675,694.87,-524.252,0,0
213574.0,698.586,-532.305,0,0
213834.325,701.826,-540.75,0,0
214094.65,704.504,-549.443,0,0
214354.975,706.652,-557.953,0,0
214615.3,708.697,-566.155,0,0
214875.625,710.943,-574.625,0,0
215135.95,713.116,-583.655,0,0
215396.275,714.813,-593.168,0,0
215656.6,715.734,-602.779,0,0
215916.925,716.363,-612.418,0,0
216177.25,716.787,-622.137,0,0
216437.575,716.943,-632.361,0,0
216697.9,716.051,-642.877,0,0
216958.225,714.189,-653.28,0,0
217218.55,711.374,-663.192,0,0
217478.875,708.213,-672.258,0,0
217739.2,705.138,-681.035,0,0
217999.525,701.922,-689.487,0,0
218259.85,698.5,-697.995,0,0
218520,695.01,-706.428,0,0
218780,690.889,-714.693,0,0
219041,686.06,-722.518,0,0
219301,681.088,-729.372,0,0
219561,676.496,-735.569,0,0
219822,672.599,-741.599,0,0
220082,669.452,-747.752,0,0
220342,666.475,-754.837,0,0
220603,663.023,-762.713,0,0
220863,658.492,-771.236,0,0
221123,653.053,-779.528,0,0
221384,646.639,-787.178,0,0
221644,640.136,-794.342,0,0
221904,633.424,-801.112,0,0
222165,626.231,-807.964,0,0
222425,618.306,-814.392,0,0
222685,609.989,-819.981,0,0
222946,601.19,-825.392,0,0
223206,591.818,-829.889,0,0
223466,582.057,-833.334,0,0
223727,572.339,-835.333,0,0
223987,563.195,-836.23,0,0
224247,554.92,-836.28,0,0
224508,547.498,-835.968,0,0
224768,540.675,-835.242,0,0
225028,534.563,-834.294,0,0
225289,529.496,-833.103,0,0
225549,525.197,-832.309,0,0
225809,521.561,-831.789,0,0
226070,518.504,-831.844,0,0
226330,515.806,-832.74,0,0
226590,512.845,-834.363,0,0
226851,509.697,-836.366,0,0
227111,506.341,-838.657,0,0
227371,502.512,-841.257,0,0
227632,498.31,-844.076,0,0
227892,493.652,-846.761,0,0
228152,488.675,-849.27,0,0
228413,483.566,-851.63,0,0
228673,478.122,-853.994,0,0
228933,472.497,-856.087,0,0
229193,466.61,-857.908,0,0
229454,460.642,-859.33,0,0
229714,454.682,-860.542,0,0
229974,448.723,-861.379,0,0
230235,442.884,-862.098,0,0
230495,437.006,-862.777,0,0
230755,431.085,-863.172,0,0
231016,425.006,-863.268,0,0
231276,419.238,-863.043,0,0
231536,413.714,-862.718,0,0
231797,408.24,-862.254,0,0
232057,402.866,-861.781,0,0
232317,397.623,-861.143,0,0
232578,392.474,-860.375,0,0
232838,387.457,-859.681,0,0
233098,382.44,-858.89,0,0
233359,377.53,-857.992,0,0
233619,372.713,-856.964,0,0
233879,368.143,-856.001,0,0
234140,363.624,-855.185,0,0
234400,358.983,-854.368,0,0
234660.3,354.24,-853.435,0,0
234920.625,349.582,-852.311,0,0
235180.95,345.228,-851.435,0,0
235441.275,340.54,-850.608,0,0
235701.6,335.76,-849.723,0,0
235961.925,330.774,-848.755,0,0
236222.25,325.661,-847.588,0,0
236482.575,320.474,-846.069,0,0
236742.9,315.327,-844.215,0,0
237003.225,310.461,-842.109,0,0
237263.55,305.796,-840.057,0,0
237523.875,301.125,-838.068,0,0
237784.2,296.316,-835.9,0,0
238044.525,291.501,-833.538,0,0
238304.85,286.674,-830.87,0,0
238565.175,281.94,-827.979,0,0
238825.5,277.325,-824.699,0,0
239085.825,272.99,-821.262,0,0
239346.15,268.944,-817.595,0,0
239606.475,265.207,-813.725,0,0
239866.8,261.852,-809.814,0,0
240127.125,258.808,-805.955,0,0
240387.45,256.007,-802.239,0,0
240647.775,253.275,-798.677,0,0
240908.1,250.715,-795.047,0,0
241168.425,248.224,-791.408,0,0
241428.75,245.921,-787.752,0,0
241689.075,243.703,-784.147,0,0
241949.4,241.559,-780.485,0,0
242209.725,239.798,-776.654,0,0
242470.05,238.314,-772.955,0,0
242730.375,237.088,-769.472,0,0
242990.7,235.867,-766.152,0,0
243251.025,234.685,-762.859,0,0
243511.35,233.739,-759.633,0,0
243771.675,232.967,-756.55,0,0
244032.0,232.328,-753.643,0,0
244292.325,231.654,-751.12,0,0
244552.65,230.915,-748.616,0,0
244812.975,230.217,-746.312,0,0
245073.3,229.448,-743.963,0,0
245333.625,228.736,-741.752,0,0
245593.95,227.906,-739.641,0,0
245854.275,227.052,-737.54,0,0
246114.6,226.137,-735.452,0,0
246374.925,225.18,-733.313,0,0
246635.25,224.272,-731.19,0,0
246895.575,223.371,-729.027,0,0
247155.9,222.434,-726.86,0,0
247416.225,221.6,-724.639,0,0
247676.55,220.755,-722.41,0,0
247936.875,220.019,-720.155,0,0
248197.2,219.311,-717.958,0,0
248457.525,218.753,-715.605,0,0
248717.85,218.422,-713.289,0,0
248978.175,218.288,-711.17,0,0
249238.5,218.23,-709.241,0,0
249498.825,218.112,-707.598,0,0
249759.15,217.993,-706.11,0,0
250019.475,217.778,-704.898,0,0
250279.8,217.458,-703.755,0,0
250540,216.917,-702.652,0,0
250800,216.159,-701.689,0,0
251061,215.242,-700.694,0,0
251321,214.112,-699.594,0,0
251581,212.837,-698.399,0,0
251842,211.435,-697.086,0,0
252102,209.913,-695.586,0,0
252362,208.292,-693.952,0,0
252623,206.599,-692.047,0,0
252883,204.942,-689.858,0,0
253143,203.358,-687.525,0,0
253404,201.829,-684.9,0,0
253664,200.531,-682.014,0,0
253924,199.465,-678.933,0,0
254185,198.631,-675.835,0,0
254445,198.068,-672.657,0,0
254705,197.742,-669.51,0,0
254966,197.445,-666.321,0,0
255226,197.402,-663.068,0,0
255486,197.612,-659.788,0,0
255747,198.042,-656.407,0,0
256007,198.832,-653.067,0,0
256267,199.95,-649.871,0,0
256528,201.428,-646.864,0,0
256788,203.063,-644.179,0,0
257048,204.823,-641.724,0,0
257309,206.741,-639.536,0,0
257569,208.692,-637.654,0,0
257829,210.621,-636.053,0,0
258090,212.418,-634.611,0,0
258350,214.093,-633.31,0,0
258610,215.679,-631.978,0,0
258871,217.289,-630.54,0,0
259131,219.042,-629.015,0,0
259391,221.167,-627.481,0,0
259651,223.544,-626.205,0,0
259912,226.218,-625.279,0,0
260172,229.024,-624.765,0,0
260432,231.794,-624.627,0,0
260693,234.511,-624.748,0,0
260953,237.288,-625.166,0,0
261213,240.094,-625.991,0,0
261474,242.96,-627.343,0,0
261734,245.585,-629.34,0,0
261994,247.701,-631.819,0,0
262255,249.292,-634.563,0,0
262515,250.36,-637.496,0,0
262775,250.901,-640.513,0,0
263036,250.932,-643.507,0,0
263296,250.541,-646.376,0,0
263556,249.787,-649.106,0,0
263817,248.726,-651.723,0,0
264077,247.389,-654.261,0,0
264337,245.656,-656.593,0,0
264598,243.629,-658.722,0,0
264858,241.317,-660.638,0,0
265118,238.842,-662.223,0,0
265379,236.109,-663.511,0,0
265639,233.246,-664.48,0,0
265899,230.262,-665.096,0,0
266160,227.204,-665.366,0,0
266420,224.239,-665.323,0,0
266680.25,221.248,-664.948,0,0
266940.575,218.295,-664.334,0,0
267200.9,215.424,-663.319,0,0
267461.225,212.792,-661.996,0,0
267721.55,210.424,-660.462,0,0
267981.875,208.281,-658.864,0,0
268242.2,206.298,-657.125,0,0
268502.525,204.503,-655.294,0,0
268762.85,202.903,-653.387,0,0
269023.175,201.533,-651.433,0,0
269283.5,200.326,-649.419,0,0
269543.825,199.337,-647.449,0,0
269804.15,198.488,-645.569,0,0
270064.475,197.717,-643.75,0,0
270324.8,197.052,-641.949,0,0
270585.125,196.414,-640.098,0,0
270845.45,195.881,-638.182,0,0
271105.775,195.588,-636.269,0,0
271366.1,195.454,-634.451,0,0
271626.425,195.448,-632.67,0,0
271886.75,195.546,-631.024,0,0
272147.075,195.768,-629.457,0,0
272407.4,196.072,-628.112,0,0
272667.725,196.363,-626.931,0,0
272928.05,196.594,-625.875,0,0
273188.375,196.639,-624.863,0,0
273448.7,196.542,-623.673,0,0
273709.025,196.528,-622.465,0,0
273969.35,196.59,-621.147,0,0
274229.675,196.702,-619.766,0,0
274490.0,197.008,-618.339,0,0
274750.325,197.435,-616.897,0,0
275010.65,198.059,-615.484,0,0
275270.975,198.855,-614.195,0,0
275531.3,199.817,-612.861,0,0
275791.625,200.93,-611.724,0,0
276051.95,202.226,-610.701,0,0
276312.275,203.699,-609.903,0,0
276572.6,205.305,-609.356,0,0
276832.925,206.959,-609.105,0,0
277093.25,208.653,-609.156,0,0
277353.575,210.297,-609.546,0,0
277613.9,211.81,-610.219,0,0
277874.225,213.145,-611.166,0,0
278134.55,214.319,-612.276,0,0
278394.875,215.307,-613.624,0,0
278655.2,216.065,-615.186,0,0
278915.525,216.485,-616.923,0,0
279175.85,216.549,-618.712,0,0
279436.175,216.29,-620.466,0,0
279696.5,215.863,-622.131,0,0
279956.825,215.154,-623.733,0,0
280217.15,214.177,-625.269,0,0
280477.475,213.073,-626.655,0,0
280737.8,211.745,-627.876,0,0
280998.125,210.332,-628.907,0,0
281258.45,208.83,-629.786,0,0
281518.775,207.334,-630.56,0,0
281779.1,205.79,-631.258,0,0
282039.425,204.14,-631.9,0,0
282299.75,202.386,-632.414,0,0
282560,200.526,-632.761,0,0
282820,198.598,-632.975,0,0
283081,196.662,-632.956,0,0
283341,194.766,-632.761,0,0
283601,192.856,-632.458,0,0
283862,191.05,-632.015,0,0
284122,189.315,-631.475,0,0
284382,187.62,-630.841,0,0
284643,185.976,-630.151,0,0
284903,184.345,-629.388,0,0
285163,182.721,-628.523,0,0
285424,181.093,-627.57,0,0
285684,179.552,-626.457,0,0
285944,178.106,-625.218,0,0
286205,176.737,-623.897,0,0
286465,175.464,-622.474,0,0
286725,174.332,-620.945,0,0
286986,173.359,-619.321,0,0
287246,172.57,-617.645,0,0
287506,172.006,-615.947,0,0
287767,171.639,-614.213,0,0
288027,171.479,-612.613,0,0
288287,171.561,-611.134,0,0
288548,171.781,-609.882,0,0
288808,172.045,-608.875,0,0
289068,172.243,-608.056,0,0
289329,172.41,-607.362,0,0
289589,172.498,-606.783,0,0
289849,172.512,-606.268,0,0
290109,172.398,-605.762,0,0
290370,172.288,-605.224,0,0
290630,172.197,-604.738,0,0
290890,172.048,-604.31,0,0
291151,171.889,-603.928,0,0
291411,171.613,-603.551,0,0
291671,171.238,-603.194,0,0
291932,170.76,-602.727,0,0
292192,170.262,-602.134,0,0
292452,169.801,-601.419,0,0
292713,169.432,-600.631,0,0
292973,169.149,-599.794,0,0
293233,168.957,-598.956,0,0
293494,168.844,-598.032,0,0
293754,168.864,-597.094,0,0
294014,169.068,-596.217,0,0
294275,169.386,-595.387,0,0
294535,169.86,-594.709,0,0
294795,170.425,-594.134,0,0
295056,171.097,-593.721,0,0
295316,171.836,-593.526,0,0
295576,172.541,-593.588,0,0
295837,173.192,-593.832,0,0
296097,173.731,-594.286,0,0
296357,174.1,-594.861,0,0
296618,174.32,-595.56,0,0
296878,174.442,-596.298,0,0
297138,174.396,-597.122,0,0
297399,174.184,-598.006,0,0
297659,173.833,-598.907,0,0
297919,173.292,-599.827,0,0
298180,172.575,-600.706,0,0
298440,171.699,-601.526,0,0
298700.2,170.691,-602.221,0,0
298960.525,169.606,-602.822,0,0
299220.85,168.46,-603.349,0,0
299481.175,167.245,-603.784,0,0
299741.5,165.99,-604.127,0,0
300001.825,164.706,-604.392,0,0
300262.15,163.368,-604.599,0,0
300522.475,162.019,-604.74,0,0
300782.8,160.611,-604.801,0,0
301043.125,159.201,-604.776,0,0
301303.45,157.765,-604.669,0,0
301563.775,156.311,-604.479,0,0
301824.1,154.859,-604.221,0,0
302084.425,153.408,-603.874,0,0
302344.75,151.992,-603.447,0,0
302605.075,150.569,-602.935,0,0
302865.4,149.202,-602.349,0,0
303125.725,147.889,-601.7,0,0
303386.05,146.62,-601.04,0,0
303646.375,145.379,-600.336,0,0
303906.7,144.144,-599.599,0,0
304167.025,142.96,-598.825,0,0
304427.35,141.808,-597.988,0,0
304687.675,140.695,-597.12,0,0
304948.0,139.615,-596.239,0,0
305208.325,138.586,-595.34,0,0
305468.65,137.595,-594.395,0,0
305728.975,136.62,-593.433,0,0
305989.3,135.714,-592.422,0,0
306249.625,134.848,-591.36,0,0
306509.95,134.058,-590.301,0,0
306770.275,133.336,-589.228,0,0
307030.6,132.719,-588.157,0,0
307290.925,132.152,-587.106,0,0
307551.25,131.66,-586.108,0,0
307811.575,131.247,-585.169,0,0
308071.9,130.874,-584.283,0,0
308332.225,130.548,-583.477,0,0
308592.55,130.207,-582.78,0,0
308852.875,129.837,-582.135,0,0
309113.2,129.453,-581.569,0,0
309373.525,128.993,-581.062,0,0
309633.85,128.491,-580.561,0,0
309894.175,127.885,-580.089,0,0
310154.5,127.256,-579.627,0,0
310414.825,126.566,-579.114,0,0
310675.15,125.827,-578.571,0,0
310935.475,125.062,-578.019,0,0
311195.8,124.272,-577.409,0,0
311456.125,123.468,-576.795,0,0
311716.45,122.633,-576.131,0,0
311976.775,121.759,-575.465,0,0
312237.1,120.835,-574.745,0,0
312497.425,119.865,-573.929,0,0
312757.75,118.894,-573.027,0,0
313018.075,117.958,-571.999,0,0
313278.4,117.043,-570.899,0,0
313538.725,116.189,-569.719,0,0
313799.05,115.414,-568.456,0,0
314059.375,114.707,-567.131,0,0
314319.7,114.103,-565.756,0,0
314580,113.602,-564.287,0,0
314840,113.252,-562.883,0,0
315101,112.981,-561.476,0,0
315361,112.812,-560.133,0,0
315621,112.798,-558.766,0,0
315882,112.854,-557.52,0,0
316142,113.001,-556.26,0,0
316402,113.158,-555.167,0,0
316663,113.419,-554.18,0,0
316923,113.653,-553.328,0,0
317183,114.016,-552.504,0,0
317444,114.285,-551.836,0,0
317704,114.505,-551.214,0,0
317964,114.665,-550.608,0,0
318225,114.825,-550.224,0,0
318485,114.841,-549.648,0,0
318745,114.892,-549.229,0,0
319006,114.873,-548.73,0,0
319266,114.771,-548.292,0,0
319526,114.68,-547.838,0,0
319787,114.636,-547.342,0,0
320047,114.454,-546.909,0,0
320307,114.396,-546.388,0,0
320567,114.343,-545.827,0,0
320828,114.281,-545.271,0,0
321088,114.252,-544.696,0,0
321348,114.229,-544.257,0,0
321609,114.319,-543.729,0,0
321869,114.401,-543.355,0,0
322129,114.579,-542.978,0,0
322390,114.718,-542.634,0,0
322650,114.805,-542.411,0,0
322910,114.906,-542.307,0,0
323171,114.96,-542.28,0,0
323431,115.003,-542.296,0,0
323691,114.873,-542.377,0,0
323952,114.655,-542.421,0,0
324212,114.444,-542.657,0,0
324472,114.17,-542.697,0,0
324733,113.788,-542.789,0,0
324993,113.373,-542.91,0,0
325253,112.815,-542.992,0,0
325514,112.163,-543.033,0,0
325774,111.557,-543.05,0,0
326034,110.94,-543.154,0,0
326295,110.074,-543.078,0,0
326555,109.305,-543.083,0,0
326815,108.53,-542.916,0,0
327076,107.703,-542.625,0,0
327336,106.745,-542.461,0,0
327596,105.78,-542.095,0,0
327857,104.975,-541.771,0,0
328117,104.065,-541.326,0,0
328377,103.274,-540.808,0,0
328638,102.45,-540.452,0,0
328898,101.645,-539.903,0,0
329158,100.813,-539.469,0,0
329419,100.078,-538.925,0,0
329679,99.3173,-538.347,0,0
329939,98.4197,-537.936,0,0
330200,97.7499,-537.325,0,0
330460,96.9452,-536.817,0,0
330720.15,96.0731,-536.235,0,0
330980.475,95.3228,-535.693,0,0
331240.8,94.3854,-535.142,0,0
331501.125,93.5632,-534.515,0,0
331761.45,92.6149,-533.815,0,0
332021.775,91.7203,-533.112,0,0
332282.1,90.8785,-532.349,0,0
332542.425,90.0328,-531.631,0,0
332802.75,89.1293,-530.715,0,0
333063.075,88.2122,-529.899,0,0
333323.4,87.432,-529.058,0,0
333583.725,86.551,-528.116,0,0
333844.05,85.6431,-527.22,0,0
334104.375,84.9452,-526.225,0,0
334364.7,84.0863,-525.173,0,0
334625.025,83.269,-524.083,0,0
334885.35,82.5752,-522.928,0,0
335145.675,81.8108,-521.702,0,0
335406.0,81.1782,-520.554,0,0
335666.325,80.5298,-519.331,0,0
335926.65,79.9805,-518.084,0,0
336186.975,79.4518,-516.85,0,0
336447.3,79.0156,-515.55,0,0
336707.625,78.5913,-514.273,0,0
336967.95,78.2543,-513.028,0,0
337228.275,77.9236,-511.856,0,0
337488.6,77.5627,-510.645,0,0
337748.925,77.2424,-509.43,0,0
338009.25,76.9666,-508.203,0,0
338269.575,76.7092,-506.954,0,0
338529.9,76.4246,-505.707,0,0
338790.225,76.2458,-504.466,0,0
339050.55,76.0691,-503.085,0,0
339310.875,75.9748,-501.794,0,0
339571.2,75.8487,-500.412,0,0
339831.525,75.8627,-499.179,0,0
340091.85,75.9553,-497.76,0,0
340352.175,76.1614,-496.417,0,0
340612.5,76.3944,-495.126,0,0
340872.825,76.7419,-493.933,0,0
341133.15,77.1517,-492.777,0,0
341393.475,77.5419,-491.669,0,0
341653.8,78.0458,-490.655,0,0
341914.125,78.5627,-489.699,0,0
342174.45,79.0936,-488.864,0,0
342434.775,79.6086,-488.053,0,0
342695.1,80.1663,-487.386,0,0
342955.425,80.7147,-486.903,0,0
343215.75,81.1362,-486.386,0,0
343476.075,81.4849,-485.86,0,0
343736.4,81.8454,-485.51,0,0
343996.725,82.1265,-485.147,0,0
344257.05,82.3571,-484.775,0,0
344517.375,82.5605,-484.463,0,0
344777.7,82.7201,-484.206,0,0
345038.025,82.7466,-483.888,0,0
345298.35,82.7331,-483.546,0,0
345558.675,82.6753,-483.165,0,0
345819.0,82.6669,-482.84,0,0
346079.325,82.5764,-482.407,0,0
346339.65,82.4969,-482.006,0,0
346599.975,82.3672,-481.575,0,0
346860,82.285,-481.078,0,0
347121,82.1789,-480.574,0,0
347381,81.9849,-480.15,0,0
347641,81.8729,-479.612,0,0
347902,81.7213,-479.101,0,0
348162,81.5333,-478.539,0,0
348422,81.4294,-477.91,0,0
348683,81.2199,-477.226,0,0
348943,81.1431,-476.6,0,0
349203,81.0536,-475.866,0,0
349464,81.0617,-475.19,0,0
349724,81.0337,-474.452,0,0
349984,81.1026,-473.745,0,0
350245,81.209,-473.046,0,0
350505,81.4212,-472.354,0,0
350765,81.6356,-471.683,0,0
351025,81.9048,-471.103,0,0
351286,82.2192,-470.597,0,0
351546,82.596,-470.183,0,0
351806,82.8434,-469.892,0,0
352067,83.1,-469.594,0,0
352327,83.3539,-469.455,0,0
352587,83.5485,-469.313,0,0
352848,83.5918,-469.199,0,0
353108,83.5859,-469.184,0,0
353368,83.4521,-469.155,0,0
353629,83.3474,-469.047,0,0
353889,83.0219,-468.929,0,0
354149,82.76,-468.862,0,0
354410,82.3667,-468.625,0,0
354670,82.0172,-468.397,0,0
354930,81.6358,-468.008,0,0
355191,81.1848,-467.605,0,0
355451,80.8343,-467.229,0,0
355711,80.3605,-466.761,0,0
355972,80.0535,-466.231,0,0
356232,79.7238,-465.669,0,0
356492,79.3827,-465.139,0,0
356753,79.0717,-464.536,0,0
357013,78.7638,-464.01,0,0
357273,78.4256,-463.373,0,0
357534,78.1736,-462.82,0,0
357794,77.8423,-462.15,0,0
358054,77.5357,-461.448,0,0
358315,77.3578,-460.771,0,0
358575,77.1187,-460.021,0,0
358835,76.9352,-459.302,0,0
359096,76.8101,-458.526,0,0
359356,76.7391,-457.833,0,0
359616,76.6444,-457.092,0,0
359877,76.6373,-456.316,0,0
360137,76.6434,-455.643,0,0
360397,76.6733,-454.962,0,0
360658,76.7069,-454.325,0,0
360918,76.7199,-453.701,0,0
361178,76.7263,-453.147,0,0
361438,76.788,-452.515,0,0
361699,76.7884,-451.933,0,0
361959,76.8274,-451.441,0,0
362219,76.8454,-450.755,0,0
362480,76.8636,-450.19,0,0
362740.1,76.8779,-449.532,0,0
363000.425,76.9235,-448.9,0,0
363260.75,76.994,-448.317,0,0
363521.075,77.1215,-447.688,0,0
363781.4,77.3364,-447.071,0,0
364041.725,77.5624,-446.462,0,0
364302.05,77.9138,-445.939,0,0
364562.375,78.204,-445.496,0,0
364822.7,78.5424,-445.145,0,0
365083.025,78.8372,-444.855,0,0
365343.35,79.1536,-444.591,0,0
365603.675,79.3916,-444.532,0,0
365864.0,79.5642,-444.499,0,0
366124.325,79.6325,-444.525,0,0
366384.65,79.5537,-444.531,0,0
366644.975,79.4648,-444.543,0,0
366905.3,79.221,-444.592,0,0
367165.625,78.8754,-444.569,0,0
367425.95,78.4852,-444.47,0,0
367686.275,77.9574,-444.318,0,0
367946.6,77.4994,-444.071,0,0
368206.925,76.9453,-443.747,0,0
368467.25,76.2948,-443.282,0,0
368727.575,75.7524,-442.709,0,0
368987.9,75.1877,-442.02,0,0
369248.225,74.6415,-441.178,0,0
369508.55,74.3468,-440.25,0,0
369768.875,74.0962,-439.225,0,0
370029.2,74.0209,-438.23,0,0
370289.525,74.0784,-437.262,0,0
370549.85,74.3114,-436.341,0,0
370810.175,74.6954,-435.516,0,0
371070.5,75.0481,-434.826,0,0
371330.825,75.4954,-434.343,0,0
371591.15,75.8631,-433.973,0,0
371851.475,76.2019,-433.712,0,0
372111.8,76.5006,-433.54,0,0
372372.125,76.6872,-433.452,0,0
372632.45,76.7423,-433.386,0,0
372892.775,76.6607,-433.322,0,0
373153.1,76.5832,-433.265,0,0
373413.425,76.3448,-433.182,0,0
373673.75,76.0349,-433.069,0,0
373934.075,75.6318,-432.826,0,0
374194.4,75.2406,-432.498,0,0
374454.725,74.8684,-432.13,0,0
374715.05,74.5033,-431.647,0,0
374975.375,74.1006,-431.166,0,0
375235.7,73.7514,-430.612,0,0
375496.025,73.3684,-430.029,0,0
375756.35,73.0528,-429.347,0,0
376016.675,72.7724,-428.632,0,0
376277.0,72.5526,-427.892,0,0
376537.325,72.4007,-427.128,0,0
376797.65,72.2858,-426.372,0,0
377057.975,72.2697,-425.601,0,0
377318.3,72.2881,-424.849,0,0
377578.625,72.3502,-424.124,0,0
377838.95,72.4309,-423.455,0,0
378099.275,72.508,-422.829,0,0
378359.6,72.6537,-422.193,0,0
378619.925,72.7811,-421.58,0,0
378880,72.9734,-421.016,0,0
379141,73.1429,-420.48,0,0
379401,73.3388,-419.943,0,0
379661,73.5362,-419.438,0,0
379922,73.6562,-419.006,0,0
380182,73.9241,-418.602,0,0
380442,74.0615,-418.277,0,0
380703,74.2374,-417.935,0,0
380963,74.339,-417.588,0,0
381223,74.4378,-417.238,0,0
381483,74.5201,-416.931,0,0
381744,74.6151,-416.634,0,0
382004,74.6898,-416.34,0,0
382264,74.7524,-416.123,0,0
382525,74.8008,-415.786,0,0
382785,74.7612,-415.572,0,0
383045,74.7512,-415.332,0,0
383306,74.7168,-415.117,0,0
383566,74.6474,-414.922,0,0
383826,74.5039,-414.657,0,0
384087,74.4248,-414.428,0,0
384347,74.2414,-414.174,0,0
384607,74.0142,-413.917,0,0
384868,73.8037,-413.618,0,0
385128,73.5389,-413.26,0,0
385388,73.2973,-412.893,0,0
385649,73.0496,-412.521,0,0
385909,72.7924,-412.083,0,0
386169,72.5316,-411.622,0,0
386430,72.278,-411.138,0,0
386690,72.0493,-410.652,0,0
386950,71.8466,-410.088,0,0
387211,71.5542,-409.533,0,0
387471,71.3766,-409.025,0,0
387731,71.1297,-408.449,0,0
387992,70.9426,-407.894,0,0
388252,70.7203,-407.226,0,0
388512,70.5116,-406.618,0,0
388773,70.3025,-405.908,0,0
389033,70.1347,-405.189,0,0
389293,69.9979,-404.464,0,0
389554,69.9065,-403.653,0,0
389814,69.8352,-402.863,0,0
390074,69.8362,-402.031,0,0
390335,69.888,-401.226,0,0
390595,69.943,-400.41,0,0
390855,70.0889,-399.613,0,0
391116,70.2195,-398.797,0,0
391376,70.4306,-397.963,0,0
391636,70.6837,-397.173,0,0
391896,70.9624,-396.412,0,0
392157,71.316,-395.626,0,0
392417,71.7319,-394.907,0,0
392677,72.1688,-394.247,0,0
392938,72.6516,-393.651,0,0
393198,73.1709,-393.067,0,0
393458,73.6803,-392.553,0,0
393719,74.1803,-392.132,0,0
393979,74.7191,-391.703,0,0
394239,75.2256,-391.328,0,0
394500,75.7591,-391.005,0,0
394760.05,76.2656,-390.771,0,0
395020.375,76.7423,-390.525,0,0
395280.7,77.2387,-390.372,0,0
395541.025,77.7342,-390.28,0,0
395801.35,78.2255,-390.186,0,0
396061.675,78.5762,-390.127,0,0
396322.0,78.944,-390.176,0,0
396582.325,79.2515,-390.175,0,0
396842.65,79.5655,-390.263,0,0
397102.975,79.8235,-390.352,0,0
397363.3,80.0331,-390.46,0,0
397623.625,80.2125,-390.585,0,0
397883.95,80.2747,-390.712,0,0
398144.275,80.3366,-390.844,0,0
398404.6,80.3255,-390.997,0,0
398664.925,80.2558,-391.125,0,0
398925.25,80.1581,-391.212,0,0
399185.575,80.0048,-391.312,0,0
399445.9,79.8429,-391.323,0,0
399706.225,79.6592,-391.403,0,0
399966.55,79.4121,-391.324,0,0
400006.6,79.3988,-391.329,0,0