File: Accelerated corrosion test data/2025-10-05_18-00-02/sample_4.csv
Frequency (Hz),Impedance (ohms),Phase (Radians),Temperature (C),Humidity (%)
10000.0,263.974,-11824.4,0,0
10260.325,260.718,-11526.7,0,0
10520.65,251.462,-11244.6,0,0
10780.975,245.571,-10974.9,0,0
11041.3,240.223,-10717.7,0,0
11301.625,234.858,-10475.3,0,0
11561.95,229.504,-10240.5,0,0
11822.275,225.114,-10016.4,0,0
12082.6,220.472,-9802.41,0,0
12342.925,216.17,-9596.99,0,0
12603.25,212.881,-9398.02,0,0
12863.575,208.817,-9212.02,0,0
13123.9,208.714,-9033.62,0,0
13384.225,200.141,-8856.58,0,0
13644.55,197.113,-8686.13,0,0
13904.875,193.656,-8521.41,0,0
14165.2,195.126,-8359.89,0,0
14425.525,198.966,-8209.23,0,0
14685.8,202.43,-8098.9,0,0
14946.175,182.596,-7943.55,0,0
15206.5,182.288,-7800.41,0,0
15466.825,188.583,-7656.96,0,0
15727.15,190.402,-7560.23,0,0
15987.5,187.928,-7440.05,0,0
16247.8,171.178,-7314.66,0,0
16508.125,187.036,-7184.94,0,0
16768.45,179.245,-7088.29,0,0
17028.775,172.148,-6998.8,0,0
17289.1,161.244,-6886.45,0,0
17549.425,159.352,-6782.57,0,0
17809.75,156.846,-6681.86,0,0
18070.075,152.38,-6583.37,0,0
18330.4,153.425,-6488.25,0,0
18590.725,154.008,-6400.15,0,0
18851.05,150.71,-6316.25,0,0
19111.375,145.782,-6227.72,0,0
19371.7,143.273,-6142.56,0,0
19632.025,142.258,-6058.78,0,0
19892.35,144.324,-5978.01,0,0
20152.675,144.24,-5901.57,0,0
20413.0,141.623,-5829.3,0,0
20673.3,140.96,-5754.02,0,0
20933.65,137.676,-5681.62,0,0
21193.975,140.123,-5606.94,0,0
21454.3,152.577,-5541.91,0,0
21714.625,145.351,-5484.25,0,0
21974.9,149.007,-5414.27,0,0
22235.275,148.698,-5368.6,0,0
22495.6,136.329,-5313.06,0,0
22755.925,128.806,-5247.72,0,0
23016.25,125.927,-5186.52,0,0
23276.6,123.231,-5126.04,0,0
23536.9,121.787,-5068.88,0,0
23797.225,119.335,-5012.37,0,0
24057.55,117.905,-4957.19,0,0
24317.875,116.721,-4902.61,0,0
24578.2,115.103,-4849.99,0,0
24838.525,114.504,-4797.72,0,0
25098.85,114.324,-4746.99,0,0
25359.175,113.531,-4699.87,0,0
25619.5,112.607,-4650.83,0,0
25879.8,111.301,-4606.84,0,0
26140.1,108.802,-4558.41,0,0
26400.5,107.655,-4511.96,0,0
26660.8,107.035,-4466.32,0,0
26921.1,106.968,-4422.83,0,0
27181.4,106.125,-4377.5,0,0
27441.8,106.277,-4333.41,0,0
27702.1,109.587,-4289.42,0,0
27962.4,117.076,-4248.57,0,0
28222.7,119.893,-4217.96,0,0
28483.1,115.367,-4185.98,0,0
28743.4,110.332,-4146.1,0,0
29003.7,111.566,-4103.86,0,0
29264,116.848,-4072.27,0,0
29524.4,112.636,-4041.41,0,0
29784.7,109.088,-4009.72,0,0
30045,107.266,-3973.95,0,0
30305.3,102.112,-3940.18,0,0
30565.7,99.9113,-3904.62,0,0
30826,99.2943,-3869.91,0,0
31086.3,98.9868,-3836.59,0,0
31346.6,99.406,-3803.45,0,0
31607,98.3561,-3773.08,0,0
31867.3,97.6416,-3741.68,0,0
32127.6,99.2232,-3710.51,0,0
32387.9,98.762,-3684.48,0,0
32648.3,97.3847,-3654.5,0,0
32908.6,95.2526,-3627.94,0,0
33168.9,92.6831,-3598.7,0,0
33429.2,90.7462,-3570.5,0,0
33689.6,88.8459,-3541.65,0,0
33949.9,87.7425,-3513.1,0,0
34210.2,88.1839,-3485.32,0,0
34470.5,86.7239,-3459.39,0,0
34730.9,85.3502,-3432.6,0,0
34991.2,85.2174,-3406.3,0,0
35251.5,84.4559,-3380.47,0,0
35511.8,83.6019,-3354.91,0,0
35772.2,83.2216,-3330.12,0,0
36032.5,82.3985,-3305.58,0,0
36292.8,81.5368,-3281.11,0,0
36553.1,81.2507,-3256.69,0,0
36813.5,80.8088,-3232.74,0,0
37073.8,81.3628,-3209.54,0,0
37334.1,80.1335,-3187.61,0,0
37594.4,79.5439,-3164.23,0,0
37854.8,79.472,-3141.93,0,0
38115.1,78.7847,-3120.4,0,0
38375.4,77.8727,-3097.89,0,0
38635.7,77.3173,-3076.16,0,0
38896.1,77.7359,-3054.38,0,0
39156.4,77.4183,-3033.92,0,0
39416.7,77.1498,-3012.84,0,0
39677,76.6858,-2991.63,0,0
39937.4,77.1832,-2970.76,0,0
40197.7,78.7588,-2950.27,0,0
40458,80.6039,-2931.57,0,0
40718.3,79.729,-2914.54,0,0
40978.7,79.5866,-2894.99,0,0
41239,79.6893,-2876.3,0,0
41499.3,82.6152,-2859.16,0,0
41759.6,79.9279,-2844.04,0,0
42020,78.379,-2825.88,0,0
42280.275,77.0378,-2806.6,0,0
42540.6,79.0988,-2788.84,0,0
42800.925,78.1019,-2774.59,0,0
43061.25,75.792,-2756.61,0,0
43321.575,76.2226,-2739.61,0,0
43581.9,74.9518,-2723.09,0,0
43842.225,74.0658,-2705.67,0,0
44102.55,74.3387,-2690.04,0,0
44362.875,72.6191,-2673.33,0,0
44623.2,72.6501,-2656.61,0,0
44883.525,72.3589,-2640.99,0,0
45143.85,71.642,-2625.04,0,0
45404.175,70.8572,-2608.75,0,0
45664.5,71.3757,-2592.07,0,0
45924.825,72.9371,-2577.49,0,0
46185.15,72.6079,-2564.51,0,0
46445.475,70.684,-2548.42,0,0
46705.8,71.7709,-2533.37,0,0
46966.125,71.8762,-2519.49,0,0
47226.45,71.706,-2505.01,0,0
47486.775,71.5757,-2492.49,0,0
47747.1,70.3522,-2478.46,0,0
48007.425,69.7942,-2464.5,0,0
48267.75,68.9279,-2451.32,0,0
48528.075,68.1028,-2437.34,0,0
48788.4,67.4089,-2423.52,0,0
49048.725,66.6307,-2409.84,0,0
49309.05,66.4225,-2395.62,0,0
49569.375,65.9344,-2382.73,0,0
49829.7,65.4101,-2369.01,0,0
50090.025,65.2275,-2355.97,0,0
50350.35,64.7873,-2342.74,0,0
50610.675,64.8013,-2329.52,0,0
50871.0,64.601,-2316.82,0,0
51131.325,64.3747,-2303.94,0,0
51391.65,63.967,-2291.05,0,0
51651.975,64.271,-2278.04,0,0
51912.3,64.3596,-2265.55,0,0
52172.625,64.635,-2252.91,0,0
52432.95,64.7881,-2240.89,0,0
52693.275,64.9774,-2228.04,0,0
52953.6,66.0422,-2215.57,0,0
53213.925,67.044,-2203.97,0,0
53474.25,68.1531,-2191.96,0,0
53734.575,69.4043,-2180.26,0,0
53994.9,71.984,-2169.09,0,0
54255.225,74.0428,-2159.51,0,0
54515.55,76.1744,-2150.74,0,0
54775.875,76.5073,-2143.65,0,0
55036.2,74.6175,-2135.31,0,0
55296.525,73.6486,-2125.33,0,0
55556.85,72.0833,-2116.3,0,0
55817.175,70.6593,-2105.95,0,0
56077.5,69.1591,-2096.19,0,0
56337.825,67.6623,-2085.36,0,0
56598.15,66.3964,-2074.05,0,0
56858.475,66.0586,-2063.1,0,0
57118.8,66.0031,-2051.89,0,0
57379.125,66.4791,-2041.35,0,0
57639.45,66.6051,-2031.23,0,0
57899.775,66.8322,-2021.11,0,0
58160.1,67.0223,-2010.82,0,0
58420.4,67.8022,-2000.42,0,0
58680.7,68.6063,-1991.39,0,0
58941.1,67.9955,-1981.09,0,0
59201.4,69.0731,-1970.37,0,0
59461.7,71.3971,-1960.26,0,0
59722,73.9873,-1951.62,0,0
59982.4,76.2051,-1944,0,0
60242.7,77.4427,-1937.12,0,0
60503,78.4796,-1929.54,0,0
60763.3,80.5829,-1922.91,0,0
61023.7,81.0682,-1919.11,0,0
61284,78.7873,-1914.11,0,0
61544.3,74.9179,-1908.04,0,0
61804.6,71.7517,-1898.7,0,0
62065,70.0492,-1889.79,0,0
62325.3,69.0015,-1881.27,0,0
62585.6,66.5118,-1872.87,0,0
62845.9,65.2712,-1862.43,0,0
63106.3,64.9302,-1853.48,0,0
63366.6,64.8039,-1844.06,0,0
63626.9,65.0054,-1835.32,0,0
63887.2,65.1776,-1827.52,0,0
64147.6,63.911,-1818.97,0,0
64407.9,63.8768,-1809.56,0,0
64668.2,64.8246,-1800.89,0,0
64928.5,65.4845,-1792.95,0,0
65188.9,65.5822,-1785.23,0,0
65449.2,66.0412,-1777.29,0,0
65709.5,65.9787,-1769.25,0,0
65969.8,66.8212,-1760.87,0,0
66230.2,68.0367,-1753.57,0,0
66490.5,68.5564,-1746.33,0,0
66750.8,69.3256,-1739.18,0,0
67011.1,69.8751,-1732.12,0,0
67271.5,70.936,-1725.07,0,0
67531.8,71.9297,-1718.6,0,0
67792.1,72.9348,-1712.49,0,0
68052.4,73.5429,-1706.98,0,0
68312.8,73.9037,-1701.46,0,0
68573.1,73.9569,-1696.4,0,0
68833.4,73.2711,-1691.55,0,0
69093.7,71.3872,-1686.5,0,0
69354.1,69.5723,-1680.33,0,0
69614.4,67.5306,-1673.51,0,0
69874.7,66.3626,-1665.97,0,0
70135,65.8917,-1659.14,0,0
70395.4,64.5605,-1652.22,0,0
70655.7,64.2119,-1644.01,0,0
70916,65.5349,-1637.45,0,0
71176.3,65.2718,-1632.13,0,0
71436.7,64.4253,-1626.17,0,0
71697,63.8832,-1620.12,0,0
71957.3,62.7263,-1614.44,0,0
72217.6,60.9339,-1608.07,0,0
72478,59.4781,-1600.86,0,0
72738.3,58.642,-1593.57,0,0
72998.6,57.8685,-1586.31,0,0
73258.9,57.4051,-1578.65,0,0
73519.3,57.744,-1571.29,0,0
73779.6,58.0159,-1564.43,0,0
74039.9,58.4227,-1557.43,0,0
74300.225,58.9977,-1551.21,0,0
74560.55,59.1334,-1544.57,0,0
74820.875,59.6813,-1538.26,0,0
75081.2,60.1576,-1531.9,0,0
75341.525,60.9562,-1525.92,0,0
75601.85,61.412,-1520.25,0,0
75862.175,61.6264,-1514.56,0,0
76122.5,61.9974,-1508.66,0,0
76382.825,62.4965,-1503.19,0,0
76643.15,62.5061,-1497.82,0,0
76903.475,62.3502,-1491.87,0,0
77163.8,63.0537,-1485.52,0,0
77424.125,64.4967,-1480.25,0,0
77684.45,65.2394,-1475.66,0,0
77944.775,65.6573,-1471.26,0,0
78205.1,65.5691,-1466.91,0,0
78465.425,65.2917,-1462.36,0,0
78725.75,64.7353,-1457.82,0,0
78986.075,63.9483,-1453.09,0,0
79246.4,63.0611,-1448.04,0,0
79506.725,62.2283,-1442.65,0,0
79767.05,61.6606,-1437.21,0,0
80027.375,61.2373,-1431.75,0,0
80287.7,60.9734,-1426.29,0,0
80548.025,60.7407,-1420.87,0,0
80808.35,60.5959,-1415.62,0,0
81068.675,60.5542,-1410.4,0,0
81329.0,60.4934,-1405.29,0,0
81589.325,60.3502,-1400.3,0,0
81849.65,60.1093,-1395.36,0,0
82109.975,59.7982,-1390.36,0,0
82370.3,59.5355,-1385.3,0,0
82630.625,59.3198,-1380.32,0,0
82890.95,59.0986,-1375.27,0,0
83151.275,58.8375,-1370.31,0,0
83411.6,58.6161,-1365.35,0,0
83671.925,58.3081,-1360.33,0,0
83932.25,58.1094,-1355.45,0,0
84192.575,57.9716,-1350.54,0,0
84452.9,57.8193,-1345.59,0,0
84713.225,57.6146,-1340.73,0,0
84973.55,57.4407,-1335.76,0,0
85233.875,57.3309,-1330.95,0,0
85494.2,57.2467,-1326.15,0,0
85754.525,57.1014,-1321.5,0,0
86014.85,56.9027,-1316.69,0,0
86275.175,56.7425,-1312.01,0,0
86535.5,56.7548,-1307.29,0,0
86795.825,56.5761,-1302.73,0,0
87056.15,56.4096,-1298.16,0,0
87316.475,56.2122,-1293.58,0,0
87576.8,56.0915,-1289.1,0,0
87837.125,55.8888,-1284.8,0,0
88097.45,55.3525,-1280.4,0,0
88357.775,54.6331,-1275.76,0,0
88618.1,54.1285,-1270.71,0,0
88878.425,54.0083,-1265.78,0,0
89138.75,53.8162,-1260.94,0,0
89399.075,53.7133,-1256.14,0,0
89659.4,53.7476,-1251.39,0,0
89919.725,53.701,-1246.8,0,0
90180,53.7291,-1242.19,0,0
90440.4,53.683,-1237.66,0,0
90700.7,53.709,-1233.02,0,0
90961,53.6159,-1228.54,0,0
91221.3,53.4551,-1223.9,0,0
91481.7,53.6066,-1219.22,0,0
91742,53.7288,-1214.69,0,0
92002.3,53.974,-1210.1,0,0
92262.6,54.2381,-1205.71,0,0
92523,54.5688,-1201.41,0,0
92783.3,54.8561,-1197.24,0,0
93043.6,55.0517,-1193.28,0,0
93303.9,55.1145,-1189.42,0,0
93564.3,54.9243,-1185.44,0,0
93824.6,54.8938,-1181.49,0,0
94084.9,54.5101,-1177.39,0,0
94345.2,54.1193,-1173.11,0,0
94605.6,53.7888,-1168.91,0,0
94865.9,53.4662,-1164.47,0,0
95126.2,53.2774,-1159.96,0,0
95386.5,53.1722,-1155.45,0,0
95646.9,53.1353,-1151.01,0,0
95907.2,53.3284,-1146.38,0,0
96167.5,53.5021,-1142.07,0,0
96427.8,53.6917,-1137.7,0,0
96688.2,53.9308,-1133.41,0,0
96948.5,54.1035,-1129.15,0,0
97208.8,54.2593,-1124.9,0,0
97469.1,54.4764,-1120.64,0,0
97729.5,54.7058,-1116.43,0,0
97989.8,54.8893,-1112.09,0,0
98250.1,55.2328,-1107.76,0,0
98510.4,55.5778,-1103.56,0,0
98770.8,55.9404,-1099.34,0,0
99031.1,56.4164,-1095.02,0,0
99291.4,57.0738,-1090.8,0,0
99551.7,57.7896,-1086.79,0,0
99812.1,58.354,-1082.95,0,0
100072,58.8201,-1078.88,0,0
100333,59.6749,-1074.7,0,0
100593,60.8214,-1070.87,0,0
100853,61.9969,-1067.58,0,0
101114,62.7191,-1064.66,0,0
101374,63.2743,-1061.58,0,0
101634,63.7496,-1058.91,0,0
101895,63.6271,-1056.48,0,0
102155,62.775,-1053.81,0,0
102415,61.5376,-1050.32,0,0
102676,60.6356,-1046.32,0,0
102936,59.7576,-1042.16,0,0
103196,59.0703,-1037.54,0,0
103457,58.6631,-1032.7,0,0
103717,58.6489,-1027.67,0,0
103977,59.1345,-1022.72,0,0
104238,59.799,-1017.97,0,0
104498,60.4988,-1013.34,0,0
104758,61.4305,-1008.66,0,0
105019,62.5896,-1004.11,0,0
105279,63.9364,-999.861,0,0
105539,65.1859,-995.804,0,0
105800,66.4399,-991.768,0,0
106060,67.7963,-987.843,0,0
106320.175,69.1734,-984.044,0,0
106580.5,70.5462,-980.323,0,0
106840.825,71.9769,-976.743,0,0
107101.15,73.3154,-973.269,0,0
107361.475,74.6159,-969.812,0,0
107621.8,75.9085,-966.362,0,0
107882.125,77.3082,-962.756,0,0
108142.45,78.8304,-959.254,0,0
108402.775,80.5435,-955.875,0,0
108663.1,82.3653,-952.696,0,0
108923.425,84.1599,-949.789,0,0
109183.75,85.8977,-946.977,0,0
109444.075,87.6234,-944.393,0,0
109704.4,89.254,-941.938,0,0
109964.725,90.7541,-939.602,0,0
110225.05,92.0665,-937.236,0,0
110485.375,93.4796,-934.977,0,0
110745.7,94.7707,-932.743,0,0
111006.025,95.9719,-930.524,0,0
111266.35,97.2304,-928.489,0,0
111526.675,98.2879,-926.426,0,0
111787.0,99.2718,-924.367,0,0
112047.325,100.426,-922.26,0,0
112307.65,101.585,-920.311,0,0
112567.975,102.522,-918.509,0,0
112828.3,103.321,-916.698,0,0
113088.625,104.173,-914.902,0,0
113348.95,105.035,-913.215,0,0
113609.275,105.71,-911.521,0,0
113869.6,106.226,-909.848,0,0
114129.925,106.791,-908.191,0,0
114390.25,107.279,-906.56,0,0
114650.575,107.669,-904.894,0,0
114910.9,108.05,-903.221,0,0
115171.225,108.412,-901.73,0,0
115431.55,108.569,-900.246,0,0
115691.875,108.518,-898.769,0,0
115952.2,108.398,-897.16,0,0
116212.525,108.29,-895.458,0,0
116472.85,108.157,-893.81,0,0
116733.175,107.765,-892.142,0,0
116993.5,107.235,-890.264,0,0
117253.825,106.742,-888.236,0,0
117514.15,106.264,-886.108,0,0
117774.475,105.722,-883.848,0,0
118034.8,105.229,-881.387,0,0
118295.125,104.811,-878.697,0,0
118555.45,104.624,-875.818,0,0
118815.775,104.767,-872.839,0,0
119076.1,105.296,-869.952,0,0
119336.425,106.13,-867.176,0,0
119596.75,107.475,-864.689,0,0
119857.075,109.174,-863.104,0,0
120117.4,110.454,-862.245,0,0
120377.725,111.1,-862.001,0,0
120638.05,110.989,-861.962,0,0
120898.375,110.037,-861.715,0,0
121158.7,108.503,-860.824,0,0
121419.025,106.922,-859.343,0,0
121679.35,105.42,-857.479,0,0
121939.675,104.067,-855.376,0,0
122200.0,102.799,-853.093,0,0
122460,101.633,-850.66,0,0
122721,100.673,-848.083,0,0
122981,99.8914,-845.481,0,0
123241,99.2185,-842.982,0,0
123502,98.4707,-840.46,0,0
123762,97.8127,-837.924,0,0
124022,97.1915,-835.439,0,0
124283,96.5909,-832.883,0,0
124543,95.9763,-830.387,0,0
124803,95.3584,-827.842,0,0
125064,94.843,-825.246,0,0
125324,94.4272,-822.679,0,0
125584,93.9494,-820.273,0,0
125845,93.4905,-817.771,0,0
126105,93.1267,-815.355,0,0
126365,92.7047,-813.136,0,0
126626,92.0261,-811.07,0,0
126886,91.1523,-808.771,0,0
127146,90.2562,-806.29,0,0
127406,89.4461,-803.828,0,0
127667,88.5878,-801.241,0,0
127927,87.8187,-798.831,0,0
128187,86.8684,-796.475,0,0
128448,85.72,-793.96,0,0
128708,84.4725,-791.201,0,0
128968,83.2986,-788.323,0,0
129229,82.0965,-785.418,0,0
129489,80.8408,-782.265,0,0
129749,79.6939,-778.977,0,0
130010,78.6381,-775.578,0,0
130270,77.7239,-772.035,0,0
130530,76.9112,-768.476,0,0
130791,76.1915,-764.917,0,0
131051,75.4395,-761.368,0,0
131311,74.7916,-757.652,0,0
131572,74.2822,-753.89,0,0
131832,73.9494,-750.165,0,0
132092,73.6054,-746.52,0,0
132353,73.2388,-742.834,0,0
132613,72.9553,-739.045,0,0
132873,72.8259,-735.277,0,0
133134,72.6743,-731.517,0,0
133394,72.6518,-727.813,0,0
133654,72.6613,-724.081,0,0
133915,72.6267,-720.333,0,0
134175,72.7445,-716.48,0,0
134435,72.9849,-712.75,0,0
134696,73.1629,-709.023,0,0
134956,73.4459,-705.3,0,0
135216,73.8104,-701.514,0,0
135477,74.2216,-697.786,0,0
135737,74.7468,-694.132,0,0
135997,75.2623,-690.578,0,0
136258,75.7616,-687.078,0,0
136518,76.2305,-683.506,0,0
136778,76.8446,-679.944,0,0
137039,77.4807,-676.489,0,0
137299,78.1225,-673.151,0,0
137559,78.6074,-669.868,0,0
137819,78.9936,-666.546,0,0
138080,79.304,-663.132,0,0
138340.125,79.6298,-659.599,0,0
138600.45,80.0132,-655.953,0,0
138860.775,80.485,-652.256,0,0
139121.1,81.005,-648.535,0,0
139381.425,81.6197,-644.737,0,0
139641.75,82.2949,-640.969,0,0
139902.075,83.0631,-637.207,0,0
140162.4,83.7942,-633.436,0,0
140422.725,84.6635,-629.61,0,0
140683.05,85.6029,-625.79,0,0
140943.375,86.6043,-621.962,0,0
141203.7,87.7202,-618.199,0,0
141464.025,88.887,-614.487,0,0
141724.35,90.0727,-610.859,0,0
141984.675,91.2022,-607.252,0,0
142245.0,92.3587,-603.584,0,0
142505.325,93.5663,-599.912,0,0
142765.65,94.8085,-596.27,0,0
143025.975,96.0402,-592.598,0,0
143286.3,97.3326,-588.865,0,0
143546.625,98.7383,-585.201,0,0
143806.95,100.112,-581.513,0,0
144067.275,101.559,-577.818,0,0
144327.6,103.037,-574.115,0,0
144587.925,104.58,-570.401,0,0
144848.25,106.205,-566.665,0,0
145108.575,107.869,-562.981,0,0
145368.9,109.574,-559.255,0,0
145629.225,111.348,-555.53,0,0
145889.55,113.2,-551.837,0,0
146149.875,115.125,-548.13,0,0
146410.2,117.065,-544.381,0,0
146670.525,119.165,-540.693,0,0
146930.85,121.348,-537.07,0,0
147191.175,123.495,-533.512,0,0
147451.5,125.711,-529.915,0,0
147711.825,128,-526.356,0,0
147972.15,130.277,-522.84,0,0
148232.475,132.55,-519.279,0,0
148492.8,134.931,-515.6,0,0
148753.125,137.482,-511.899,0,0
149013.45,140.182,-508.263,0,0
149273.775,142.981,-504.724,0,0
149534.1,145.763,-501.175,0,0
149794.425,148.717,-497.561,0,0
150054.75,151.831,-494.005,0,0
150315.075,155.08,-490.547,0,0
150575.4,158.439,-487.136,0,0
150835.725,161.903,-483.762,0,0
151096.05,165.552,-480.455,0,0
151356.375,169.431,-477.234,0,0
151616.7,173.463,-474.295,0,0
151877.025,177.519,-471.558,0,0
152137.35,181.584,-468.894,0,0
152397.675,185.787,-466.268,0,0
152658.0,190.294,-463.845,0,0
152918.325,194.927,-461.84,0,0
153178.65,199.454,-460.176,0,0
153438.975,203.93,-458.744,0,0
153699.3,208.37,-457.574,0,0
153959.625,212.657,-456.746,0,0
154219.95,216.634,-456.117,0,0
154480,220.434,-455.548,0,0
154741,223.967,-455.127,0,0
155001,227.077,-454.619,0,0
155261,230.109,-453.671,0,0
155522,233.482,-452.656,0,0
155782,237.028,-451.888,0,0
156042,240.424,-451.35,0,0
156303,243.582,-450.962,0,0
156563,246.754,-450.651,0,0
156823,249.44,-450.377,0,0
157084,251.836,-449.627,0,0
157344,254.523,-448.558,0,0
157604,257.414,-447.512,0,0
157864,260.13,-446.427,0,0
158125,263.06,-444.815,0,0
158385,266.842,-443.195,0,0
158645,270.824,-442.012,0,0
158906,274.873,-441.14,0,0
159166,279.393,-440.477,0,0
159426,284.051,-440.555,0,0
159687,288.455,-440.936,0,0
159947,292.981,-441.78,0,0
160207,297.121,-443.437,0,0
160468,300.493,-445.229,0,0
160728,303.477,-447.183,0,0
160988,306.119,-449.14,0,0
161249,308.247,-451.24,0,0
161509,309.737,-453.301,0,0
161769,310.412,-454.803,0,0
162030,311.091,-455.476,0,0
162290,311.918,-455.869,0,0
162550,312.73,-455.974,0,0
162811,313.711,-455.766,0,0
163071,314.777,-455.422,0,0
163331,315.923,-454.882,0,0
163592,317.192,-454.08,0,0
163852,318.389,-452.993,0,0
164112,320.062,-451.639,0,0
164373,322.287,-450.085,0,0
164633,324.787,-448.543,0,0
164893,327.846,-447.302,0,0
165154,331.057,-446.449,0,0
165414,334.159,-445.678,0,0
165674,337.403,-444.979,0,0
165935,340.606,-444.139,0,0
166195,344.374,-443.262,0,0
166455,348.403,-442.303,0,0
166716,353.053,-441.696,0,0
166976,358.34,-441.464,0,0
167236,364.017,-442.002,0,0
167497,369.795,-443.199,0,0
167757,375.801,-445.133,0,0
168017,381.762,-447.823,0,0
168277,387.677,-451.658,0,0
168538,392.814,-456.506,0,0
168798,397.009,-461.694,0,0
169058,400.732,-466.987,0,0
169319,404.123,-472.642,0,0
169579,406.993,-478.842,0,0
169839,409.087,-485.332,0,0
170100,410.62,-491.914,0,0
170360.075,411.699,-498.916,0,0
170620.4,411.96,-506.485,0,0
170880.725,410.877,-514.388,0,0
171141.05,408.305,-522.023,0,0
171401.375,404.535,-528.881,0,0
171661.7,400.06,-534.722,0,0
171922.025,395.261,-539.829,0,0
172182.35,390.04,-544.379,0,0
172442.675,384.483,-548.304,0,0
172703.0,378.434,-551.688,0,0
172963.325,371.868,-554.285,0,0
173223.65,364.956,-555.833,0,0
173483.975,358.215,-556.308,0,0
173744.3,351.663,-556.091,0,0
174004.625,345.306,-555.06,0,0
174264.95,339.38,-553.474,0,0
174525.275,333.582,-551.382,0,0
174785.6,328.223,-548.558,0,0
175045.925,323.422,-545.404,0,0
175306.25,318.972,-542.032,0,0
175566.575,314.686,-538.333,0,0
175826.9,310.829,-534.029,0,0
176087.225,307.67,-529.506,0,0
176347.55,304.965,-524.952,0,0
176607.875,302.69,-520.314,0,0
176868.2,300.786,-515.62,0,0
177128.525,299.307,-510.918,0,0
177388.85,298.175,-506.236,0,0
177649.175,297.409,-501.605,0,0
177909.5,297.017,-497.071,0,0
178169.825,296.915,-492.823,0,0
178430.15,296.871,-488.827,0,0
178690.475,296.791,-484.884,0,0
178950.8,296.872,-480.854,0,0
179211.125,297.128,-476.891,0,0
179471.45,297.51,-472.982,0,0
179731.775,298.055,-469.143,0,0
179992.1,298.786,-465.362,0,0
180252.425,299.587,-461.79,0,0
180512.75,300.372,-458.365,0,0
180773.075,301.109,-454.905,0,0
181033.4,301.869,-451.505,0,0
181293.725,302.66,-448.086,0,0
181554.05,303.498,-444.726,0,0
181814.375,304.296,-441.375,0,0
182074.7,305.067,-438.04,0,0
182335.025,305.732,-434.59,0,0
182595.35,306.416,-431.024,0,0
182855.675,307.113,-427.352,0,0
183116.0,307.825,-423.556,0,0
183376.325,308.579,-419.551,0,0
183636.65,309.463,-415.38,0,0
183896.975,310.502,-411.023,0,0
184157.3,311.748,-406.575,0,0
184417.625,313.147,-402.03,0,0
184677.95,314.722,-397.405,0,0
184938.275,316.483,-392.73,0,0
185198.6,318.356,-387.965,0,0
185458.925,320.401,-383.076,0,0
185719.25,322.693,-378.098,0,0
185979.575,325.245,-373.044,0,0
186239.9,328.056,-367.943,0,0
186500,330.979,-362.926,0,0
186761,334.166,-357.836,0,0
187021,337.64,-352.704,0,0
187281,341.227,-347.557,0,0
187542,345.027,-342.417,0,0
187802,349.07,-337.183,0,0
188062,353.441,-331.919,0,0
188322,358.133,-326.658,0,0
188583,363.077,-321.457,0,0
188843,368.283,-316.291,0,0
189103,373.854,-311.071,0,0
189364,379.748,-306.039,0,0
189624,385.863,-301.137,0,0
189884,392.329,-296.179,0,0
190145,399.2,-291.291,0,0
190405,406.497,-286.562,0,0
190665,414.171,-282.09,0,0
190926,422.157,-277.929,0,0
191186,430.417,-274.016,0,0
191446,438.999,-270.324,0,0
191707,447.806,-266.943,0,0
191967,456.994,-263.815,0,0
192227,466.493,-261.07,0,0
192488,476.155,-258.717,0,0
192748,485.905,-256.649,0,0
193008,496.048,-255.058,0,0
193269,506.295,-253.743,0,0
193529,516.776,-252.944,0,0
193789,527.209,-252.563,0,0
194050,537.706,-252.436,0,0
194310,548.27,-252.625,0,0
194570,558.987,-253.08,0,0
194831,569.887,-253.929,0,0
195091,580.877,-255.237,0,0
195351,591.849,-256.954,0,0
195612,602.792,-258.893,0,0
195872,613.85,-261.056,0,0
196132,625.094,-263.519,0,0
196393,636.531,-266.3,0,0
196653,648.217,-269.483,0,0
196913,660.101,-273.098,0,0
197174,672.284,-277.156,0,0
197434,684.743,-281.88,0,0
197694,697.43,-287.325,0,0
197955,710.251,-293.701,0,0
198215,722.943,-300.895,0,0
198475,735.538,-308.949,0,0
198735,747.984,-317.778,0,0
198996,760.203,-327.492,0,0
199256,772.187,-338.127,0,0
199516,783.735,-349.912,0,0
199777,794.461,-362.612,0,0
200037,804.38,-376.221,0,0
200297,813.358,-390.272,0,0
200558,821.468,-404.907,0,0
200818,828.64,-419.983,0,0
201078,834.89,-435.463,0,0
201339,840.134,-451.319,0,0
201599,844.247,-467.309,0,0
201859,847.247,-483.25,0,0
202120,849.278,-499.23,0,0
202380.025,850.54,-514.821,0,0
202640.35,850.528,-530.233,0,0
202900.675,849.487,-545.179,0,0
203161.0,847.902,-558.887,0,0
203421.325,846.496,-572.02,0,0
203681.65,845.168,-585.26,0,0
203941.975,843.107,-598.579,0,0
204202.3,840.752,-611.674,0,0
204462.625,837.75,-624.488,0,0
204722.95,834.3,-636.879,0,0
204983.275,830.75,-648.803,0,0
205243.6,827.192,-660.828,0,0
205503.925,822.92,-672.896,0,0
205764.25,817.955,-684.472,0,0
206024.575,813.017,-695.41,0,0
206284.9,807.843,-706.195,0,0
206545.225,802.541,-716.75,0,0
206805.55,797.308,-727.134,0,0
207065.875,791.788,-737.744,0,0
207326.2,786.117,-748.557,0,0
207586.525,779.709,-759.611,0,0
207846.85,772.137,-770.763,0,0
208107.175,763.53,-781.479,0,0
208367.5,753.953,-791.362,0,0
208627.825,743.636,-800.226,0,0
208888.15,732.995,-807.998,0,0
209148.475,722.129,-814.849,0,0
209408.8,711.119,-820.574,0,0
209669.125,700.428,-825.271,0,0
209929.45,690.062,-829.038,0,0
210189.775,679.832,-832.465,0,0
210450.1,670.197,-835.151,0,0
210710.425,660.794,-837.475,0,0
210970.75,651.784,-839.376,0,0
211231.075,642.86,-840.958,0,0
211491.4,634.226,-841.991,0,0
211751.725,625.894,-842.555,0,0
212012.05,617.938,-842.718,0,0
212272.375,610.472,-842.357,0,0
212532.7,603.628,-841.765,0,0
212793.025,597.294,-841.107,0,0
213053.35,591.397,-840.425,0,0
213313.675,585.721,-839.686,0,0
213574.0,580.49,-838.775,0,0
213834.325,575.742,-837.585,0,0
214094.65,571.629,-836.399,0,0
214354.975,568.218,-835.532,0,0
214615.3,565.342,-834.876,0,0
214875.625,562.819,-834.706,0,0
215135.95,560.491,-835.29,0,0
215396.275,558.156,-836.371,0,0
215656.6,555.618,-837.826,0,0
215916.925,552.878,-839.597,0,0
216177.25,549.948,-841.57,0,0
216437.575,546.766,-843.738,0,0
216697.9,543.276,-845.979,0,0
216958.225,539.397,-848.066,0,0
217218.55,535.443,-849.956,0,0
217478.875,531.506,-851.663,0,0
217739.2,527.558,-853.43,0,0
217999.525,523.579,-855.18,0,0
218259.85,519.547,-856.9,0,0
218520,515.42,-858.595,0,0
218780,511.185,-860.167,0,0
219041,506.98,-861.501,0,0
219301,503.107,-862.877,0,0
219561,499.196,-864.424,0,0
219822,495.273,-866.087,0,0
220082,491.163,-867.971,0,0
220342,486.875,-869.843,0,0
220603,482.342,-871.648,0,0
220863,477.614,-873.343,0,0
221123,472.782,-874.917,0,0
221384,467.853,-876.295,0,0
221644,462.908,-877.619,0,0
221904,457.726,-878.859,0,0
222165,452.496,-879.808,0,0
222425,447.282,-880.515,0,0
222685,442.084,-880.793,0,0
222946,437.274,-881.227,0,0
223206,432.43,-881.739,0,0
223466,427.569,-882.181,0,0
223727,422.732,-882.63,0,0
223987,417.743,-883.068,0,0
224247,412.756,-883.356,0,0
224508,407.849,-883.799,0,0
224768,402.835,-884.133,0,0
225028,397.673,-884.389,0,0
225289,392.515,-884.576,0,0
225549,387.025,-884.798,0,0
225809,381.362,-884.902,0,0
226070,375.516,-884.752,0,0
226330,369.625,-884.335,0,0
226590,363.558,-883.491,0,0
226851,357.564,-882.356,0,0
227111,351.775,-880.902,0,0
227371,346.114,-879.388,0,0
227632,340.433,-877.757,0,0
227892,334.79,-875.986,0,0
228152,329.05,-873.928,0,0
228413,323.469,-871.511,0,0
228673,317.88,-868.928,0,0
228933,312.56,-865.943,0,0
229193,307.493,-862.797,0,0
229454,302.487,-859.418,0,0
229714,297.876,-855.845,0,0
229974,293.554,-852.116,0,0
230235,289.575,-848.29,0,0
230495,285.872,-844.597,0,0
230755,282.379,-840.751,0,0
231016,279.14,-836.977,0,0
231276,276.099,-833.27,0,0
231536,273.211,-829.63,0,0
231797,270.456,-826.085,0,0
232057,267.792,-822.564,0,0
232317,265.248,-818.974,0,0
232578,262.785,-815.456,0,0
232838,260.494,-811.91,0,0
233098,258.337,-808.363,0,0
233359,256.364,-804.743,0,0
233619,254.618,-801.248,0,0
233879,253.03,-797.884,0,0
234140,251.552,-794.656,0,0
234400,250.125,-791.472,0,0
234660.3,248.646,-788.307,0,0
234920.625,247.384,-785.242,0,0
235180.95,246.278,-782.122,0,0
235441.275,245.2,-779.201,0,0
235701.6,244.259,-776.475,0,0
235961.925,243.306,-773.799,0,0
236222.25,242.253,-771.255,0,0
236482.575,241.171,-768.67,0,0
236742.9,240.114,-766.05,0,0
237003.225,239.172,-763.4,0,0
237263.55,238.298,-760.747,0,0
237523.875,237.514,-758.07,0,0
237784.2,236.88,-755.421,0,0
238044.525,236.37,-752.859,0,0
238304.85,236.07,-750.389,0,0
238565.175,235.849,-748.083,0,0
238825.5,235.746,-745.981,0,0
239085.825,235.537,-744.006,0,0
239346.15,235.296,-742.247,0,0
239606.475,235.067,-740.544,0,0
239866.8,234.837,-738.927,0,0
240127.125,234.542,-737.45,0,0
240387.45,234.306,-735.99,0,0
240647.775,233.879,-734.693,0,0
240908.1,233.449,-733.449,0,0
241168.425,232.891,-732.231,0,0
241428.75,232.223,-731.117,0,0
241689.075,231.543,-729.975,0,0
241949.4,230.858,-728.663,0,0
242209.725,230.143,-727.611,0,0
242470.05,229.403,-726.486,0,0
242730.375,228.464,-725.449,0,0
242990.7,227.548,-724.477,0,0
243251.025,226.466,-723.289,0,0
243511.35,225.36,-722.116,0,0
243771.675,224.328,-721.029,0,0
244032.0,223.141,-719.891,0,0
244292.325,221.836,-718.772,0,0
244552.65,220.443,-717.431,0,0
244812.975,219.036,-716.062,0,0
245073.3,217.61,-714.564,0,0
245333.625,216.214,-712.941,0,0
245593.95,214.843,-711.199,0,0
245854.275,213.498,-709.479,0,0
246114.6,212.214,-707.511,0,0
246374.925,211.024,-705.545,0,0
246635.25,210.023,-703.487,0,0
246895.575,209.055,-701.429,0,0
247155.9,208.202,-699.403,0,0
247416.225,207.483,-697.24,0,0
247676.55,207.011,-695.225,0,0
247936.875,206.564,-693.327,0,0
248197.2,206.168,-691.637,0,0
248457.525,205.734,-690.027,0,0
248717.85,205.237,-688.49,0,0
248978.175,204.653,-687.061,0,0
249238.5,204.009,-685.645,0,0
249498.825,203.283,-684.134,0,0
249759.15,202.505,-682.61,0,0
250019.475,201.785,-681.108,0,0
250279.8,201.015,-679.5,0,0
250540,200.222,-677.778,0,0
250800,199.531,-676.284,0,0
251061,198.778,-674.884,0,0
251321,197.962,-673.408,0,0
251581,197.036,-671.995,0,0
251842,195.998,-670.51,0,0
252102,194.771,-668.962,0,0
252362,193.495,-667.381,0,0
252623,192.062,-665.575,0,0
252883,190.49,-663.56,0,0
253143,188.947,-661.195,0,0
253404,187.513,-658.602,0,0
253664,186.282,-655.773,0,0
253924,185.298,-652.815,0,0
254185,184.485,-649.847,0,0
254445,183.782,-646.863,0,0
254705,183.128,-643.843,0,0
254966,182.501,-640.74,0,0
255226,182.009,-637.514,0,0
255486,181.688,-634.158,0,0
255747,181.45,-630.679,0,0
256007,181.424,-627.056,0,0
256267,181.667,-623.288,0,0
256528,182.21,-619.519,0,0
256788,182.996,-615.78,0,0
257048,184.055,-612.128,0,0
257309,185.221,-608.548,0,0
257569,186.558,-605.002,0,0
257829,188.103,-601.415,0,0
258090,189.898,-597.91,0,0
258350,191.914,-594.499,0,0
258610,194.104,-591.144,0,0
258871,196.49,-587.853,0,0
259131,199.165,-584.596,0,0
259391,202.172,-581.475,0,0
259651,205.543,-578.623,0,0
259912,209.122,-576.117,0,0
260172,212.757,-573.862,0,0
260432,216.535,-571.915,0,0
260693,220.423,-570.159,0,0
260953,224.47,-568.675,0,0
261213,228.624,-567.548,0,0
261474,232.82,-566.777,0,0
261734,236.961,-566.315,0,0
261994,241.038,-566.133,0,0
262255,245.011,-566.149,0,0
262515,248.985,-566.328,0,0
262775,253.034,-566.676,0,0
263036,257.125,-567.248,0,0
263296,261.32,-568.198,0,0
263556,265.422,-569.552,0,0
263817,269.78,-571.253,0,0
264077,273.513,-573.587,0,0
264337,276.929,-575.914,0,0
264598,280.253,-578.348,0,0
264858,283.483,-581.001,0,0
265118,286.514,-583.951,0,0
265379,289.362,-587.121,0,0
265639,291.957,-590.5,0,0
265899,294.37,-594.009,0,0
266160,296.704,-597.827,0,0
266420,298.653,-602.182,0,0
266680.25,300.177,-606.629,0,0
266940.575,301.104,-611.292,0,0
267200.9,301.439,-615.941,0,0
267461.225,301.291,-620.42,0,0
267721.55,300.732,-624.522,0,0
267981.875,300.142,-628.585,0,0
268242.2,299.351,-632.479,0,0
268502.525,298.347,-636.341,0,0
268762.85,297.129,-640.191,0,0
269023.175,295.65,-644.032,0,0
269283.5,293.822,-647.948,0,0
269543.825,291.393,-651.77,0,0
269804.15,288.32,-655.175,0,0
270064.475,284.855,-657.87,0,0
270324.8,281.456,-659.841,0,0
270585.125,278.208,-661.163,0,0
270845.45,275.35,-662.11,0,0
271105.775,272.859,-662.883,0,0
271366.1,270.765,-663.521,0,0
271626.425,269.013,-664.259,0,0
271886.75,267.548,-665.254,0,0
272147.075,266.082,-666.449,0,0
272407.4,264.584,-667.944,0,0
272667.725,262.853,-669.631,0,0
272928.05,260.89,-671.374,0,0
273188.375,258.657,-672.992,0,0
273448.7,256.378,-674.511,0,0
273709.025,254.054,-676.014,0,0
273969.35,251.644,-677.617,0,0
274229.675,249.011,-679.196,0,0
274490.0,246.153,-680.792,0,0
274750.325,243.028,-682.324,0,0
275010.65,239.543,-683.69,0,0
275270.975,235.774,-684.762,0,0
275531.3,231.891,-685.6,0,0
275791.625,227.821,-686.06,0,0
276051.95,223.628,-686.199,0,0
276312.275,219.366,-685.92,0,0
276572.6,215.125,-685.282,0,0
276832.925,210.982,-684.236,0,0
277093.25,206.962,-682.827,0,0
277353.575,203.117,-681.112,0,0
277613.9,199.425,-679.105,0,0
277874.225,195.952,-676.788,0,0
278134.55,192.768,-674.157,0,0
278394.875,189.948,-671.315,0,0
278655.2,187.512,-668.294,0,0
278915.525,185.45,-665.171,0,0
279175.85,183.827,-661.985,0,0
279436.175,182.584,-658.853,0,0
279696.5,181.772,-655.843,0,0
279956.825,181.313,-653.096,0,0
280217.15,181.03,-650.653,0,0
280477.475,180.968,-648.508,0,0
280737.8,180.905,-646.65,0,0
280998.125,180.841,-645.073,0,0
281258.45,180.647,-643.651,0,0
281518.775,180.377,-642.395,0,0
281779.1,179.945,-641.217,0,0
282039.425,179.326,-639.956,0,0
282299.75,178.63,-638.543,0,0
282560,178.01,-636.908,0,0
282820,177.613,-635.146,0,0
283081,177.558,-633.394,0,0
283341,177.772,-631.817,0,0
283601,178.151,-630.573,0,0
283862,178.494,-629.669,0,0
284122,178.676,-629.02,0,0
284382,178.721,-628.548,0,0
284643,178.483,-628.063,0,0
284903,178.15,-627.524,0,0
285163,177.768,-626.959,0,0
285424,177.407,-626.39,0,0
285684,176.974,-625.918,0,0
285944,176.423,-625.522,0,0
286205,175.696,-625.182,0,0
286465,174.701,-624.781,0,0
286725,173.473,-624.157,0,0
286986,172.164,-623.258,0,0
287246,170.818,-622.123,0,0
287506,169.495,-620.713,0,0
287767,168.248,-619.057,0,0
288027,167.123,-617.111,0,0
288287,166.226,-614.961,0,0
288548,165.541,-612.599,0,0
288808,165.145,-610.068,0,0
289068,165.099,-607.396,0,0
289329,165.429,-604.642,0,0
289589,166.206,-601.901,0,0
289849,167.422,-599.325,0,0
290109,169.071,-596.934,0,0
290370,171.072,-594.902,0,0
290630,173.271,-593.231,0,0
290890,175.683,-591.935,0,0
291151,178.237,-591.065,0,0
291411,180.816,-590.607,0,0
291671,183.389,-590.587,0,0
291932,185.844,-590.947,0,0
292192,188.152,-591.621,0,0
292452,190.309,-592.577,0,0
292713,192.345,-593.764,0,0
292973,194.253,-595.259,0,0
293233,195.989,-597.066,0,0
293494,197.487,-599.196,0,0
293754,198.59,-601.62,0,0
294014,199.322,-604.182,0,0
294275,199.635,-606.854,0,0
294535,199.631,-609.579,0,0
294795,199.193,-612.346,0,0
295056,198.336,-615.096,0,0
295316,197.059,-617.67,0,0
295576,195.464,-620.026,0,0
295837,193.572,-622.14,0,0
296097,191.424,-623.961,0,0
296357,189.134,-625.494,0,0
296618,186.727,-626.724,0,0
296878,184.273,-627.653,0,0
297138,181.813,-628.303,0,0
297399,179.382,-628.701,0,0
297659,177.056,-628.883,0,0
297919,174.813,-628.889,0,0
298180,172.667,-628.776,0,0
298440,170.647,-628.534,0,0
298700.2,168.695,-628.209,0,0
298960.525,166.908,-627.853,0,0
299220.85,165.141,-627.507,0,0
299481.175,163.423,-627.119,0,0
299741.5,161.729,-626.701,0,0
300001.825,160.084,-626.265,0,0
300262.15,158.484,-625.822,0,0
300522.475,156.841,-625.393,0,0
300782.8,155.169,-624.905,0,0
301043.125,153.491,-624.362,0,0
301303.45,151.811,-623.756,0,0
301563.775,150.118,-623.073,0,0
301824.1,148.464,-622.281,0,0
302084.425,146.844,-621.394,0,0
302344.75,145.292,-620.442,0,0
302605.075,143.841,-619.423,0,0
302865.4,142.483,-618.406,0,0
303125.725,141.188,-617.405,0,0
303386.05,139.887,-616.409,0,0
303646.375,138.569,-615.411,0,0
303906.7,137.286,-614.3,0,0
304167.025,136.042,-613.135,0,0
304427.35,134.909,-611.916,0,0
304687.675,133.838,-610.692,0,0
304948.0,132.834,-609.458,0,0
305208.325,131.881,-608.203,0,0
305468.65,131.027,-606.958,0,0
305728.975,130.216,-605.722,0,0
305989.3,129.48,-604.495,0,0
306249.625,128.815,-603.269,0,0
306509.95,128.198,-602.068,0,0
306770.275,127.645,-600.885,0,0
307030.6,127.18,-599.762,0,0
307290.925,126.74,-598.695,0,0
307551.25,126.361,-597.71,0,0
307811.575,125.987,-596.782,0,0
308071.9,125.628,-595.928,0,0
308332.225,125.25,-595.128,0,0
308592.55,124.816,-594.378,0,0
308852.875,124.392,-593.655,0,0
309113.2,123.947,-592.95,0,0
309373.525,123.456,-592.294,0,0
309633.85,122.957,-591.646,0,0
309894.175,122.434,-590.985,0,0
310154.5,121.887,-590.352,0,0
310414.825,121.295,-589.749,0,0
310675.15,120.68,-589.114,0,0
310935.475,120.033,-588.487,0,0
311195.8,119.323,-587.846,0,0
311456.125,118.596,-587.129,0,0
311716.45,117.849,-586.381,0,0
311976.775,117.128,-585.576,0,0
312237.1,116.435,-584.73,0,0
312497.425,115.781,-583.87,0,0
312757.75,115.151,-582.976,0,0
313018.075,114.547,-582.064,0,0
313278.4,113.977,-581.153,0,0
313538.725,113.443,-580.213,0,0
313799.05,112.988,-579.294,0,0
314059.375,112.511,-578.375,0,0
314319.7,112.118,-577.466,0,0
314580,111.798,-576.534,0,0
314840,111.363,-575.709,0,0
315101,111.095,-574.912,0,0
315361,110.823,-574.099,0,0
315621,110.546,-573.324,0,0
315882,110.335,-572.621,0,0
316142,110.082,-571.929,0,0
316402,109.817,-571.289,0,0
316663,109.59,-570.735,0,0
316923,109.341,-570.084,0,0
317183,109.097,-569.636,0,0
317444,108.84,-569.205,0,0
317704,108.584,-568.717,0,0
317964,108.211,-568.333,0,0
318225,107.928,-568.061,0,0
318485,107.476,-567.773,0,0
318745,107.097,-567.412,0,0
319006,106.531,-567.188,0,0
319266,106.075,-566.85,0,0
319526,105.503,-566.626,0,0
319787,104.878,-566.357,0,0
320047,104.136,-566.221,0,0
320307,103.367,-565.999,0,0
320567,102.619,-565.719,0,0
320828,101.732,-565.545,0,0
321088,100.722,-565.338,0,0
321348,99.6518,-565.051,0,0
321609,98.4577,-564.683,0,0
321869,97.1892,-564.256,0,0
322129,95.9429,-563.802,0,0
322390,94.554,-563.177,0,0
322650,93.1155,-562.451,0,0
322910,91.6996,-561.504,0,0
323171,90.2214,-560.398,0,0
323431,88.9195,-559.198,0,0
323691,87.7669,-557.851,0,0
323952,86.6382,-556.405,0,0
324212,85.6198,-554.932,0,0
324472,84.7691,-553.375,0,0
324733,84.0991,-551.955,0,0
324993,83.388,-550.463,0,0
325253,82.8715,-549.107,0,0
325514,82.2398,-547.749,0,0
325774,81.7391,-546.361,0,0
326034,81.1651,-545.019,0,0
326295,80.6546,-543.759,0,0
326555,80.1708,-542.45,0,0
326815,79.6726,-541.103,0,0
327076,79.1941,-539.781,0,0
327336,78.7851,-538.413,0,0
327596,78.4456,-537.043,0,0
327857,77.9615,-535.666,0,0
328117,77.7497,-534.318,0,0
328377,77.3774,-532.93,0,0
328638,77.1685,-531.518,0,0
328898,76.8953,-530.083,0,0
329158,76.717,-528.662,0,0
329419,76.6727,-527.157,0,0
329679,76.6252,-525.729,0,0
329939,76.7352,-524.341,0,0
330200,76.9106,-522.933,0,0
330460,77.1448,-521.646,0,0
330720.15,77.388,-520.458,0,0
330980.475,77.707,-519.325,0,0
331240.8,77.9371,-518.267,0,0
331501.125,78.3109,-517.284,0,0
331761.45,78.6761,-516.421,0,0
332021.775,78.9605,-515.606,0,0
332282.1,79.1964,-514.812,0,0
332542.425,79.4101,-514.102,0,0
332802.75,79.5678,-513.488,0,0
333063.075,79.7272,-512.818,0,0
333323.4,79.8776,-512.282,0,0
333583.725,79.8326,-511.724,0,0
333844.05,79.8076,-511.192,0,0
334104.375,79.6904,-510.647,0,0
334364.7,79.526,-510.055,0,0
334625.025,79.2826,-509.51,0,0
334885.35,79.0352,-508.814,0,0
335145.675,78.7781,-508.21,0,0
335406.0,78.4773,-507.465,0,0
335666.325,78.153,-506.685,0,0
335926.65,77.7756,-505.995,0,0
336186.975,77.4348,-505.141,0,0
336447.3,77.0395,-504.281,0,0
336707.625,76.6447,-503.273,0,0
336967.95,76.2393,-502.363,0,0
337228.275,75.9499,-501.27,0,0
337488.6,75.6278,-500.173,0,0
337748.925,75.3745,-498.991,0,0
338009.25,75.1708,-497.729,0,0
338269.575,75.0409,-496.513,0,0
338529.9,74.9591,-495.271,0,0
338790.225,74.9346,-494.033,0,0
339050.55,75.0163,-492.741,0,0
339310.875,75.0434,-491.446,0,0
339571.2,75.308,-490.156,0,0
339831.525,75.516,-488.914,0,0
340091.85,75.8335,-487.682,0,0
340352.175,76.1493,-486.402,0,0
340612.5,76.5639,-485.19,0,0
340872.825,77.0325,-483.986,0,0
341133.15,77.6228,-482.841,0,0
341393.475,78.2436,-481.698,0,0
341653.8,79.0291,-480.666,0,0
341914.125,79.8173,-479.715,0,0
342174.45,80.6606,-478.791,0,0
342434.775,81.5574,-478.038,0,0
342695.1,82.5535,-477.414,0,0
342955.425,83.4746,-476.891,0,0
343215.75,84.3972,-476.52,0,0
343476.075,85.3017,-476.337,0,0
343736.4,86.074,-476.166,0,0
343996.725,86.8143,-476.139,0,0
344257.05,87.3869,-476.191,0,0
344517.375,87.9375,-476.281,0,0
344777.7,88.4183,-476.366,0,0
345038.025,88.794,-476.51,0,0
345298.35,89.0344,-476.616,0,0
345558.675,89.1584,-476.813,0,0
345819.0,89.2626,-476.923,0,0
346079.325,89.2815,-476.996,0,0
346339.65,89.278,-477.132,0,0
346599.975,89.1702,-477.172,0,0
346860,89.057,-477.286,0,0
347121,88.8872,-477.278,0,0
347381,88.6474,-477.221,0,0
347641,88.3807,-477.234,0,0
347902,88.0737,-477.144,0,0
348162,87.7253,-476.986,0,0
348422,87.3881,-476.916,0,0
348683,87.003,-476.674,0,0
348943,86.6127,-476.48,0,0
349203,86.238,-476.162,0,0
349464,85.736,-475.838,0,0
349724,85.3443,-475.496,0,0
349984,84.9381,-475.083,0,0
350245,84.4889,-474.693,0,0
350505,84.0517,-474.211,0,0
350765,83.5648,-473.669,0,0
351025,83.2017,-473.124,0,0
351286,82.8106,-472.516,0,0
351546,82.3656,-471.913,0,0
351806,82.0633,-471.26,0,0
352067,81.6531,-470.592,0,0
352327,81.3572,-469.914,0,0
352587,81.0373,-469.119,0,0
352848,80.765,-468.361,0,0
353108,80.5518,-467.595,0,0
353368,80.392,-466.767,0,0
353629,80.2586,-465.883,0,0
353889,80.2733,-465.036,0,0
354149,80.3013,-464.263,0,0
354410,80.3831,-463.5,0,0
354670,80.5316,-462.842,0,0
354930,80.6779,-462.173,0,0
355191,80.8059,-461.636,0,0
355451,80.966,-461.215,0,0
355711,81.0237,-460.736,0,0
355972,81.0681,-460.296,0,0
356232,81.0428,-459.896,0,0
356492,81.0552,-459.492,0,0
356753,80.9724,-459.125,0,0
357013,80.8462,-458.767,0,0
357273,80.7771,-458.366,0,0
357534,80.5635,-457.98,0,0
357794,80.3337,-457.568,0,0
358054,80.0915,-457.174,0,0
358315,79.768,-456.701,0,0
358575,79.4121,-456.18,0,0
358835,79.0676,-455.593,0,0
359096,78.6312,-454.936,0,0
359356,78.2771,-454.136,0,0
359616,77.9558,-453.329,0,0
359877,77.7566,-452.422,0,0
360137,77.6777,-451.537,0,0
360397,77.5278,-450.602,0,0
360658,77.5268,-449.75,0,0
360918,77.4928,-448.852,0,0
361178,77.5473,-448.019,0,0
361438,77.6246,-447.201,0,0
361699,77.7182,-446.283,0,0
361959,77.8219,-445.543,0,0
362219,78.0636,-444.74,0,0
362480,78.246,-443.921,0,0
362740.1,78.4605,-443.184,0,0
363000.425,78.6868,-442.528,0,0
363260.75,78.9437,-441.912,0,0
363521.075,79.2272,-441.276,0,0
363781.4,79.4556,-440.741,0,0
364041.725,79.6517,-440.294,0,0
364302.05,79.7522,-439.744,0,0
364562.375,79.8674,-439.307,0,0
364822.7,79.8659,-438.77,0,0
365083.025,79.8251,-438.198,0,0
365343.35,79.7949,-437.593,0,0
365603.675,79.7729,-436.93,0,0
365864.0,79.7129,-436.178,0,0
366124.325,79.7271,-435.398,0,0
366384.65,79.7616,-434.556,0,0
366644.975,79.8667,-433.697,0,0
366905.3,80.01,-432.774,0,0
367165.625,80.18,-431.808,0,0
367425.95,80.4897,-430.871,0,0
367686.275,80.7808,-429.944,0,0
367946.6,81.2171,-428.958,0,0
368206.925,81.6664,-428.03,0,0
368467.25,82.2338,-427.139,0,0
368727.575,82.9074,-426.272,0,0
368987.9,83.5776,-425.387,0,0
369248.225,84.3239,-424.634,0,0
369508.55,85.1258,-423.942,0,0
369768.875,85.9766,-423.246,0,0
370029.2,86.8827,-422.646,0,0
370289.525,87.8191,-422.077,0,0
370549.85,88.7942,-421.629,0,0
370810.175,89.8378,-421.238,0,0
371070.5,90.9125,-420.921,0,0
371330.825,92.0086,-420.81,0,0
371591.15,93.0676,-420.712,0,0
371851.475,94.1917,-420.733,0,0
372111.8,95.2332,-420.95,0,0
372372.125,96.2019,-421.234,0,0
372632.45,97.1695,-421.76,0,0
372892.775,98.0471,-422.306,0,0
373153.1,98.747,-422.914,0,0
373413.425,99.2962,-423.693,0,0
373673.75,99.725,-424.451,0,0
373934.075,100.006,-425.192,0,0
374194.4,100.121,-425.905,0,0
374454.725,100.173,-426.585,0,0
374715.05,100.153,-427.169,0,0
374975.375,100.003,-427.715,0,0
375235.7,99.7947,-428.202,0,0
375496.025,99.5953,-428.624,0,0
375756.35,99.3803,-428.926,0,0
376016.675,99.128,-429.257,0,0
376277.0,98.8747,-429.516,0,0
376537.325,98.633,-429.744,0,0
376797.65,98.3631,-429.91,0,0
377057.975,98.087,-430.07,0,0
377318.3,97.8331,-430.242,0,0
377578.625,97.5822,-430.321,0,0
377838.95,97.3324,-430.473,0,0
378099.275,97.0367,-430.495,0,0
378359.6,96.8271,-430.611,0,0
378619.925,96.5656,-430.708,0,0
378880,96.2907,-430.804,0,0
379141,95.9873,-430.869,0,0
379401,95.724,-430.882,0,0
379661,95.4439,-430.907,0,0
379922,95.116,-430.919,0,0
380182,94.8242,-430.901,0,0
380442,94.4524,-430.916,0,0
380703,94.1762,-430.883,0,0
380963,93.8327,-430.928,0,0
381223,93.4379,-430.819,0,0
381483,93.044,-430.681,0,0
381744,92.7186,-430.476,0,0
382004,92.4801,-430.219,0,0
382264,92.3401,-429.886,0,0
382525,92.2681,-429.694,0,0
382785,92.3414,-429.53,0,0
383045,92.4503,-429.526,0,0
383306,92.5476,-429.659,0,0
383566,92.6703,-429.909,0,0
383826,92.5673,-430.337,0,0
384087,92.4149,-430.789,0,0
384347,92.0716,-431.368,0,0
384607,91.6346,-431.921,0,0
384868,90.9304,-432.385,0,0
385128,90.2168,-432.789,0,0
385388,89.2901,-433.194,0,0
385649,88.354,-433.385,0,0
385909,87.3377,-433.548,0,0
386169,86.2518,-433.564,0,0
386430,85.1018,-433.424,0,0
386690,84.0094,-433.161,0,0
386950,82.9135,-432.814,0,0
387211,81.8354,-432.313,0,0
387471,80.7864,-431.738,0,0
387731,79.8471,-431.058,0,0
387992,78.9332,-430.245,0,0
388252,78.1516,-429.366,0,0
388512,77.4758,-428.371,0,0
388773,76.9408,-427.354,0,0
389033,76.5866,-426.388,0,0
389293,76.3358,-425.455,0,0
389554,76.1678,-424.508,0,0
389814,76.1133,-423.66,0,0
390074,76.1432,-422.873,0,0
390335,76.244,-422.209,0,0
390595,76.4424,-421.657,0,0
390855,76.6516,-421.217,0,0
391116,76.8208,-420.903,0,0
391376,76.9712,-420.815,0,0
391636,77.0565,-420.773,0,0
391896,77.0048,-420.844,0,0
392157,76.8109,-420.931,0,0
392417,76.5529,-421.173,0,0
392677,76.1028,-421.308,0,0
392938,75.5095,-421.476,0,0
393198,74.8297,-421.5,0,0
393458,74.0143,-421.474,0,0
393719,73.1719,-421.338,0,0
393979,72.213,-421.099,0,0
394239,71.2834,-420.764,0,0
394500,70.35,-420.299,0,0
394760.05,69.4707,-419.74,0,0
395020.375,68.6357,-419.124,0,0
395280.7,67.767,-418.379,0,0
395541.025,67.0199,-417.62,0,0
395801.35,66.2363,-416.818,0,0
396061.675,65.6061,-415.955,0,0
396322.0,64.966,-415.09,0,0
396582.325,64.3945,-414.152,0,0
396842.65,63.8669,-413.231,0,0
397102.975,63.3464,-412.337,0,0
397363.3,62.9391,-411.426,0,0
397623.625,62.4846,-410.494,0,0
397883.95,62.1219,-409.541,0,0
398144.275,61.7607,-408.612,0,0
398404.6,61.4196,-407.67,0,0
398664.925,61.0829,-406.754,0,0
398925.25,60.7179,-405.799,0,0
399185.575,60.4724,-404.835,0,0
399445.9,60.2348,-403.858,0,0
399706.225,59.9651,-402.898,0,0
399966.55,59.7952,-401.863,0,0
400006.6,59.7853,-401.78,0,0