File: Accelerated corrosion test data/2025-10-05_18-00-02/sample_7.csv
Frequency (Hz),Impedance (ohms),Phase (Radians),Temperature (C),Humidity (%)
10000.0,275.948,-12040.2,0,0
10260.325,277.37,-11750.7,0,0
10520.65,259.844,-11451.7,0,0
10780.975,254.096,-11172.2,0,0
11041.3,251.012,-10905.1,0,0
11301.625,248.109,-10651.3,0,0
11561.95,249.562,-10403.7,0,0
11822.275,260.369,-10175,0,0
12082.6,267.165,-9958.52,0,0
12342.925,322.703,-9768.21,0,0
12603.25,263.356,-9612.25,0,0
12863.575,268.196,-9403,0,0
13123.9,240.788,-9237.1,0,0
13384.225,234.081,-9059.65,0,0
13644.55,222.249,-8876.59,0,0
13904.875,209.849,-8716.74,0,0
14165.2,206.304,-8546.53,0,0
14425.525,211.042,-8407.94,0,0
14685.8,204.646,-8253.89,0,0
14946.175,199.643,-8108.04,0,0
15206.5,199.999,-7978.22,0,0
15466.825,185.683,-7838.71,0,0
15727.15,186.585,-7710.34,0,0
15987.5,181.188,-7581.85,0,0
16247.8,180.985,-7461.56,0,0
16508.125,173.259,-7342,0,0
16768.45,172.652,-7223.91,0,0
17028.775,172.652,-7114.08,0,0
17289.1,169.419,-7006.86,0,0
17549.425,168.277,-6897.46,0,0
17809.75,169.95,-6789.29,0,0
18070.075,172.922,-6693.72,0,0
18330.4,178.565,-6588.34,0,0
18590.725,199.484,-6501.74,0,0
18851.05,195.36,-6438.67,0,0
19111.375,185.549,-6357.08,0,0
19371.7,203.643,-6272.39,0,0
19632.025,173.119,-6210.4,0,0
19892.35,158.574,-6114.17,0,0
20152.675,168.868,-6028.23,0,0
20413.0,169.495,-5952.19,0,0
20673.3,170.312,-5877.98,0,0
20933.65,178.202,-5817.41,0,0
21193.975,161.833,-5758.5,0,0
21454.3,153.041,-5684.37,0,0
21714.625,154.979,-5612.82,0,0
21974.9,148.533,-5551.99,0,0
22235.275,142.21,-5484.5,0,0
22495.6,141.091,-5419.2,0,0
22755.925,136.121,-5358.24,0,0
23016.25,132.041,-5295.45,0,0
23276.6,129.692,-5232.82,0,0
23536.9,130.147,-5172.11,0,0
23797.225,130.161,-5117.15,0,0
24057.55,126.232,-5060.94,0,0
24317.875,124.106,-5003.87,0,0
24578.2,124.887,-4948.54,0,0
24838.525,123.265,-4895.89,0,0
25098.85,123.104,-4844.37,0,0
25359.175,121.81,-4792.12,0,0
25619.5,120.443,-4740.93,0,0
25879.8,120.892,-4690.89,0,0
26140.1,120.031,-4639.74,0,0
26400.5,123.86,-4590.5,0,0
26660.8,125.248,-4546.5,0,0
26921.1,125.085,-4497.78,0,0
27181.4,130.183,-4449.34,0,0
27441.8,135.961,-4405.79,0,0
27702.1,145.956,-4357.68,0,0
27962.4,160.512,-4317.56,0,0
28222.7,181.551,-4293.36,0,0
28483.1,178.411,-4278.03,0,0
28743.4,175.135,-4255.78,0,0
29003.7,158.296,-4228.12,0,0
29264,144.499,-4191.82,0,0
29524.4,136.661,-4151.39,0,0
29784.7,133.137,-4112.81,0,0
30045,128.774,-4071.51,0,0
30305.3,131.47,-4033.62,0,0
30565.7,135.197,-4001.02,0,0
30826,135.914,-3971.16,0,0
31086.3,136.47,-3941.66,0,0
31346.6,132.871,-3914.43,0,0
31607,131.129,-3886.28,0,0
31867.3,122.53,-3857.37,0,0
32127.6,118.791,-3825.41,0,0
32387.9,115.182,-3794.73,0,0
32648.3,112.039,-3764.03,0,0
32908.6,108.395,-3733.62,0,0
33168.9,105.753,-3704.14,0,0
33429.2,103.221,-3674.31,0,0
33689.6,100.229,-3644.53,0,0
33949.9,99.0269,-3615.55,0,0
34210.2,97.0851,-3587.08,0,0
34470.5,95.1611,-3558.8,0,0
34730.9,93.8346,-3530.47,0,0
34991.2,92.836,-3503.2,0,0
35251.5,91.8744,-3476.61,0,0
35511.8,90.8289,-3449.67,0,0
35772.2,90.3588,-3423.34,0,0
36032.5,89.7008,-3397.43,0,0
36292.8,89.3579,-3372.74,0,0
36553.1,88.476,-3347.83,0,0
36813.5,87.7305,-3322.95,0,0
37073.8,87.5578,-3298.36,0,0
37334.1,87.4774,-3274.62,0,0
37594.4,87.3471,-3251.21,0,0
37854.8,86.6842,-3227.89,0,0
38115.1,86.273,-3204.27,0,0
38375.4,86.9464,-3181.01,0,0
38635.7,87.7897,-3158.3,0,0
38896.1,88.9467,-3135.83,0,0
39156.4,91.4748,-3114.37,0,0
39416.7,93.3467,-3093.46,0,0
39677,96.6449,-3074.48,0,0
39937.4,98.7244,-3058.09,0,0
40197.7,98.3565,-3042.01,0,0
40458,96.351,-3026.18,0,0
40718.3,93.2732,-3008.34,0,0
40978.7,90.4642,-2989.96,0,0
41239,88.1152,-2970.99,0,0
41499.3,86.0009,-2951.73,0,0
41759.6,85.0341,-2932.48,0,0
42020,83.5887,-2913.89,0,0
42280.275,82.155,-2894.99,0,0
42540.6,81.2888,-2875.61,0,0
42800.925,82.0178,-2856.98,0,0
43061.25,81.6313,-2839.49,0,0
43321.575,82.3261,-2822.16,0,0
43581.9,81.0477,-2805.49,0,0
43842.225,80.7752,-2787.61,0,0
44102.55,81.671,-2770.11,0,0
44362.875,83.1926,-2754.12,0,0
44623.2,83.4291,-2739.45,0,0
44883.525,83.2049,-2725.55,0,0
45143.85,81.6575,-2710.4,0,0
45404.175,80.1343,-2694.53,0,0
45664.5,80.2708,-2677.94,0,0
45924.825,81.3314,-2663.93,0,0
46185.15,80.0616,-2650.55,0,0
46445.475,78.9104,-2636.67,0,0
46705.8,76.8672,-2622.63,0,0
46966.125,74.5459,-2607.54,0,0
47226.45,73.0714,-2591.85,0,0
47486.775,72.4819,-2576.77,0,0
47747.1,72.1062,-2561.82,0,0
48007.425,71.8873,-2547.47,0,0
48267.75,71.2697,-2533.53,0,0
48528.075,70.6321,-2519.73,0,0
48788.4,70.0845,-2505.65,0,0
49048.725,69.5534,-2491.97,0,0
49309.05,68.8268,-2478.13,0,0
49569.375,68.6471,-2464.61,0,0
49829.7,68.0838,-2451.18,0,0
50090.025,67.7817,-2438.07,0,0
50350.35,67.4652,-2425.08,0,0
50610.675,67.2484,-2411.95,0,0
50871.0,66.942,-2399.35,0,0
51131.325,66.5387,-2386.7,0,0
51391.65,66.1774,-2374.18,0,0
51651.975,65.9332,-2361.84,0,0
51912.3,65.5856,-2349.46,0,0
52172.625,65.3575,-2337.16,0,0
52432.95,65.2623,-2325.13,0,0
52693.275,64.9624,-2313.26,0,0
52953.6,64.8321,-2301.43,0,0
53213.925,64.8616,-2289.86,0,0
53474.25,64.7207,-2278.64,0,0
53734.575,64.3929,-2267.33,0,0
53994.9,64.0104,-2256.15,0,0
54255.225,63.5915,-2244.89,0,0
54515.55,63.4045,-2233.78,0,0
54775.875,63.2265,-2222.72,0,0
55036.2,62.907,-2211.79,0,0
55296.525,62.6587,-2200.87,0,0
55556.85,62.5065,-2190.18,0,0
55817.175,62.415,-2179.55,0,0
56077.5,62.0228,-2169.05,0,0
56337.825,62.0983,-2158.57,0,0
56598.15,61.9248,-2148.41,0,0
56858.475,61.7934,-2138.17,0,0
57118.8,61.5721,-2128.06,0,0
57379.125,61.3656,-2118.13,0,0
57639.45,61.1771,-2107.96,0,0
57899.775,60.8717,-2098.03,0,0
58160.1,60.8922,-2087.99,0,0
58420.4,61.1712,-2078.24,0,0
58680.7,61.494,-2068.87,0,0
58941.1,61.4292,-2059.64,0,0
59201.4,61.1513,-2050.48,0,0
59461.7,61.0488,-2041.03,0,0
59722,61.4498,-2031.89,0,0
59982.4,61.3016,-2023.11,0,0
60242.7,61.1555,-2014.32,0,0
60503,60.9869,-2005.76,0,0
60763.3,60.696,-1997.16,0,0
61023.7,60.21,-1988.47,0,0
61284,59.9263,-1979.61,0,0
61544.3,59.5154,-1971.19,0,0
61804.6,59.1473,-1962.58,0,0
62065,58.5843,-1954.03,0,0
62325.3,58.2066,-1945.33,0,0
62585.6,58.0209,-1936.69,0,0
62845.9,57.9093,-1928.25,0,0
63106.3,57.6077,-1919.93,0,0
63366.6,57.4219,-1911.53,0,0
63626.9,57.4969,-1903.36,0,0
63887.2,57.2326,-1895.39,0,0
64147.6,56.8251,-1887.4,0,0
64407.9,56.6924,-1879.07,0,0
64668.2,56.5752,-1870.99,0,0
64928.5,56.3871,-1863.05,0,0
65188.9,56.4783,-1855.08,0,0
65449.2,56.7,-1847.29,0,0
65709.5,56.9515,-1840.05,0,0
65969.8,56.625,-1832.84,0,0
66230.2,56.3621,-1825.34,0,0
66490.5,56.0328,-1818.08,0,0
66750.8,55.6877,-1810.75,0,0
67011.1,55.3588,-1803.43,0,0
67271.5,54.789,-1796.11,0,0
67531.8,54.5233,-1788.54,0,0
67792.1,54.3372,-1781.31,0,0
68052.4,54.0977,-1773.86,0,0
68312.8,53.6979,-1766.68,0,0
68573.1,53.5952,-1759.31,0,0
68833.4,53.5991,-1752.22,0,0
69093.7,53.4833,-1745.19,0,0
69354.1,53.407,-1738.09,0,0
69614.4,53.2341,-1731.18,0,0
69874.7,53.2822,-1724.17,0,0
70135,53.3365,-1717.44,0,0
70395.4,53.1303,-1710.74,0,0
70655.7,53.0267,-1703.97,0,0
70916,53.053,-1697.41,0,0
71176.3,52.9437,-1690.97,0,0
71436.7,52.7952,-1684.48,0,0
71697,52.5164,-1678,0,0
71957.3,52.3307,-1671.52,0,0
72217.6,52.0652,-1665.13,0,0
72478,51.8498,-1658.71,0,0
72738.3,51.731,-1652.27,0,0
72998.6,51.4408,-1645.94,0,0
73258.9,51.3354,-1639.48,0,0
73519.3,51.1958,-1633.26,0,0
73779.6,50.9883,-1627.02,0,0
74039.9,50.9886,-1620.8,0,0
74300.225,50.7193,-1614.6,0,0
74560.55,50.7273,-1608.42,0,0
74820.875,50.5676,-1602.35,0,0
75081.2,50.4934,-1596.34,0,0
75341.525,50.4383,-1590.27,0,0
75601.85,50.325,-1584.34,0,0
75862.175,50.1977,-1578.47,0,0
76122.5,50.0844,-1572.57,0,0
76382.825,50.0186,-1566.66,0,0
76643.15,49.9563,-1560.82,0,0
76903.475,49.9355,-1555.09,0,0
77163.8,49.8618,-1549.29,0,0
77424.125,49.7571,-1543.55,0,0
77684.45,49.7175,-1537.87,0,0
77944.775,49.6613,-1532.33,0,0
78205.1,49.5864,-1526.7,0,0
78465.425,49.4745,-1521.01,0,0
78725.75,49.3903,-1515.56,0,0
78986.075,49.4154,-1510.06,0,0
79246.4,49.3765,-1504.58,0,0
79506.725,49.3734,-1499.14,0,0
79767.05,49.2792,-1493.72,0,0
80027.375,49.3052,-1488.42,0,0
80287.7,49.2922,-1483.08,0,0
80548.025,49.2203,-1477.79,0,0
80808.35,49.1563,-1472.56,0,0
81068.675,49.0825,-1467.36,0,0
81329.0,48.9863,-1462.08,0,0
81589.325,48.9509,-1456.87,0,0
81849.65,48.9904,-1451.69,0,0
82109.975,48.8457,-1446.53,0,0
82370.3,48.823,-1441.4,0,0
82630.625,48.8892,-1436.29,0,0
82890.95,48.8489,-1431.31,0,0
83151.275,48.897,-1426.35,0,0
83411.6,48.7645,-1421.35,0,0
83671.925,48.7519,-1416.26,0,0
83932.25,48.7993,-1411.37,0,0
84192.575,48.8212,-1406.38,0,0
84452.9,48.8955,-1401.46,0,0
84713.225,49.0023,-1396.68,0,0
84973.55,48.915,-1391.89,0,0
85233.875,48.9913,-1387.17,0,0
85494.2,49.0598,-1382.46,0,0
85754.525,49.0218,-1377.75,0,0
86014.85,49.0191,-1372.97,0,0
86275.175,49.0567,-1368.18,0,0
86535.5,49.0897,-1363.67,0,0
86795.825,48.9877,-1359.12,0,0
87056.15,48.9387,-1354.38,0,0
87316.475,49.0266,-1349.79,0,0
87576.8,49.1517,-1345.37,0,0
87837.125,49.1708,-1340.8,0,0
88097.45,49.2014,-1336.29,0,0
88357.775,49.2377,-1331.86,0,0
88618.1,49.2068,-1327.5,0,0
88878.425,49.1645,-1323.09,0,0
89138.75,49.1173,-1318.6,0,0
89399.075,49.1513,-1314.09,0,0
89659.4,49.1008,-1309.73,0,0
89919.725,49.1772,-1305.34,0,0
90180,49.1663,-1300.9,0,0
90440.4,49.1979,-1296.41,0,0
90700.7,49.3623,-1292.06,0,0
90961,49.5305,-1287.9,0,0
91221.3,49.5864,-1283.55,0,0
91481.7,49.6492,-1279.34,0,0
91742,49.8259,-1275.15,0,0
92002.3,49.8128,-1270.97,0,0
92262.6,49.9294,-1266.73,0,0
92523,49.9777,-1262.64,0,0
92783.3,49.9005,-1258.51,0,0
93043.6,49.9067,-1254.22,0,0
93303.9,50.0359,-1249.73,0,0
93564.3,50.3734,-1245.45,0,0
93824.6,50.8445,-1241.14,0,0
94084.9,51.6913,-1236.95,0,0
94345.2,52.4636,-1233.47,0,0
94605.6,52.9126,-1230.23,0,0
94865.9,52.892,-1227.11,0,0
95126.2,52.5729,-1223.52,0,0
95386.5,52.547,-1219.96,0,0
95646.9,52.2028,-1216.47,0,0
95907.2,51.6364,-1212.66,0,0
96167.5,51.3585,-1208.52,0,0
96427.8,51.3456,-1204.54,0,0
96688.2,51.2021,-1200.54,0,0
96948.5,51.3166,-1196.62,0,0
97208.8,51.308,-1192.68,0,0
97469.1,51.3386,-1188.79,0,0
97729.5,51.3643,-1184.83,0,0
97989.8,51.6077,-1180.88,0,0
98250.1,51.8698,-1177.08,0,0
98510.4,52.1653,-1173.35,0,0
98770.8,52.3949,-1169.99,0,0
99031.1,52.248,-1166.46,0,0
99291.4,52.1201,-1162.76,0,0
99551.7,52.0756,-1159.02,0,0
99812.1,51.7767,-1155.17,0,0
100072,51.9522,-1151.01,0,0
100333,52.2679,-1147.08,0,0
100593,52.7224,-1143.42,0,0
100853,52.8851,-1139.73,0,0
101114,53.2163,-1136.01,0,0
101374,53.5313,-1132.38,0,0
101634,53.9069,-1128.84,0,0
101895,54.104,-1125.29,0,0
102155,54.4451,-1121.67,0,0
102415,54.8035,-1118.04,0,0
102676,55.3256,-1114.46,0,0
102936,55.7719,-1111.12,0,0
103196,56.3241,-1107.63,0,0
103457,56.7634,-1104.46,0,0
103717,57.3999,-1101.12,0,0
103977,58.0636,-1098.4,0,0
104238,57.9768,-1095.64,0,0
104498,58.0483,-1092.19,0,0
104758,58.4716,-1089.07,0,0
105019,58.7859,-1086.34,0,0
105279,58.6114,-1083.45,0,0
105539,58.4181,-1080.26,0,0
105800,58.3619,-1076.94,0,0
106060,58.4846,-1073.73,0,0
106320.175,58.3583,-1070.57,0,0
106580.5,58.328,-1067.04,0,0
106840.825,58.5423,-1063.53,0,0
107101.15,58.949,-1060.16,0,0
107361.475,59.3258,-1057.13,0,0
107621.8,59.3957,-1054.03,0,0
107882.125,59.6226,-1050.78,0,0
108142.45,59.9304,-1047.6,0,0
108402.775,60.1745,-1044.6,0,0
108663.1,60.2742,-1041.53,0,0
108923.425,60.4527,-1038.46,0,0
109183.75,60.4658,-1035.33,0,0
109444.075,60.6316,-1032.16,0,0
109704.4,60.5436,-1028.92,0,0
109964.725,60.6618,-1025.5,0,0
110225.05,60.7426,-1022.15,0,0
110485.375,60.9489,-1018.46,0,0
110745.7,61.5122,-1014.74,0,0
111006.025,62.248,-1011.3,0,0
111266.35,62.989,-1008.15,0,0
111526.675,63.6072,-1005.15,0,0
111787.0,64.2753,-1001.82,0,0
112047.325,64.9544,-998.549,0,0
112307.65,65.8393,-995.338,0,0
112567.975,66.7262,-992.306,0,0
112828.3,67.5824,-989.185,0,0
113088.625,68.6579,-986.063,0,0
113348.95,69.9161,-983.168,0,0
113609.275,71.0447,-980.816,0,0
113869.6,71.7823,-978.247,0,0
114129.925,72.6814,-975.435,0,0
114390.25,73.8116,-972.779,0,0
114650.575,74.9759,-970.272,0,0
114910.9,75.876,-967.981,0,0
115171.225,76.7486,-965.425,0,0
115431.55,77.978,-962.885,0,0
115691.875,79.1869,-960.481,0,0
115952.2,80.6539,-958.098,0,0
116212.525,82.3284,-955.999,0,0
116472.85,84.0822,-954.421,0,0
116733.175,85.5459,-953.394,0,0
116993.5,86.6402,-952.459,0,0
117253.825,87.1893,-951.497,0,0
117514.15,87.7872,-950.314,0,0
117774.475,88.3722,-949.239,0,0
118034.8,88.6156,-948.197,0,0
118295.125,88.8725,-946.703,0,0
118555.45,89.7024,-945.239,0,0
118815.775,90.7884,-944.549,0,0
119076.1,91.1834,-944.498,0,0
119336.425,91.1057,-944.357,0,0
119596.75,90.7219,-944.05,0,0
119857.075,90.0276,-944.064,0,0
120117.4,88.807,-943.937,0,0
120377.725,87.1659,-943.427,0,0
120638.05,85.3042,-942.755,0,0
120898.375,83.0685,-941.512,0,0
121158.7,80.9498,-939.905,0,0
121419.025,78.5333,-937.797,0,0
121679.35,76.5952,-935.059,0,0
121939.675,75.3592,-932.265,0,0
122200.0,74.1701,-929.797,0,0
122460,72.8522,-927.37,0,0
122721,71.598,-924.705,0,0
122981,70.4734,-922.062,0,0
123241,69.4378,-919.455,0,0
123502,68.2196,-916.818,0,0
123762,66.956,-913.909,0,0
124022,66.1674,-910.701,0,0
124283,65.6109,-907.886,0,0
124543,64.9459,-905.079,0,0
124803,64.3676,-902.161,0,0
125064,64.0558,-899.57,0,0
125324,63.3982,-897.284,0,0
125584,62.361,-894.75,0,0
125845,61.3531,-891.81,0,0
126105,60.6779,-888.814,0,0
126365,60.0625,-885.945,0,0
126626,59.3355,-883.073,0,0
126886,58.6559,-880.027,0,0
127146,58.128,-877.055,0,0
127406,57.519,-873.93,0,0
127667,57.1733,-870.701,0,0
127927,57.0141,-867.672,0,0
128187,56.8098,-864.761,0,0
128448,56.6073,-861.953,0,0
128708,56.3168,-859.033,0,0
128968,55.997,-856.17,0,0
129229,55.7747,-853.221,0,0
129489,55.7079,-850.278,0,0
129749,55.5384,-847.619,0,0
130010,55.0805,-844.82,0,0
130270,54.7794,-841.769,0,0
130530,54.6994,-838.737,0,0
130791,54.6467,-835.847,0,0
131051,54.5566,-832.974,0,0
131311,54.4096,-830.199,0,0
131572,54.1057,-827.282,0,0
131832,53.8769,-824.227,0,0
132092,53.8073,-821.106,0,0
132353,53.7552,-818.017,0,0
132613,53.754,-814.898,0,0
132873,53.8788,-811.743,0,0
133134,54.0853,-808.639,0,0
133394,54.2616,-805.527,0,0
133654,54.5048,-802.402,0,0
133915,54.933,-799.213,0,0
134175,55.5341,-796.072,0,0
134435,56.171,-793.018,0,0
134696,57.0797,-790.129,0,0
134956,57.8987,-787.606,0,0
135216,58.4791,-784.952,0,0
135477,59.2589,-782.199,0,0
135737,60.0773,-779.581,0,0
135997,61.1968,-777.08,0,0
136258,62.4604,-775.012,0,0
136518,63.4457,-773.532,0,0
136778,63.8889,-772.195,0,0
137039,63.9786,-770.725,0,0
137299,63.7091,-769.18,0,0
137559,63.2207,-767.174,0,0
137819,62.8825,-764.947,0,0
138080,62.6359,-762.637,0,0
138340.125,62.4306,-760.332,0,0
138600.45,62.0666,-757.978,0,0
138860.775,61.7117,-755.451,0,0
139121.1,61.3991,-752.728,0,0
139381.425,61.2836,-749.838,0,0
139641.75,61.4903,-747.064,0,0
139902.075,61.5998,-744.479,0,0
140162.4,61.7156,-741.801,0,0
140422.725,61.9258,-739.171,0,0
140683.05,62.083,-736.696,0,0
140943.375,62.0945,-734.186,0,0
141203.7,62.127,-731.534,0,0
141464.025,62.2156,-728.905,0,0
141724.35,62.2577,-726.243,0,0
141984.675,62.3285,-723.414,0,0
142245.0,62.5914,-720.587,0,0
142505.325,62.8848,-717.833,0,0
142765.65,63.1821,-715.119,0,0
143025.975,63.4881,-712.38,0,0
143286.3,63.8512,-709.591,0,0
143546.625,64.3726,-706.824,0,0
143806.95,64.9645,-704.209,0,0
144067.275,65.5139,-701.809,0,0
144327.6,65.8873,-699.423,0,0
144587.925,66.1658,-697.012,0,0
144848.25,66.3987,-694.491,0,0
145108.575,66.6899,-691.935,0,0
145368.9,67.0202,-689.448,0,0
145629.225,67.1972,-686.954,0,0
145889.55,67.3555,-684.373,0,0
146149.875,67.4995,-681.659,0,0
146410.2,67.8014,-678.836,0,0
146670.525,68.2491,-676.096,0,0
146930.85,68.6906,-673.474,0,0
147191.175,69.0751,-670.891,0,0
147451.5,69.4065,-668.371,0,0
147711.825,69.5799,-665.75,0,0
147972.15,69.8611,-662.931,0,0
148232.475,70.2864,-660.213,0,0
148492.8,70.6137,-657.593,0,0
148753.125,70.884,-654.918,0,0
149013.45,71.1353,-652.251,0,0
149273.775,71.2397,-649.572,0,0
149534.1,71.2611,-646.673,0,0
149794.425,71.3919,-643.574,0,0
150054.75,71.6298,-640.458,0,0
150315.075,71.9225,-637.299,0,0
150575.4,72.2157,-634.121,0,0
150835.725,72.5638,-630.834,0,0
151096.05,72.9461,-627.453,0,0
151356.375,73.4115,-624.009,0,0
151616.7,73.9759,-620.465,0,0
151877.025,74.6822,-616.896,0,0
152137.35,75.5399,-613.305,0,0
152397.675,76.4647,-609.74,0,0
152658.0,77.4403,-606.14,0,0
152918.325,78.562,-602.492,0,0
153178.65,79.8455,-598.91,0,0
153438.975,81.205,-595.425,0,0
153699.3,82.5648,-592.014,0,0
153959.625,83.8733,-588.531,0,0
154219.95,85.2957,-584.93,0,0
154480,86.867,-581.302,0,0
154741,88.7692,-577.678,0,0
155001,90.538,-574.222,0,0
155261,92.5512,-570.866,0,0
155522,94.4792,-567.457,0,0
155782,96.7091,-564.187,0,0
156042,99.0141,-560.923,0,0
156303,101.406,-557.769,0,0
156563,103.839,-554.923,0,0
156823,106.28,-552.18,0,0
157084,108.668,-549.458,0,0
157344,111.081,-546.66,0,0
157604,113.709,-544.123,0,0
157864,116.326,-541.876,0,0
158125,118.685,-539.939,0,0
158385,120.863,-537.887,0,0
158645,123.048,-535.956,0,0
158906,125.098,-534.332,0,0
159166,126.635,-532.809,0,0
159426,127.758,-531.003,0,0
159687,128.684,-528.9,0,0
159947,129.371,-526.513,0,0
160207,130.012,-523.653,0,0
160468,130.682,-520.47,0,0
160728,131.453,-516.871,0,0
160988,132.415,-512.946,0,0
161249,133.464,-508.513,0,0
161509,135.117,-503.671,0,0
161769,137.424,-498.575,0,0
162030,140.207,-493.612,0,0
162290,143.445,-488.744,0,0
162550,147.071,-484.251,0,0
162811,150.717,-479.872,0,0
163071,154.416,-475.449,0,0
163331,158.491,-470.739,0,0
163592,163.223,-466.029,0,0
163852,168.53,-461.722,0,0
164112,174.028,-458.037,0,0
164373,179.36,-454.728,0,0
164633,184.589,-451.323,0,0
164893,190.08,-447.749,0,0
165154,196.016,-444.491,0,0
165414,201.602,-441.428,0,0
165674,207.408,-437.991,0,0
165935,213.571,-434.203,0,0
166195,220.463,-430.067,0,0
166455,228.649,-425.98,0,0
166716,238.106,-422.738,0,0
166976,247.961,-420.81,0,0
167236,257.988,-419.671,0,0
167497,268.229,-419.17,0,0
167757,278.694,-419.639,0,0
168017,289.028,-420.909,0,0
168277,299.555,-422.86,0,0
168538,310.137,-425.807,0,0
168798,320.682,-429.846,0,0
169058,330.673,-434.989,0,0
169319,340.113,-440.913,0,0
169579,348.784,-447.735,0,0
169839,356.105,-454.664,0,0
170100,363.315,-460.945,0,0
170360.075,371.352,-467.724,0,0
170620.4,379.606,-475.96,0,0
170880.725,387.151,-486.096,0,0
171141.05,392.59,-497.503,0,0
171401.375,396.068,-508.519,0,0
171661.7,398.791,-518.974,0,0
171922.025,400.911,-529.179,0,0
172182.35,403.058,-539.258,0,0
172442.675,405.228,-550.516,0,0
172703.0,405.487,-563.648,0,0
172963.325,402.438,-576.104,0,0
173223.65,398.532,-586.851,0,0
173483.975,393.664,-597.211,0,0
173744.3,387.538,-606.455,0,0
174004.625,380.768,-614.548,0,0
174264.95,373.203,-621.801,0,0
174525.275,364.268,-627.466,0,0
174785.6,355.295,-630.629,0,0
175045.925,347.287,-631.913,0,0
175306.25,340.382,-632.277,0,0
175566.575,334.176,-632.079,0,0
175826.9,328.15,-630.899,0,0
176087.225,323.438,-627.775,0,0
176347.55,321.417,-624.141,0,0
176607.875,321.603,-621.549,0,0
176868.2,323.09,-620.553,0,0
177128.525,324.632,-621.332,0,0
177388.85,325.616,-622.616,0,0
177649.175,327.118,-624.129,0,0
177909.5,329.237,-626.35,0,0
178169.825,332.35,-630.111,0,0
178430.15,335.241,-636.841,0,0
178690.475,335.564,-645.983,0,0
178950.8,332.661,-655.475,0,0
179211.125,327.168,-663.756,0,0
179471.45,320.351,-670.267,0,0
179731.775,312.979,-675.231,0,0
179992.1,305.667,-678.861,0,0
180252.425,298.641,-681.221,0,0
180512.75,292.72,-683.413,0,0
180773.075,286.791,-686.454,0,0
181033.4,279.85,-689.576,0,0
181293.725,272.037,-692.24,0,0
181554.05,263.295,-694.131,0,0
181814.375,254.057,-694.416,0,0
182074.7,245.425,-693.516,0,0
182335.025,237.188,-692.234,0,0
182595.35,228.828,-690.508,0,0
182855.675,220.249,-687.722,0,0
183116.0,212.103,-683.478,0,0
183376.325,205.378,-678.324,0,0
183636.65,199.917,-673.333,0,0
183896.975,194.794,-668.832,0,0
184157.3,189.616,-664.047,0,0
184417.625,184.867,-658.696,0,0
184677.95,181.103,-653.047,0,0
184938.275,178.421,-647.746,0,0
185198.6,176.11,-643.486,0,0
185458.925,173.225,-639.848,0,0
185719.25,169.859,-635.999,0,0
185979.575,166.21,-631.782,0,0
186239.9,162.575,-626.821,0,0
186500,159.586,-621.234,0,0
186761,157.341,-615.561,0,0
187021,155.627,-610.028,0,0
187281,154.291,-604.627,0,0
187542,153.317,-599.329,0,0
187802,152.801,-594.162,0,0
188062,152.835,-589.346,0,0
188322,153.262,-585.278,0,0
188583,153.562,-582.151,0,0
188843,153.074,-579.724,0,0
189103,151.51,-577.124,0,0
189364,149.516,-573.813,0,0
189624,147.52,-569.883,0,0
189884,145.79,-565.572,0,0
190145,144.203,-561.094,0,0
190405,142.78,-556.251,0,0
190665,141.731,-551.225,0,0
190926,140.886,-546.208,0,0
191186,140.184,-540.856,0,0
191446,140.16,-535.292,0,0
191707,140.74,-530.202,0,0
191967,141.202,-525.608,0,0
192227,141.427,-520.975,0,0
192488,141.674,-516.208,0,0
192748,142.068,-511.303,0,0
193008,142.653,-506.316,0,0
193269,143.47,-501.317,0,0
193529,144.483,-496.33,0,0
193789,145.705,-491.395,0,0
194050,147.063,-486.52,0,0
194310,148.552,-481.653,0,0
194570,150.239,-476.773,0,0
194831,152.216,-471.934,0,0
195091,154.585,-467.197,0,0
195351,156.993,-462.907,0,0
195612,159.332,-458.943,0,0
195872,161.582,-454.943,0,0
196132,163.77,-450.913,0,0
196393,166.129,-446.904,0,0
196653,168.505,-442.897,0,0
196913,171.066,-438.922,0,0
197174,173.793,-435.056,0,0
197434,176.392,-431.422,0,0
197694,179.028,-427.685,0,0
197955,181.703,-424.072,0,0
198215,184.269,-420.506,0,0
198475,186.684,-416.81,0,0
198735,189.305,-412.814,0,0
198996,192.305,-408.845,0,0
199256,195.255,-405,0,0
199516,198.265,-401.09,0,0
199777,201.27,-397.046,0,0
200037,204.609,-392.707,0,0
200297,208.284,-388.384,0,0
200558,212.293,-384.108,0,0
200818,216.679,-379.966,0,0
201078,221.216,-376.258,0,0
201339,225.665,-372.608,0,0
201599,230.139,-368.73,0,0
201859,235.071,-364.701,0,0
202120,240.443,-360.837,0,0
202380.025,246.06,-357.248,0,0
202640.35,251.949,-353.876,0,0
202900.675,258.105,-350.688,0,0
203161.0,264.473,-347.749,0,0
203421.325,271.101,-345.103,0,0
203681.65,277.901,-342.694,0,0
203941.975,284.877,-340.568,0,0
204202.3,292.109,-338.848,0,0
204462.625,299.5,-337.626,0,0
204722.95,306.701,-336.816,0,0
204983.275,314.021,-336.029,0,0
205243.6,321.365,-335.449,0,0
205503.925,329.074,-335.159,0,0
205764.25,337.439,-335.601,0,0
206024.575,345.712,-337.066,0,0
206284.9,353.187,-339.578,0,0
206545.225,359.851,-342.438,0,0
206805.55,365.822,-345.384,0,0
207065.875,371.023,-348.233,0,0
207326.2,375.527,-350.738,0,0
207586.525,379.817,-352.581,0,0
207846.85,383.9,-353.943,0,0
208107.175,388.178,-354.296,0,0
208367.5,393.117,-354.114,0,0
208627.825,398.778,-353.443,0,0
208888.15,405.491,-352.38,0,0
209148.475,413.993,-351.515,0,0
209408.8,424.034,-351.838,0,0
209669.125,434.911,-353.94,0,0
209929.45,445.801,-357.789,0,0
210189.775,456.418,-363.103,0,0
210450.1,466.681,-369.672,0,0
210710.425,476.412,-377.637,0,0
210970.75,485.156,-387.074,0,0
211231.075,492.352,-397.577,0,0
211491.4,497.985,-408.417,0,0
211751.725,502.306,-419.432,0,0
212012.05,505.162,-430.37,0,0
212272.375,506.856,-440.552,0,0
212532.7,508.055,-450.095,0,0
212793.025,508.82,-459.057,0,0
213053.35,509.681,-467.825,0,0
213313.675,510.16,-477.076,0,0
213574.0,509.503,-486.264,0,0
213834.325,508.245,-494.728,0,0
214094.65,506.846,-502.944,0,0
214354.975,504.963,-511.15,0,0
214615.3,502.181,-519.061,0,0
214875.625,498.396,-526.051,0,0
215135.95,494.718,-531.631,0,0
215396.275,491.727,-536.527,0,0
215656.6,489.239,-541.187,0,0
215916.925,487.183,-546.058,0,0
216177.25,485.135,-551.202,0,0
216437.575,483.1,-556.541,0,0
216697.9,480.912,-562.267,0,0
216958.225,478.229,-568.424,0,0
217218.55,474.525,-574.725,0,0
217478.875,469.824,-580.57,0,0
217739.2,464.536,-585.459,0,0
217999.525,459.371,-589.565,0,0
218259.85,454.219,-593.467,0,0
218520,448.666,-597.183,0,0
218780,442.719,-600.347,0,0
219041,436.446,-602.82,0,0
219301,429.941,-604.546,0,0
219561,423.481,-605.331,0,0
219822,417.295,-605.364,0,0
220082,411.387,-604.583,0,0
220342,405.933,-603.178,0,0
220603,401.005,-601.157,0,0
220863,396.786,-598.668,0,0
221123,393.37,-595.889,0,0
221384,390.541,-593.1,0,0
221644,388.219,-590.286,0,0
221904,386.439,-587.433,0,0
222165,385.125,-584.618,0,0
222425,384.345,-581.909,0,0
222685,384.05,-579.267,0,0
222946,384.269,-577.087,0,0
223206,384.567,-575.4,0,0
223466,384.712,-573.748,0,0
223727,385.02,-571.928,0,0
223987,385.762,-570.221,0,0
224247,386.792,-568.802,0,0
224508,387.819,-567.473,0,0
224768,388.922,-566.211,0,0
225028,390.118,-564.862,0,0
225289,391.705,-563.215,0,0
225549,394,-561.53,0,0
225809,397.081,-560.126,0,0
226070,400.881,-559.35,0,0
226330,405.094,-559.545,0,0
226590,409.287,-560.693,0,0
226851,413.082,-562.648,0,0
227111,416.32,-565.006,0,0
227371,419.239,-567.314,0,0
227632,422.238,-569.513,0,0
227892,425.609,-572.002,0,0
228152,429.193,-575.123,0,0
228413,432.672,-578.933,0,0
228673,435.896,-583.373,0,0
228933,438.868,-588.433,0,0
229193,441.329,-594.102,0,0
229454,443.145,-600.303,0,0
229714,444.111,-606.699,0,0
229974,444.377,-612.904,0,0
230235,444.49,-618.829,0,0
230495,444.67,-625.1,0,0
230755,444.512,-632.08,0,0
231016,443.244,-639.539,0,0
231276,440.701,-646.778,0,0
231536,437.411,-653.284,0,0
231797,433.982,-658.982,0,0
232057,430.731,-664.46,0,0
232317,427.511,-669.936,0,0
232578,424.045,-675.734,0,0
232838,419.982,-681.633,0,0
233098,415.495,-687.308,0,0
233359,410.802,-693.071,0,0
233619,405.471,-699.347,0,0
233879,398.665,-705.716,0,0
234140,390.263,-711.205,0,0
234400,381.005,-715.121,0,0
234660.3,371.601,-717.479,0,0
234920.625,362.258,-718.737,0,0
235180.95,353.45,-718.705,0,0
235441.275,345.056,-718.019,0,0
235701.6,337.168,-716.597,0,0
235961.925,329.831,-714.436,0,0
236222.25,323.39,-711.818,0,0
236482.575,317.787,-709.215,0,0
236742.9,312.68,-706.749,0,0
237003.225,307.941,-704.597,0,0
237263.55,303.092,-702.829,0,0
237523.875,297.682,-700.957,0,0
237784.2,292.098,-698.369,0,0
238044.525,286.739,-695.078,0,0
238304.85,281.821,-691.171,0,0
238565.175,277.412,-686.747,0,0
238825.5,273.819,-681.85,0,0
239085.825,271.225,-676.806,0,0
239346.15,269.493,-672.151,0,0
239606.475,268.32,-667.776,0,0
239866.8,267.881,-663.746,0,0
240127.125,267.865,-660.566,0,0
240387.45,268.411,-658.045,0,0
240647.775,268.859,-656.66,0,0
240908.1,268.48,-656.189,0,0
241168.425,267.161,-655.774,0,0
241428.75,265.276,-654.963,0,0
241689.075,263.324,-653.878,0,0
241949.4,261.211,-652.778,0,0
242209.725,258.742,-651.591,0,0
242470.05,255.779,-650.024,0,0
242730.375,252.63,-647.656,0,0
242990.7,249.755,-644.397,0,0
243251.025,247.625,-640.682,0,0
243511.35,246.164,-636.911,0,0
243771.675,244.989,-633.242,0,0
244032.0,244.055,-629.358,0,0
244292.325,243.746,-625.23,0,0
244552.65,244.25,-621.18,0,0
244812.975,245.422,-617.584,0,0
245073.3,247.104,-614.532,0,0
245333.625,249.049,-612.317,0,0
245593.95,250.817,-610.863,0,0
245854.275,252.245,-609.875,0,0
246114.6,253.283,-609.106,0,0
246374.925,253.961,-608.428,0,0
246635.25,254.456,-607.637,0,0
246895.575,254.92,-606.811,0,0
247155.9,255.339,-606.06,0,0
247416.225,255.541,-605.375,0,0
247676.55,255.666,-604.477,0,0
247936.875,255.911,-603.475,0,0
248197.2,256.276,-602.438,0,0
248457.525,256.691,-601.455,0,0
248717.85,257.249,-600.546,0,0
248978.175,257.852,-599.742,0,0
249238.5,258.495,-599.001,0,0
249498.825,259.209,-598.325,0,0
249759.15,259.95,-597.761,0,0
250019.475,260.846,-597.252,0,0
250279.8,261.776,-597.204,0,0
250540,262.471,-597.266,0,0
250800,262.992,-597.425,0,0
251061,263.478,-597.372,0,0
251321,264.021,-597.474,0,0
251581,264.573,-597.638,0,0
251842,265.128,-597.985,0,0
252102,265.613,-598.458,0,0
252362,266.017,-599.016,0,0
252623,266.346,-599.696,0,0
252883,266.591,-600.563,0,0
253143,266.624,-601.523,0,0
253404,266.454,-602.525,0,0
253664,266.164,-603.53,0,0
253924,265.805,-604.587,0,0
254185,265.26,-605.794,0,0
254445,264.374,-607.137,0,0
254705,263.069,-608.42,0,0
254966,261.455,-609.287,0,0
255226,259.822,-609.9,0,0
255486,258.157,-610.399,0,0
255747,256.476,-610.733,0,0
256007,254.599,-610.98,0,0
256267,252.633,-610.969,0,0
256528,250.674,-610.702,0,0
256788,248.819,-610.234,0,0
257048,247.002,-609.666,0,0
257309,245.177,-609.04,0,0
257569,243.294,-608.221,0,0
257829,241.408,-607.136,0,0
258090,239.65,-605.785,0,0
258350,238.075,-604.197,0,0
258610,236.727,-602.491,0,0
258871,235.65,-600.64,0,0
259131,234.881,-598.839,0,0
259391,234.267,-597.235,0,0
259651,233.623,-595.655,0,0
259912,232.935,-594.079,0,0
260172,232.242,-592.402,0,0
260432,231.558,-590.549,0,0
260693,231.055,-588.445,0,0
260953,230.806,-586.146,0,0
261213,230.864,-583.809,0,0
261474,231.177,-581.384,0,0
261734,231.862,-578.851,0,0
261994,232.991,-576.402,0,0
262255,234.641,-574.07,0,0
262515,236.768,-572.09,0,0
262775,239.217,-570.703,0,0
263036,241.697,-569.798,0,0
263296,244.184,-569.322,0,0
263556,246.669,-569.219,0,0
263817,249.036,-569.595,0,0
264077,251.185,-570.312,0,0
264337,253.064,-571.345,0,0
264598,254.568,-572.636,0,0
264858,255.703,-573.917,0,0
265118,256.594,-575.077,0,0
265379,257.336,-576.234,0,0
265639,257.969,-577.33,0,0
265899,258.563,-578.261,0,0
266160,259.214,-579.154,0,0
266420,259.947,-580.101,0,0
266680.25,260.703,-581.18,0,0
266940.575,261.425,-582.402,0,0
267200.9,262.086,-583.745,0,0
267461.225,262.621,-585.26,0,0
267721.55,263.021,-586.878,0,0
267981.875,263.217,-588.622,0,0
268242.2,263.105,-590.345,0,0
268502.525,262.793,-591.922,0,0
268762.85,262.348,-593.268,0,0
269023.175,261.908,-594.434,0,0
269283.5,261.585,-595.42,0,0
269543.825,261.395,-596.311,0,0
269804.15,261.435,-597.171,0,0
270064.475,261.73,-598.085,0,0
270324.8,262.211,-599.165,0,0
270585.125,262.882,-600.509,0,0
270845.45,263.766,-602.241,0,0
271105.775,264.452,-604.36,0,0
271366.1,264.998,-606.656,0,0
271626.425,265.585,-609.065,0,0
271886.75,266.341,-611.776,0,0
272147.075,267.322,-615.137,0,0
272407.4,268.178,-619.499,0,0
272667.725,268.245,-624.903,0,0
272928.05,267.033,-630.823,0,0
273188.375,264.651,-636.699,0,0
273448.7,261.382,-642.26,0,0
273709.025,257.408,-647.678,0,0
273969.35,252.483,-652.921,0,0
274229.675,246.569,-657.556,0,0
274490.0,239.851,-661.304,0,0
274750.325,232.74,-664.112,0,0
275010.65,225.462,-666.059,0,0
275270.975,218.024,-667.249,0,0
275531.3,210.358,-667.607,0,0
275791.625,202.79,-667.054,0,0
276051.95,195.483,-665.696,0,0
276312.275,188.537,-663.666,0,0
276572.6,181.937,-661.05,0,0
276832.925,175.735,-657.969,0,0
277093.25,169.924,-654.398,0,0
277353.575,164.55,-650.401,0,0
277613.9,159.686,-646,0,0
277874.225,155.347,-641.276,0,0
278134.55,151.679,-636.29,0,0
278394.875,148.664,-631.246,0,0
278655.2,146.286,-626.33,0,0
278915.525,144.387,-621.585,0,0
279175.85,142.846,-617.118,0,0
279436.175,141.52,-612.797,0,0
279696.5,140.412,-608.553,0,0
279956.825,139.585,-604.453,0,0
280217.15,139.125,-600.478,0,0
280477.475,138.913,-596.746,0,0
280737.8,138.906,-593.295,0,0
280998.125,139.039,-590.16,0,0
281258.45,139.228,-587.35,0,0
281518.775,139.357,-584.897,0,0
281779.1,139.228,-582.655,0,0
282039.425,138.88,-580.443,0,0
282299.75,138.408,-578.151,0,0
282560,137.863,-575.778,0,0
282820,137.288,-573.309,0,0
283081,136.724,-570.722,0,0
283341,136.232,-568.014,0,0
283601,135.808,-565.192,0,0
283862,135.496,-562.239,0,0
284122,135.401,-559.137,0,0
284382,135.601,-556.005,0,0
284643,136.125,-552.946,0,0
284903,136.872,-550.071,0,0
285163,137.739,-547.372,0,0
285424,138.735,-544.86,0,0
285684,139.81,-542.521,0,0
285944,140.892,-540.369,0,0
286205,142.006,-538.377,0,0
286465,143.122,-536.543,0,0
286725,144.201,-534.832,0,0
286986,145.193,-533.282,0,0
287246,146.094,-531.815,0,0
287506,146.86,-530.392,0,0
287767,147.52,-528.942,0,0
288027,148.122,-527.434,0,0
288287,148.695,-525.852,0,0
288548,149.264,-524.189,0,0
288808,149.835,-522.416,0,0
289068,150.528,-520.552,0,0
289329,151.395,-518.634,0,0
289589,152.4,-516.769,0,0
289849,153.494,-514.967,0,0
290109,154.654,-513.213,0,0
290370,155.852,-511.483,0,0
290630,157.158,-509.733,0,0
290890,158.673,-508.049,0,0
291151,160.308,-506.525,0,0
291411,161.981,-505.2,0,0
291671,163.645,-504.01,0,0
291932,165.244,-502.928,0,0
292192,166.804,-501.895,0,0
292452,168.357,-500.879,0,0
292713,169.92,-499.917,0,0
292973,171.511,-499.004,0,0
293233,173.095,-498.13,0,0
293494,174.667,-497.295,0,0
293754,176.226,-496.478,0,0
294014,177.806,-495.669,0,0
294275,179.41,-494.848,0,0
294535,181.048,-494.04,0,0
294795,182.767,-493.226,0,0
295056,184.521,-492.445,0,0
295316,186.366,-491.657,0,0
295576,188.316,-490.874,0,0
295837,190.409,-490.156,0,0
296097,192.635,-489.529,0,0
296357,194.974,-489.007,0,0
296618,197.407,-488.631,0,0
296878,199.945,-488.401,0,0
297138,202.556,-488.339,0,0
297399,205.21,-488.45,0,0
297659,207.905,-488.735,0,0
297919,210.634,-489.212,0,0
298180,213.341,-489.906,0,0
298440,215.966,-490.789,0,0
298700.2,218.481,-491.763,0,0
298960.525,220.971,-492.819,0,0
299220.85,223.468,-493.868,0,0
299481.175,225.988,-495.043,0,0
299741.5,228.678,-496.269,0,0
300001.825,231.426,-497.71,0,0
300262.15,234.237,-499.357,0,0
300522.475,237.208,-501.244,0,0
300782.8,240.247,-503.434,0,0
301043.125,243.232,-505.934,0,0
301303.45,246.136,-508.894,0,0
301563.775,249.189,-512.166,0,0
301824.1,252.015,-515.896,0,0
302084.425,254.802,-520.242,0,0
302344.75,257.132,-525.182,0,0
302605.075,259.066,-530.717,0,0
302865.4,260.078,-536.744,0,0
303125.725,260.237,-542.922,0,0
303386.05,259.51,-549.038,0,0
303646.375,257.985,-554.831,0,0
303906.7,255.903,-560.192,0,0
304167.025,253.456,-565.078,0,0
304427.35,250.782,-569.635,0,0
304687.675,247.877,-573.913,0,0
304948.0,244.728,-577.944,0,0
305208.325,241.302,-581.643,0,0
305468.65,237.701,-585.055,0,0
305728.975,233.972,-588.131,0,0
305989.3,230.092,-590.961,0,0
306249.625,226.036,-593.519,0,0
306509.95,221.817,-595.764,0,0
306770.275,217.46,-597.596,0,0
307030.6,213.099,-598.992,0,0
307290.925,208.822,-600.026,0,0
307551.25,204.668,-600.796,0,0
307811.575,200.587,-601.333,0,0
308071.9,196.588,-601.67,0,0
308332.225,192.663,-601.791,0,0
308592.55,188.816,-601.687,0,0
308852.875,185.045,-601.368,0,0
309113.2,181.399,-600.828,0,0
309373.525,177.903,-600.112,0,0
309633.85,174.588,-599.238,0,0
309894.175,171.411,-598.23,0,0
310154.5,168.406,-597.101,0,0
310414.825,165.571,-595.9,0,0
310675.15,162.898,-594.627,0,0
310935.475,160.384,-593.327,0,0
311195.8,157.997,-591.992,0,0
311456.125,155.745,-590.64,0,0
311716.45,153.626,-589.272,0,0
311976.775,151.628,-587.943,0,0
312237.1,149.704,-586.653,0,0
312497.425,147.848,-585.412,0,0
312757.75,145.989,-584.169,0,0
313018.075,144.148,-582.912,0,0
313278.4,142.355,-581.623,0,0
313538.725,140.592,-580.333,0,0
313799.05,138.862,-578.979,0,0
314059.375,137.155,-577.584,0,0
314319.7,135.511,-576.146,0,0
314580,133.826,-574.578,0,0
314840,132.345,-573.072,0,0
315101,130.94,-571.34,0,0
315361,129.662,-569.729,0,0
315621,128.536,-567.972,0,0
315882,127.472,-566.347,0,0
316142,126.575,-564.717,0,0
316402,125.692,-563.131,0,0
316663,125.033,-561.586,0,0
316923,124.375,-560.08,0,0
317183,123.767,-558.784,0,0
317444,123.2,-557.506,0,0
317704,122.58,-556.288,0,0
317964,121.985,-555.146,0,0
318225,121.363,-553.816,0,0
318485,120.692,-552.723,0,0
318745,120.113,-551.473,0,0
319006,119.542,-550.255,0,0
319266,119.129,-549.095,0,0
319526,118.674,-547.831,0,0
319787,118.309,-546.706,0,0
320047,118.036,-545.691,0,0
320307,117.804,-544.665,0,0
320567,117.614,-543.791,0,0
320828,117.391,-542.928,0,0
321088,117.217,-542.201,0,0
321348,116.979,-541.453,0,0
321609,116.547,-540.762,0,0
321869,116.152,-540.144,0,0
322129,115.865,-539.515,0,0
322390,115.376,-538.912,0,0
322650,114.963,-538.425,0,0
322910,114.447,-537.83,0,0
323171,113.903,-537.252,0,0
323431,113.378,-536.657,0,0
323691,112.749,-536.102,0,0
323952,112.186,-535.472,0,0
324212,111.578,-534.811,0,0
324472,110.974,-534.17,0,0
324733,110.364,-533.458,0,0
324993,109.765,-532.738,0,0
325253,109.228,-532.034,0,0
325514,108.706,-531.306,0,0
325774,108.207,-530.564,0,0
326034,107.704,-529.882,0,0
326295,107.222,-529.183,0,0
326555,106.793,-528.54,0,0
326815,106.336,-527.977,0,0
327076,105.911,-527.44,0,0
327336,105.348,-526.903,0,0
327596,104.811,-526.334,0,0
327857,104.193,-525.813,0,0
328117,103.667,-525.334,0,0
328377,102.932,-524.808,0,0
328638,102.374,-524.225,0,0
328898,101.644,-523.629,0,0
329158,101.013,-523.037,0,0
329419,100.3,-522.431,0,0
329679,99.6507,-521.748,0,0
329939,99.0102,-521.166,0,0
330200,98.3098,-520.489,0,0
330460,97.6739,-519.914,0,0
330720.15,96.9834,-519.275,0,0
330980.475,96.4271,-518.651,0,0
331240.8,95.7698,-518.023,0,0
331501.125,95.0871,-517.467,0,0
331761.45,94.4259,-516.944,0,0
332021.775,93.5969,-516.466,0,0
332282.1,92.7994,-515.873,0,0
332542.425,91.8341,-515.364,0,0
332802.75,90.9819,-514.69,0,0
333063.075,90.0221,-514.041,0,0
333323.4,89.0537,-513.199,0,0
333583.725,88.027,-512.413,0,0
333844.05,87.0274,-511.521,0,0
334104.375,86.0742,-510.596,0,0
334364.7,85.1861,-509.602,0,0
334625.025,84.2094,-508.549,0,0
334885.35,83.4255,-507.487,0,0
335145.675,82.5455,-506.389,0,0
335406.0,81.7128,-505.328,0,0
335666.325,80.9078,-504.214,0,0
335926.65,80.0894,-503.047,0,0
336186.975,79.3977,-501.837,0,0
336447.3,78.5999,-500.625,0,0
336707.625,77.9063,-499.363,0,0
336967.95,77.2165,-498.105,0,0
337228.275,76.5826,-496.793,0,0
337488.6,75.94,-495.513,0,0
337748.925,75.3938,-494.116,0,0
338009.25,74.9454,-492.779,0,0
338269.575,74.5104,-491.402,0,0
338529.9,74.1369,-490.116,0,0
338790.225,73.7328,-488.779,0,0
339050.55,73.401,-487.493,0,0
339310.875,73.1162,-486.18,0,0
339571.2,72.8306,-484.914,0,0
339831.525,72.5001,-483.649,0,0
340091.85,72.2577,-482.412,0,0
340352.175,71.9282,-481.18,0,0
340612.5,71.7163,-479.96,0,0
340872.825,71.4874,-478.615,0,0
341133.15,71.2971,-477.324,0,0
341393.475,71.1569,-476.048,0,0
341653.8,71.076,-474.731,0,0
341914.125,70.9609,-473.45,0,0
342174.45,70.8948,-472.134,0,0
342434.775,70.8942,-470.896,0,0
342695.1,70.818,-469.747,0,0
342955.425,70.8882,-468.507,0,0
343215.75,70.9781,-467.305,0,0
343476.075,71.0431,-466.12,0,0
343736.4,71.1728,-464.956,0,0
343996.725,71.3097,-463.777,0,0
344257.05,71.4584,-462.696,0,0
344517.375,71.6364,-461.577,0,0
344777.7,71.9129,-460.519,0,0
345038.025,72.1505,-459.514,0,0
345298.35,72.3749,-458.599,0,0
345558.675,72.667,-457.709,0,0
345819.0,72.8918,-456.84,0,0
346079.325,73.1022,-456.02,0,0
346339.65,73.2796,-455.24,0,0
346599.975,73.4862,-454.513,0,0
346860,73.6416,-453.776,0,0
347121,73.7611,-453.095,0,0
347381,73.8405,-452.41,0,0
347641,73.8691,-451.714,0,0
347902,73.8482,-451.082,0,0
348162,73.7872,-450.401,0,0
348422,73.7296,-449.713,0,0
348683,73.5989,-448.953,0,0
348943,73.4645,-448.168,0,0
349203,73.3225,-447.361,0,0
349464,73.2331,-446.462,0,0
349724,73.1481,-445.615,0,0
349984,73.0688,-444.713,0,0
350245,72.9825,-443.801,0,0
350505,72.9003,-442.879,0,0
350765,72.8004,-441.949,0,0
351025,72.7919,-440.94,0,0
351286,72.6465,-439.895,0,0
351546,72.6862,-438.853,0,0
351806,72.7492,-437.72,0,0
352067,72.9174,-436.619,0,0
352327,73.1292,-435.512,0,0
352587,73.3711,-434.512,0,0
352848,73.6926,-433.435,0,0
353108,74.0529,-432.502,0,0
353368,74.448,-431.626,0,0
353629,74.8854,-430.677,0,0
353889,75.2814,-429.91,0,0
354149,75.6824,-429.133,0,0
354410,76.122,-428.477,0,0
354670,76.4981,-427.763,0,0
354930,76.8861,-427.163,0,0
355191,77.235,-426.502,0,0
355451,77.611,-425.923,0,0
355711,77.9888,-425.45,0,0
355972,78.3447,-425.002,0,0
356232,78.5747,-424.612,0,0
356492,78.7948,-424.238,0,0
356753,78.9116,-423.845,0,0
357013,78.986,-423.508,0,0
357273,78.9519,-423.099,0,0
357534,78.9201,-422.684,0,0
357794,78.8116,-422.198,0,0
358054,78.6301,-421.699,0,0
358315,78.3836,-421.098,0,0
358575,78.1629,-420.448,0,0
358835,77.9443,-419.713,0,0
359096,77.805,-418.887,0,0
359356,77.6566,-417.979,0,0
359616,77.5162,-417.054,0,0
359877,77.5187,-416.071,0,0
360137,77.5198,-415.088,0,0
360397,77.594,-414.095,0,0
360658,77.7443,-413.1,0,0
360918,77.9205,-412.06,0,0
361178,78.1518,-411.098,0,0
361438,78.4322,-410.082,0,0
361699,78.7697,-409.15,0,0
361959,79.1115,-408.246,0,0
362219,79.5216,-407.35,0,0
362480,79.9224,-406.519,0,0
362740.1,80.3488,-405.691,0,0
363000.425,80.7897,-404.896,0,0
363260.75,81.2062,-404.17,0,0
363521.075,81.6625,-403.414,0,0
363781.4,82.0851,-402.681,0,0
364041.725,82.5323,-401.953,0,0
364302.05,83.005,-401.217,0,0
364562.375,83.5155,-400.511,0,0
364822.7,84.0343,-399.875,0,0
365083.025,84.5677,-399.235,0,0
365343.35,85.1115,-398.634,0,0
365603.675,85.6673,-398.111,0,0
365864.0,86.1939,-397.613,0,0
366124.325,86.7479,-397.142,0,0
366384.65,87.3168,-396.767,0,0
366644.975,87.724,-396.399,0,0
366905.3,88.1498,-395.99,0,0
367165.625,88.6052,-395.582,0,0
367425.95,88.9988,-395.189,0,0
367686.275,89.3875,-394.808,0,0
367946.6,89.8647,-394.42,0,0
368206.925,90.2953,-394.072,0,0
368467.25,90.7599,-393.765,0,0
368727.575,91.2236,-393.492,0,0
368987.9,91.6735,-393.311,0,0
369248.225,92.0763,-393.156,0,0
369508.55,92.4631,-393.045,0,0
369768.875,92.7354,-392.999,0,0
370029.2,92.9082,-393.039,0,0
370289.525,93.0462,-393.023,0,0
370549.85,93.0437,-392.989,0,0
370810.175,92.9358,-392.959,0,0
371070.5,92.6867,-392.845,0,0
371330.825,92.4252,-392.612,0,0
371591.15,92.119,-392.228,0,0
371851.475,91.7854,-391.759,0,0
372111.8,91.481,-391.188,0,0
372372.125,91.2434,-390.567,0,0
372632.45,91.052,-389.809,0,0
372892.775,90.9525,-389.007,0,0
373153.1,90.9791,-388.188,0,0
373413.425,91.0042,-387.347,0,0
373673.75,91.0832,-386.6,0,0
373934.075,91.2353,-385.819,0,0
374194.4,91.4139,-385.022,0,0
374454.725,91.6089,-384.233,0,0
374715.05,91.835,-383.524,0,0
374975.375,92.0978,-382.786,0,0
375235.7,92.4027,-382.089,0,0
375496.025,92.6756,-381.344,0,0
375756.35,92.943,-380.637,0,0
376016.675,93.2647,-379.946,0,0
376277.0,93.5985,-379.263,0,0
376537.325,93.9236,-378.607,0,0
376797.65,94.2287,-377.976,0,0
377057.975,94.5924,-377.336,0,0
377318.3,94.8614,-376.696,0,0
377578.625,95.1302,-376.026,0,0
377838.95,95.4234,-375.352,0,0
378099.275,95.723,-374.584,0,0
378359.6,96.1133,-373.885,0,0
378619.925,96.4969,-373.088,0,0
378880,96.9595,-372.354,0,0
379141,97.422,-371.604,0,0
379401,97.9829,-370.85,0,0
379661,98.5855,-370.208,0,0
379922,99.1768,-369.554,0,0
380182,99.7404,-368.987,0,0
380442,100.36,-368.424,0,0
380703,100.926,-367.882,0,0
380963,101.495,-367.382,0,0
381223,102.033,-366.809,0,0
381483,102.577,-366.322,0,0
381744,103.139,-365.752,0,0
382004,103.737,-365.207,0,0
382264,104.346,-364.683,0,0
382525,104.942,-364.163,0,0
382785,105.593,-363.661,0,0
383045,106.297,-363.177,0,0
383306,106.998,-362.757,0,0
383566,107.693,-362.357,0,0
383826,108.308,-361.979,0,0
384087,108.996,-361.649,0,0
384347,109.591,-361.294,0,0
384607,110.268,-360.919,0,0
384868,110.934,-360.617,0,0
385128,111.534,-360.323,0,0
385388,112.213,-360.011,0,0
385649,112.784,-359.744,0,0
385909,113.372,-359.412,0,0
386169,113.941,-359.174,0,0
386430,114.44,-358.833,0,0
386690,115.036,-358.491,0,0
386950,115.596,-358.09,0,0
387211,116.288,-357.773,0,0
387471,116.921,-357.429,0,0
387731,117.545,-357.13,0,0
387992,118.198,-356.8,0,0
388252,118.776,-356.48,0,0
388512,119.418,-356.128,0,0
388773,120.061,-355.709,0,0
389033,120.823,-355.322,0,0
389293,121.602,-354.92,0,0
389554,122.47,-354.566,0,0
389814,123.373,-354.3,0,0
390074,124.243,-354.043,0,0
390335,125.125,-353.886,0,0
390595,125.989,-353.729,0,0
390855,126.806,-353.604,0,0
391116,127.679,-353.499,0,0
391376,128.497,-353.403,0,0
391636,129.335,-353.287,0,0
391896,130.179,-353.214,0,0
392157,130.975,-353.148,0,0
392417,131.812,-353.038,0,0
392677,132.689,-352.95,0,0
392938,133.561,-352.873,0,0
393198,134.508,-352.808,0,0
393458,135.4,-352.764,0,0
393719,136.351,-352.728,0,0
393979,137.316,-352.746,0,0
394239,138.284,-352.715,0,0
394500,139.308,-352.741,0,0
394760.05,140.371,-352.747,0,0
395020.375,141.511,-352.804,0,0
395280.7,142.668,-352.924,0,0
395541.025,143.839,-353.085,0,0
395801.35,145.093,-353.346,0,0
396061.675,146.333,-353.673,0,0
396322.0,147.572,-353.997,0,0
396582.325,148.913,-354.347,0,0
396842.65,150.29,-354.873,0,0
397102.975,151.77,-355.489,0,0
397363.3,153.241,-356.243,0,0
397623.625,154.716,-357.185,0,0
397883.95,156.125,-358.275,0,0
398144.275,157.407,-359.551,0,0
398404.6,158.63,-360.935,0,0
398664.925,159.749,-362.446,0,0
398925.25,160.72,-363.979,0,0
399185.575,161.571,-365.699,0,0
399445.9,162.351,-367.44,0,0
399706.225,162.899,-369.291,0,0
399966.55,163.334,-371.229,0,0
400006.6,163.421,-371.508,0,0