File: Accelerated corrosion test data/2025-10-05_18-00-02/sample_1.csv
Frequency (Hz),Impedance (ohms),Phase (Radians),Temperature (C),Humidity (%)
10000.0,237.646,-12209.3,0,0
10260.325,237.803,-11894.3,0,0
10520.65,227.741,-11615.6,0,0
10780.975,223.238,-11331.2,0,0
11041.3,217.623,-11071.1,0,0
11301.625,211.918,-10814.1,0,0
11561.95,208.895,-10570.4,0,0
11822.275,205.787,-10331,0,0
12082.6,222.71,-10100.7,0,0
12342.925,208.393,-9924.82,0,0
12603.25,192.779,-9713.49,0,0
12863.575,189.424,-9511.88,0,0
13123.9,195.54,-9319.7,0,0
13384.225,183.704,-9148.94,0,0
13644.55,178.761,-8967.38,0,0
13904.875,180.214,-8789.07,0,0
14165.2,192.25,-8654.7,0,0
14425.525,210.086,-8483.59,0,0
14685.8,198.219,-8320.56,0,0
14946.175,177.148,-8221.74,0,0
15206.5,181.569,-8058.69,0,0
15466.825,172.835,-7938.44,0,0
15727.15,171.103,-7811.34,0,0
15987.5,159.099,-7679.9,0,0
16247.8,155.748,-7554.33,0,0
16508.125,153.906,-7431.29,0,0
16768.45,158.154,-7313.96,0,0
17028.775,161.601,-7206.77,0,0
17289.1,152.761,-7103.61,0,0
17549.425,152.596,-6998.2,0,0
17809.75,146.174,-6896.83,0,0
18070.075,145.865,-6796.07,0,0
18330.4,140.393,-6699.62,0,0
18590.725,136.884,-6605.59,0,0
18851.05,136.891,-6507.79,0,0
19111.375,134.667,-6426.61,0,0
19371.7,131.745,-6334.38,0,0
19632.025,130.957,-6245.3,0,0
19892.35,133.955,-6159.69,0,0
20152.675,134.873,-6071.81,0,0
20413.0,154.545,-5984.92,0,0
20673.3,167.497,-5943.26,0,0
20933.65,150.591,-5874.8,0,0
21193.975,155.857,-5808.85,0,0
21454.3,145.575,-5735.57,0,0
21714.625,137.667,-5671.18,0,0
21974.9,134.685,-5584.61,0,0
22235.275,172.953,-5537.57,0,0
22495.6,141.081,-5499.03,0,0
22755.925,126.079,-5430.36,0,0
23016.25,121.751,-5362.88,0,0
23276.6,118.366,-5302.26,0,0
23536.9,115.046,-5241.66,0,0
23797.225,111.812,-5180,0,0
24057.55,114.082,-5118.87,0,0
24317.875,111.847,-5071.01,0,0
24578.2,109.973,-5010.95,0,0
24838.525,109.85,-4961.06,0,0
25098.85,110.066,-4906.03,0,0
25359.175,105.441,-4857.67,0,0
25619.5,104.197,-4806.65,0,0
25879.8,102.696,-4755.22,0,0
26140.1,102.927,-4705.77,0,0
26400.5,101.919,-4656.02,0,0
26660.8,104.254,-4605.01,0,0
26921.1,112.957,-4558.86,0,0
27181.4,119.041,-4523.67,0,0
27441.8,112.013,-4491.25,0,0
27702.1,103.497,-4442.19,0,0
27962.4,110.09,-4392.35,0,0
28222.7,109.347,-4353.84,0,0
28483.1,119.911,-4309.9,0,0
28743.4,130.611,-4292.16,0,0
29003.7,115.862,-4257.67,0,0
29264,118.226,-4220.69,0,0
29524.4,106.598,-4187.3,0,0
29784.7,104.316,-4145.57,0,0
30045,100.612,-4112.92,0,0
30305.3,99.1318,-4074.12,0,0
30565.7,96.6894,-4035.72,0,0
30826,100.362,-4000.86,0,0
31086.3,103.036,-3971.8,0,0
31346.6,98.6738,-3943.41,0,0
31607,93.3127,-3906.63,0,0
31867.3,96.3569,-3872,0,0
32127.6,97.7338,-3841.73,0,0
32387.9,97.2088,-3816.28,0,0
32648.3,92.8152,-3783.91,0,0
32908.6,94.7855,-3755.06,0,0
33168.9,90.0158,-3726.56,0,0
33429.2,88.6151,-3698.1,0,0
33689.6,85.7466,-3668.65,0,0
33949.9,84.5561,-3637.8,0,0
34210.2,86.2696,-3611.01,0,0
34470.5,83.8182,-3584.7,0,0
34730.9,81.7609,-3556.56,0,0
34991.2,80.8409,-3529.73,0,0
35251.5,79.5941,-3502.52,0,0
35511.8,79.2811,-3476.29,0,0
35772.2,78.7411,-3450.94,0,0
36032.5,77.561,-3425.55,0,0
36292.8,76.8606,-3399.96,0,0
36553.1,76.181,-3375.47,0,0
36813.5,75.6632,-3350.48,0,0
37073.8,75.6726,-3326.49,0,0
37334.1,74.9667,-3303.07,0,0
37594.4,74.5751,-3279.72,0,0
37854.8,73.6535,-3256.91,0,0
38115.1,73.2695,-3233.94,0,0
38375.4,72.7839,-3211.15,0,0
38635.7,72.6114,-3189.41,0,0
38896.1,72.1206,-3167.24,0,0
39156.4,72.1663,-3145.39,0,0
39416.7,71.8985,-3124.97,0,0
39677,71.1831,-3103.98,0,0
39937.4,70.5824,-3082.79,0,0
40197.7,70.7967,-3062.12,0,0
40458,70.5521,-3042.02,0,0
40718.3,70.4968,-3021.37,0,0
40978.7,71.8411,-3001.88,0,0
41239,71.8362,-2983.47,0,0
41499.3,71.5387,-2965.63,0,0
41759.6,70.4962,-2946.95,0,0
42020,69.7239,-2928.01,0,0
42280.275,70.0561,-2909.18,0,0
42540.6,70.2766,-2891.55,0,0
42800.925,69.9421,-2874.37,0,0
43061.25,69.0112,-2856.56,0,0
43321.575,68.7907,-2839.26,0,0
43581.9,68.4508,-2822.41,0,0
43842.225,67.5697,-2804.45,0,0
44102.55,67.8647,-2786.93,0,0
44362.875,68.8868,-2770.06,0,0
44623.2,68.6854,-2754.66,0,0
44883.525,68.138,-2738.83,0,0
45143.85,68.3743,-2722.97,0,0
45404.175,68.3976,-2707.18,0,0
45664.5,67.6732,-2692.49,0,0
45924.825,66.9782,-2676.91,0,0
46185.15,66.368,-2661.84,0,0
46445.475,65.2481,-2646.89,0,0
46705.8,64.6829,-2631.4,0,0
46966.125,64.4985,-2616.64,0,0
47226.45,64.2016,-2601.29,0,0
47486.775,64.1248,-2587.14,0,0
47747.1,63.6785,-2573.01,0,0
48007.425,63.1366,-2558.5,0,0
48267.75,62.8992,-2544.22,0,0
48528.075,62.4005,-2531.16,0,0
48788.4,61.475,-2516.92,0,0
49048.725,61.2286,-2502.59,0,0
49309.05,61.0485,-2488.9,0,0
49569.375,60.9189,-2475.73,0,0
49829.7,60.632,-2462.57,0,0
50090.025,60.0107,-2449.38,0,0
50350.35,59.5747,-2436.1,0,0
50610.675,59.3402,-2422.85,0,0
50871.0,59.0962,-2409.93,0,0
51131.325,58.9208,-2397.06,0,0
51391.65,59.1025,-2384.68,0,0
51651.975,58.5361,-2372.5,0,0
51912.3,58.127,-2360.09,0,0
52172.625,58.0998,-2347.73,0,0
52432.95,57.7678,-2335.51,0,0
52693.275,57.7424,-2323.41,0,0
52953.6,57.4899,-2311.61,0,0
53213.925,57.5097,-2299.77,0,0
53474.25,57.3232,-2288.27,0,0
53734.575,57.1127,-2276.6,0,0
53994.9,57.2738,-2265.54,0,0
54255.225,56.7501,-2254.49,0,0
54515.55,56.4391,-2243.16,0,0
54775.875,55.9675,-2231.96,0,0
55036.2,55.7479,-2220.72,0,0
55296.525,55.9265,-2209.6,0,0
55556.85,55.9125,-2199.07,0,0
55817.175,55.5885,-2188.65,0,0
56077.5,54.9593,-2177.73,0,0
56337.825,54.9281,-2167.02,0,0
56598.15,54.9834,-2156.4,0,0
56858.475,54.7809,-2146.15,0,0
57118.8,54.625,-2135.8,0,0
57379.125,54.4546,-2125.31,0,0
57639.45,54.6593,-2115.29,0,0
57899.775,54.4849,-2105.3,0,0
58160.1,54.583,-2095.39,0,0
58420.4,54.4325,-2085.77,0,0
58680.7,54.2832,-2075.98,0,0
58941.1,54.2522,-2066.26,0,0
59201.4,54.3996,-2056.54,0,0
59461.7,54.3296,-2047.4,0,0
59722,54.0549,-2037.99,0,0
59982.4,54.0917,-2028.57,0,0
60242.7,54.0545,-2019.4,0,0
60503,54.165,-2010.22,0,0
60763.3,54.4706,-2001.4,0,0
61023.7,53.9713,-1992.88,0,0
61284,53.6323,-1983.85,0,0
61544.3,53.1964,-1974.71,0,0
61804.6,53.4112,-1965.87,0,0
62065,53.0993,-1957.52,0,0
62325.3,52.6737,-1948.55,0,0
62585.6,52.5777,-1939.77,0,0
62845.9,52.4732,-1930.94,0,0
63106.3,52.5754,-1922.35,0,0
63366.6,52.3126,-1913.82,0,0
63626.9,52.4587,-1905.26,0,0
63887.2,52.5645,-1896.93,0,0
64147.6,52.7604,-1888.5,0,0
64407.9,52.6594,-1880.18,0,0
64668.2,52.9827,-1871.91,0,0
64928.5,53.4294,-1863.67,0,0
65188.9,54.1299,-1855.64,0,0
65449.2,54.7329,-1848.04,0,0
65709.5,55.2457,-1841.05,0,0
65969.8,55.1454,-1833.89,0,0
66230.2,55.0022,-1826.91,0,0
66490.5,54.897,-1819.42,0,0
66750.8,54.7795,-1812.22,0,0
67011.1,54.3387,-1805.14,0,0
67271.5,53.6278,-1797.36,0,0
67531.8,54.217,-1789.68,0,0
67792.1,54.5534,-1782.86,0,0
68052.4,54.2354,-1776.25,0,0
68312.8,53.6879,-1769.08,0,0
68573.1,53.3105,-1761.91,0,0
68833.4,53.4934,-1754.74,0,0
69093.7,53.5497,-1748,0,0
69354.1,52.8738,-1741.15,0,0
69614.4,52.7911,-1734.8,0,0
69874.7,52.135,-1727.89,0,0
70135,51.623,-1720.97,0,0
70395.4,51.1803,-1714.05,0,0
70655.7,50.7139,-1706.97,0,0
70916,50.6245,-1699.99,0,0
71176.3,50.5329,-1693.22,0,0
71436.7,50.4299,-1686.61,0,0
71697,49.8968,-1680.28,0,0
71957.3,49.3617,-1673.45,0,0
72217.6,48.8633,-1666.52,0,0
72478,48.5809,-1659.63,0,0
72738.3,48.3589,-1652.71,0,0
72998.6,48.3449,-1645.87,0,0
73258.9,48.3229,-1639.2,0,0
73519.3,48.2538,-1632.66,0,0
73779.6,48.1704,-1626.13,0,0
74039.9,48.1138,-1619.41,0,0
74300.225,48.258,-1612.94,0,0
74560.55,48.2762,-1606.48,0,0
74820.875,48.4331,-1600.15,0,0
75081.2,48.5164,-1593.92,0,0
75341.525,48.541,-1587.65,0,0
75601.85,48.5377,-1581.32,0,0
75862.175,48.6557,-1574.96,0,0
76122.5,49.0253,-1568.69,0,0
76382.825,49.3683,-1562.73,0,0
76643.15,49.5459,-1556.8,0,0
76903.475,49.6543,-1550.87,0,0
77163.8,49.9572,-1544.9,0,0
77424.125,50.1676,-1539.26,0,0
77684.45,50.2342,-1533.39,0,0
77944.775,50.4254,-1527.46,0,0
78205.1,50.8299,-1521.54,0,0
78465.425,51.4202,-1515.97,0,0
78725.75,51.9333,-1510.83,0,0
78986.075,51.9246,-1505.69,0,0
79246.4,51.9181,-1500.52,0,0
79506.725,51.8877,-1495.18,0,0
79767.05,51.6449,-1489.97,0,0
80027.375,51.4806,-1484.62,0,0
80287.7,51.1796,-1479.31,0,0
80548.025,50.7786,-1473.72,0,0
80808.35,50.767,-1468.1,0,0
81068.675,50.5898,-1462.43,0,0
81329.0,50.7862,-1456.76,0,0
81589.325,50.9665,-1451.38,0,0
81849.65,51.046,-1445.97,0,0
82109.975,51.1623,-1440.62,0,0
82370.3,51.2864,-1435.38,0,0
82630.625,51.2864,-1430,0,0
82890.95,51.3732,-1424.52,0,0
83151.275,51.6456,-1419.13,0,0
83411.6,52.0151,-1413.86,0,0
83671.925,52.259,-1408.6,0,0
83932.25,52.5753,-1403.38,0,0
84192.575,53.0248,-1398.3,0,0
84452.9,53.3813,-1393.14,0,0
84713.225,53.8063,-1388.15,0,0
84973.55,54.4017,-1383.22,0,0
85233.875,54.8439,-1378.48,0,0
85494.2,55.241,-1373.91,0,0
85754.525,55.4783,-1369.27,0,0
86014.85,55.6601,-1364.49,0,0
86275.175,55.8661,-1359.82,0,0
86535.5,56.1163,-1355.24,0,0
86795.825,56.2513,-1350.57,0,0
87056.15,56.4244,-1345.79,0,0
87316.475,56.8377,-1341.17,0,0
87576.8,57.0618,-1336.95,0,0
87837.125,56.7152,-1332.47,0,0
88097.45,56.6804,-1327.49,0,0
88357.775,56.7637,-1322.49,0,0
88618.1,56.9955,-1317.47,0,0
88878.425,57.4124,-1312.75,0,0
89138.75,57.6639,-1307.89,0,0
89399.075,58.0215,-1302.91,0,0
89659.4,58.6375,-1297.85,0,0
89919.725,59.3049,-1293.04,0,0
90180,60.392,-1288.25,0,0
90440.4,61.1759,-1283.86,0,0
90700.7,61.8837,-1279.42,0,0
90961,62.8101,-1274.55,0,0
91221.3,64.2126,-1269.99,0,0
91481.7,65.5422,-1265.79,0,0
91742,67.251,-1261.93,0,0
92002.3,68.3617,-1258.37,0,0
92262.6,69.4107,-1254.58,0,0
92523,70.8684,-1250.76,0,0
92783.3,72.5446,-1247.39,0,0
93043.6,73.9908,-1244.51,0,0
93303.9,75.4748,-1241.78,0,0
93564.3,76.8569,-1239.22,0,0
93824.6,79.0329,-1238.18,0,0
94084.9,78.878,-1238.49,0,0
94345.2,76.3137,-1237.7,0,0
94605.6,73.6417,-1234.3,0,0
94865.9,72.8928,-1230.67,0,0
95126.2,71.1186,-1227.63,0,0
95386.5,69.9698,-1223.9,0,0
95646.9,68.4886,-1220.23,0,0
95907.2,67.1342,-1215.89,0,0
96167.5,66.565,-1211.04,0,0
96427.8,66.7072,-1206.99,0,0
96688.2,66.1716,-1203.47,0,0
96948.5,65.2968,-1199.46,0,0
97208.8,64.5475,-1195.11,0,0
97469.1,64.3221,-1190.55,0,0
97729.5,64.329,-1186.34,0,0
97989.8,64.4787,-1182.32,0,0
98250.1,64.564,-1178.55,0,0
98510.4,64.2939,-1174.84,0,0
98770.8,63.9087,-1171.01,0,0
99031.1,63.5416,-1166.77,0,0
99291.4,63.5145,-1162.64,0,0
99551.7,63.3692,-1158.59,0,0
99812.1,63.3408,-1154.37,0,0
100072,63.5772,-1150.23,0,0
100333,63.7688,-1146.46,0,0
100593,63.7624,-1142.63,0,0
100853,63.736,-1138.68,0,0
101114,63.8206,-1134.73,0,0
101374,63.7825,-1130.94,0,0
101634,63.4649,-1127,0,0
101895,63.0771,-1122.69,0,0
102155,62.896,-1117.91,0,0
102415,63.2866,-1112.95,0,0
102676,64.2852,-1108.11,0,0
102936,65.454,-1103.89,0,0
103196,66.3727,-1099.9,0,0
103457,67.3408,-1095.78,0,0
103717,68.3167,-1091.7,0,0
103977,69.507,-1087.44,0,0
104238,71.2349,-1083.42,0,0
104498,73.0544,-1080.17,0,0
104758,74.1898,-1077.24,0,0
105019,75.2047,-1074,0,0
105279,76.2015,-1070.55,0,0
105539,77.4704,-1067.07,0,0
105800,78.9793,-1063.82,0,0
106060,80.5429,-1060.86,0,0
106320.175,81.9122,-1058.13,0,0
106580.5,83.2069,-1055.33,0,0
106840.825,84.6381,-1052.6,0,0
107101.15,86.0823,-1050.04,0,0
107361.475,87.499,-1047.83,0,0
107621.8,88.5996,-1045.94,0,0
107882.125,89.3321,-1043.75,0,0
108142.45,90.2042,-1041.43,0,0
108402.775,91.2211,-1039.12,0,0
108663.1,92.3284,-1037.12,0,0
108923.425,93.2487,-1035.44,0,0
109183.75,94.0316,-1033.76,0,0
109444.075,94.5173,-1032.3,0,0
109704.4,94.596,-1030.68,0,0
109964.725,94.5912,-1029.04,0,0
110225.05,94.1882,-1027.12,0,0
110485.375,94.0334,-1024.78,0,0
110745.7,94.0741,-1022.42,0,0
111006.025,93.7126,-1020.13,0,0
111266.35,93.8093,-1017.51,0,0
111526.675,94.5655,-1015.03,0,0
111787.0,95.15,-1012.93,0,0
112047.325,95.4347,-1010.87,0,0
112307.65,95.7608,-1008.89,0,0
112567.975,96.1378,-1007.09,0,0
112828.3,96.223,-1005.38,0,0
113088.625,96.2563,-1003.61,0,0
113348.95,96.3279,-1002.07,0,0
113609.275,96.1341,-1000.57,0,0
113869.6,95.7165,-999.092,0,0
114129.925,95.0581,-997.634,0,0
114390.25,94.209,-995.743,0,0
114650.575,93.3345,-993.776,0,0
114910.9,92.5847,-991.772,0,0
115171.225,91.7897,-989.632,0,0
115431.55,90.8588,-987.5,0,0
115691.875,89.8076,-985.3,0,0
115952.2,88.6533,-982.831,0,0
116212.525,87.6644,-980.177,0,0
116472.85,86.6616,-977.556,0,0
116733.175,85.8303,-974.626,0,0
116993.5,85.0241,-971.925,0,0
117253.825,84.1101,-969.031,0,0
117514.15,83.3508,-965.937,0,0
117774.475,82.7092,-962.777,0,0
118034.8,82.2015,-959.568,0,0
118295.125,81.8395,-956.413,0,0
118555.45,81.5385,-953.28,0,0
118815.775,81.3542,-950.17,0,0
119076.1,81.1062,-947.093,0,0
119336.425,81.0229,-943.863,0,0
119596.75,81.1262,-940.768,0,0
119857.075,81.3417,-937.739,0,0
120117.4,81.6655,-934.978,0,0
120377.725,81.8617,-932.408,0,0
120638.05,81.9651,-929.885,0,0
120898.375,81.8276,-927.49,0,0
121158.7,81.7317,-924.933,0,0
121419.025,81.5597,-922.332,0,0
121679.35,81.4148,-919.903,0,0
121939.675,80.9843,-917.345,0,0
122200.0,80.6425,-914.556,0,0
122460,80.3668,-911.859,0,0
122721,79.9732,-909.099,0,0
122981,79.588,-906.132,0,0
123241,79.3685,-903.106,0,0
123502,79.2637,-900.123,0,0
123762,79.1502,-897.125,0,0
124022,79.1068,-894.145,0,0
124283,79.0314,-891.054,0,0
124543,79.1978,-887.992,0,0
124803,79.3635,-885.096,0,0
125064,79.412,-882.135,0,0
125324,79.4899,-879.174,0,0
125584,79.698,-876.192,0,0
125845,79.9674,-873.227,0,0
126105,80.2602,-870.398,0,0
126365,80.4955,-867.505,0,0
126626,80.7792,-864.74,0,0
126886,81.0629,-861.849,0,0
127146,81.2237,-859.015,0,0
127406,81.4719,-855.949,0,0
127667,81.9065,-853.058,0,0
127927,82.2063,-850.067,0,0
128187,82.8308,-847.187,0,0
128448,83.2281,-844.226,0,0
128708,83.8558,-841.456,0,0
128968,84.3753,-838.68,0,0
129229,84.875,-835.81,0,0
129489,85.485,-832.891,0,0
129749,86.2029,-829.855,0,0
130010,87.245,-827.002,0,0
130270,88.3068,-824.367,0,0
130530,89.3714,-821.777,0,0
130791,90.4775,-819.406,0,0
131051,91.4765,-817.166,0,0
131311,92.4287,-815.006,0,0
131572,93.3248,-812.922,0,0
131832,94.0972,-810.922,0,0
132092,94.8202,-808.831,0,0
132353,95.4926,-806.792,0,0
132613,96.1211,-804.746,0,0
132873,96.7896,-802.689,0,0
133134,97.434,-800.625,0,0
133394,98.0653,-798.674,0,0
133654,98.5682,-796.734,0,0
133915,99.0619,-794.752,0,0
134175,99.5202,-792.787,0,0
134435,99.8447,-790.797,0,0
134696,100.164,-788.68,0,0
134956,100.577,-786.401,0,0
135216,101.034,-784.153,0,0
135477,101.702,-781.93,0,0
135737,102.273,-779.763,0,0
135997,102.86,-777.546,0,0
136258,103.667,-775.363,0,0
136518,104.423,-773.337,0,0
136778,105.176,-771.363,0,0
137039,105.971,-769.373,0,0
137299,106.858,-767.371,0,0
137559,107.96,-765.491,0,0
137819,109.112,-764.194,0,0
138080,109.811,-763.099,0,0
138340.125,110.202,-762.037,0,0
138600.45,110.3,-760.882,0,0
138860.775,110.187,-759.465,0,0
139121.1,110.048,-757.801,0,0
139381.425,110.08,-755.997,0,0
139641.75,110.197,-754.325,0,0
139902.075,110.168,-752.715,0,0
140162.4,109.809,-750.988,0,0
140422.725,109.646,-748.842,0,0
140683.05,109.628,-746.713,0,0
140943.375,109.688,-744.652,0,0
141203.7,109.722,-742.608,0,0
141464.025,109.735,-740.467,0,0
141724.35,109.78,-738.349,0,0
141984.675,109.836,-736.012,0,0
142245.0,110.125,-733.69,0,0
142505.325,110.488,-731.548,0,0
142765.65,110.708,-729.446,0,0
143025.975,110.917,-727.312,0,0
143286.3,111.28,-725.295,0,0
143546.625,111.409,-723.186,0,0
143806.95,111.607,-720.911,0,0
144067.275,111.837,-718.716,0,0
144327.6,112.077,-716.429,0,0
144587.925,112.506,-714.038,0,0
144848.25,112.972,-711.794,0,0
145108.575,113.455,-709.598,0,0
145368.9,113.948,-707.45,0,0
145629.225,114.381,-705.266,0,0
145889.55,114.858,-703.055,0,0
146149.875,115.355,-700.838,0,0
146410.2,116.014,-698.626,0,0
146670.525,116.729,-696.45,0,0
146930.85,117.594,-694.521,0,0
147191.175,118.167,-692.951,0,0
147451.5,118.368,-691.159,0,0
147711.825,118.649,-689.001,0,0
147972.15,119.226,-686.832,0,0
148232.475,119.869,-684.869,0,0
148492.8,120.459,-683.077,0,0
148753.125,120.867,-681.425,0,0
149013.45,121.01,-679.539,0,0
149273.775,121.355,-677.456,0,0
149534.1,121.831,-675.508,0,0
149794.425,122.179,-673.719,0,0
150054.75,122.44,-671.944,0,0
150315.075,122.573,-670.073,0,0
150575.4,122.65,-668.237,0,0
150835.725,122.526,-666.367,0,0
151096.05,122.16,-664.339,0,0
151356.375,121.777,-661.868,0,0
151616.7,121.646,-659.177,0,0
151877.025,121.695,-656.478,0,0
152137.35,121.736,-653.799,0,0
152397.675,121.741,-651.063,0,0
152658.0,121.688,-648.077,0,0
152918.325,121.828,-644.789,0,0
153178.65,122.419,-641.345,0,0
153438.975,123.218,-638.258,0,0
153699.3,123.91,-635.213,0,0
153959.625,124.497,-632.045,0,0
154219.95,125.335,-628.64,0,0
154480,126.359,-625.203,0,0
154741,127.601,-621.649,0,0
155001,129.19,-618.189,0,0
155261,130.871,-615.092,0,0
155522,132.414,-611.881,0,0
155782,134.199,-608.478,0,0
156042,136.439,-605.231,0,0
156303,138.726,-602.337,0,0
156563,140.918,-599.405,0,0
156823,143.397,-596.412,0,0
157084,146.328,-593.712,0,0
157344,149.307,-591.62,0,0
157604,151.987,-589.829,0,0
157864,154.333,-588.125,0,0
158125,156.544,-586.304,0,0
158385,158.727,-584.317,0,0
158645,160.974,-582.402,0,0
158906,163.163,-580.624,0,0
159166,165.113,-578.633,0,0
159426,167.198,-576.221,0,0
159687,169.77,-573.634,0,0
159947,172.726,-571.243,0,0
160207,175.941,-568.945,0,0
160468,179.468,-566.857,0,0
160728,183.396,-565.098,0,0
160988,187.479,-563.885,0,0
161249,191.622,-563.293,0,0
161509,195.433,-563.204,0,0
161769,198.711,-563.366,0,0
162030,201.727,-563.426,0,0
162290,204.782,-563.551,0,0
162550,207.539,-563.85,0,0
162811,210.102,-563.921,0,0
163071,212.903,-563.892,0,0
163331,215.86,-564.182,0,0
163592,218.678,-564.791,0,0
163852,221.2,-565.581,0,0
164112,223.455,-566.222,0,0
164373,225.7,-566.757,0,0
164633,228.127,-567.239,0,0
164893,230.686,-567.807,0,0
165154,233.457,-568.579,0,0
165414,236.318,-569.76,0,0
165674,239.127,-571.402,0,0
165935,241.692,-573.595,0,0
166195,243.738,-576.142,0,0
166455,245.247,-578.774,0,0
166716,246.375,-581.394,0,0
166976,247.179,-584.025,0,0
167236,247.582,-586.667,0,0
167497,247.569,-589.238,0,0
167757,247.288,-591.514,0,0
168017,246.778,-593.718,0,0
168277,245.965,-595.728,0,0
168538,244.983,-597.494,0,0
168798,243.776,-599.17,0,0
169058,242.305,-600.483,0,0
169319,240.955,-601.54,0,0
169579,239.368,-602.58,0,0
169839,237.51,-603.233,0,0
170100,235.711,-603.42,0,0
170360.075,234.103,-603.537,0,0
170620.4,232.406,-603.353,0,0
170880.725,230.89,-602.885,0,0
171141.05,229.626,-602.332,0,0
171401.375,228.445,-601.816,0,0
171661.7,227.299,-601.264,0,0
171922.025,226.162,-600.698,0,0
172182.35,224.868,-600.116,0,0
172442.675,223.47,-599.278,0,0
172703.0,222.188,-598.15,0,0
172963.325,221.082,-596.821,0,0
173223.65,220.179,-595.4,0,0
173483.975,219.483,-593.933,0,0
173744.3,218.922,-592.445,0,0
174004.625,218.481,-590.865,0,0
174264.95,218.359,-589.307,0,0
174525.275,218.354,-587.962,0,0
174785.6,218.474,-586.571,0,0
175045.925,218.808,-585.471,0,0
175306.25,219.154,-584.464,0,0
175566.575,219.703,-583.76,0,0
175826.9,220.038,-583.521,0,0
176087.225,219.867,-583.462,0,0
176347.55,219.32,-583.093,0,0
176607.875,218.926,-582.428,0,0
176868.2,218.616,-581.861,0,0
177128.525,218.15,-581.44,0,0
177388.85,217.467,-580.806,0,0
177649.175,216.984,-579.998,0,0
177909.5,216.613,-579.332,0,0
178169.825,216.08,-578.782,0,0
178430.15,215.406,-578.125,0,0
178690.475,214.804,-577.402,0,0
178950.8,214.147,-576.77,0,0
179211.125,213.356,-576.14,0,0
179471.45,212.547,-575.453,0,0
179731.775,211.811,-574.764,0,0
179992.1,210.942,-574.328,0,0
180252.425,209.559,-574.161,0,0
180512.75,207.507,-573.411,0,0
180773.075,205.508,-571.913,0,0
181033.4,203.916,-570.197,0,0
181293.725,202.399,-568.441,0,0
181554.05,200.957,-566.466,0,0
181814.375,199.814,-564.369,0,0
182074.7,198.833,-562.479,0,0
182335.025,197.678,-560.806,0,0
182595.35,196.225,-558.961,0,0
182855.675,194.679,-556.775,0,0
183116.0,193.149,-554.356,0,0
183376.325,191.761,-551.602,0,0
183636.65,190.566,-548.6,0,0
183896.975,189.603,-545.489,0,0
184157.3,188.875,-542.25,0,0
184417.625,188.438,-539.007,0,0
184677.95,188.157,-535.9,0,0
184938.275,187.907,-532.808,0,0
185198.6,187.754,-529.583,0,0
185458.925,187.837,-526.394,0,0
185719.25,188.052,-523.354,0,0
185979.575,188.291,-520.317,0,0
186239.9,188.634,-517.31,0,0
186500,189.062,-514.442,0,0
186761,189.391,-511.658,0,0
187021,189.649,-508.832,0,0
187281,189.939,-505.839,0,0
187542,190.446,-502.803,0,0
187802,190.999,-499.887,0,0
188062,191.453,-497.114,0,0
188322,191.685,-494.115,0,0
188583,192.142,-490.871,0,0
188843,192.851,-487.572,0,0
189103,193.579,-484.309,0,0
189364,194.405,-481.008,0,0
189624,195.377,-477.629,0,0
189884,196.589,-474.427,0,0
190145,197.873,-471.261,0,0
190405,199.094,-468.197,0,0
190665,200.39,-465.115,0,0
190926,201.664,-462.151,0,0
191186,202.839,-459.092,0,0
191446,203.966,-455.901,0,0
191707,205.337,-452.618,0,0
191967,206.895,-449.309,0,0
192227,208.521,-446.085,0,0
192488,210.287,-443.021,0,0
192748,211.796,-440.024,0,0
193008,213.36,-436.834,0,0
193269,214.979,-433.509,0,0
193529,216.747,-430.052,0,0
193789,218.6,-426.661,0,0
194050,220.592,-423.268,0,0
194310,222.732,-419.875,0,0
194570,224.672,-416.472,0,0
194831,226.87,-412.876,0,0
195091,229.253,-409.269,0,0
195351,231.738,-405.633,0,0
195612,234.368,-402.128,0,0
195872,237.068,-398.45,0,0
196132,239.834,-394.788,0,0
196393,242.839,-391.061,0,0
196653,245.956,-387.266,0,0
196913,249.456,-383.424,0,0
197174,253.155,-379.598,0,0
197434,257.195,-376.135,0,0
197694,261.351,-372.811,0,0
197955,265.536,-369.55,0,0
198215,269.827,-366.481,0,0
198475,274.2,-363.661,0,0
198735,278.466,-360.931,0,0
198996,282.593,-358.215,0,0
199256,286.653,-355.302,0,0
199516,290.952,-352.343,0,0
199777,295.194,-349.178,0,0
200037,299.702,-345.976,0,0
200297,304.463,-342.42,0,0
200558,309.613,-338.933,0,0
200818,315.105,-335.365,0,0
201078,320.971,-331.814,0,0
201339,327.4,-328.402,0,0
201599,334.266,-325.197,0,0
201859,341.509,-322.402,0,0
202120,349.067,-319.834,0,0
202380.025,356.867,-317.612,0,0
202640.35,364.962,-315.774,0,0
202900.675,373.166,-314.323,0,0
203161.0,381.653,-313.138,0,0
203421.325,390.406,-312.221,0,0
203681.65,399.391,-311.566,0,0
203941.975,408.763,-311.36,0,0
204202.3,418.483,-311.565,0,0
204462.625,428.941,-312.52,0,0
204722.95,439.512,-314.483,0,0
204983.275,450.232,-317.622,0,0
205243.6,460.557,-321.945,0,0
205503.925,470.108,-327.096,0,0
205764.25,479.021,-332.787,0,0
206024.575,487.435,-338.968,0,0
206284.9,495.204,-345.527,0,0
206545.225,502.52,-352.287,0,0
206805.55,509.531,-359.551,0,0
207065.875,515.787,-367.501,0,0
207326.2,521.095,-375.779,0,0
207586.525,525.305,-383.955,0,0
207846.85,528.958,-391.688,0,0
208107.175,532.391,-399.196,0,0
208367.5,535.662,-406.868,0,0
208627.825,538.402,-414.831,0,0
208888.15,540.27,-422.952,0,0
209148.475,541.323,-430.958,0,0
209408.8,541.566,-438.49,0,0
209669.125,541.108,-445.483,0,0
209929.45,540.325,-451.975,0,0
210189.775,539.092,-457.814,0,0
210450.1,537.709,-462.962,0,0
210710.425,536.224,-467.596,0,0
210970.75,534.729,-471.811,0,0
211231.075,532.941,-475.528,0,0
211491.4,531.156,-478.421,0,0
211751.725,529.546,-480.705,0,0
212012.05,528.238,-482.283,0,0
212272.375,527.339,-483.046,0,0
212532.7,527.406,-483.299,0,0
212793.025,528.673,-483.572,0,0
213053.35,530.735,-484.422,0,0
213313.675,532.993,-486.088,0,0
213574.0,535.036,-488.192,0,0
213834.325,536.821,-490.437,0,0
214094.65,538.524,-492.35,0,0
214354.975,540.631,-494.218,0,0
214615.3,543.096,-496.37,0,0
214875.625,545.569,-498.933,0,0
215135.95,547.861,-501.724,0,0
215396.275,550.146,-504.499,0,0
215656.6,552.428,-507.519,0,0
215916.925,554.373,-510.873,0,0
216177.25,555.729,-513.948,0,0
216437.575,556.943,-516.343,0,0
216697.9,558.683,-518.205,0,0
216958.225,561.057,-519.806,0,0
217218.55,564.204,-521.517,0,0
217478.875,568.144,-523.879,0,0
217739.2,572.149,-527.013,0,0
217999.525,575.902,-530.774,0,0
218259.85,579.277,-534.89,0,0
218520,582.28,-538.929,0,0
218780,585.351,-542.766,0,0
219041,588.61,-546.555,0,0
219301,592.21,-550.567,0,0
219561,596.146,-554.802,0,0
219822,600.16,-559.65,0,0
220082,604.209,-564.848,0,0
220342,608.148,-570.411,0,0
220603,612.176,-576.155,0,0
220863,616.51,-582.408,0,0
221123,620.889,-589.616,0,0
221384,624.893,-597.591,0,0
221644,628.182,-606.043,0,0
221904,631.044,-614.767,0,0
222165,633.478,-623.738,0,0
222425,635.492,-633.322,0,0
222685,636.908,-643.089,0,0
222946,637.569,-652.99,0,0
223206,637.991,-662.849,0,0
223466,637.924,-672.971,0,0
223727,637.556,-683.254,0,0
223987,636.193,-693.861,0,0
224247,634.284,-704.338,0,0
224508,631.938,-714.39,0,0
224768,629.352,-724.441,0,0
225028,626.352,-734.588,0,0
225289,622.972,-745.041,0,0
225549,618.611,-755.426,0,0
225809,613.678,-765.647,0,0
226070,608.011,-775.585,0,0
226330,601.815,-785.436,0,0
226590,594.892,-794.605,0,0
226851,587.82,-803.28,0,0
227111,580.156,-811.822,0,0
227371,571.942,-819.863,0,0
227632,563.216,-827.535,0,0
227892,554.031,-834.484,0,0
228152,544.37,-840.79,0,0
228413,534.457,-846.198,0,0
228673,524.611,-850.895,0,0
228933,514.843,-854.774,0,0
229193,505.318,-858.188,0,0
229454,495.726,-861.249,0,0
229714,486.279,-863.735,0,0
229974,477.029,-865.677,0,0
230235,467.868,-867.415,0,0
230495,458.612,-868.465,0,0
230755,449.614,-868.99,0,0
231016,441.106,-869.059,0,0
231276,432.798,-868.803,0,0
231536,424.846,-868.224,0,0
231797,417.289,-867.365,0,0
232057,410.082,-866.124,0,0
232317,403.545,-864.894,0,0
232578,397.408,-863.766,0,0
232838,391.376,-862.828,0,0
233098,385.526,-862.019,0,0
233359,379.568,-861.147,0,0
233619,373.707,-860.167,0,0
233879,367.965,-859.014,0,0
234140,362.387,-857.853,0,0
234400,356.949,-856.713,0,0
234660.3,351.477,-855.298,0,0
234920.625,346.381,-853.781,0,0
235180.95,341.546,-852.432,0,0
235441.275,336.79,-851.107,0,0
235701.6,331.976,-850.028,0,0
235961.925,326.918,-848.767,0,0
236222.25,322.074,-847.297,0,0
236482.575,317.296,-845.673,0,0
236742.9,312.831,-844.021,0,0
237003.225,308.517,-842.423,0,0
237263.55,304.234,-840.932,0,0
237523.875,299.956,-839.49,0,0
237784.2,295.658,-838.032,0,0
238044.525,291.386,-836.511,0,0
238304.85,287.033,-835.037,0,0
238565.175,282.794,-833.437,0,0
238825.5,278.49,-832.01,0,0
239085.825,273.978,-830.293,0,0
239346.15,269.546,-828.396,0,0
239606.475,265.114,-826.181,0,0
239866.8,260.803,-823.745,0,0
240127.125,256.756,-821.337,0,0
240387.45,252.931,-818.729,0,0
240647.775,249.25,-816.013,0,0
240908.1,245.846,-813.401,0,0
241168.425,242.621,-810.8,0,0
241428.75,239.46,-808.251,0,0
241689.075,236.36,-805.825,0,0
241949.4,233.267,-803.383,0,0
242209.725,230.272,-800.795,0,0
242470.05,227.399,-798.235,0,0
242730.375,224.626,-795.639,0,0
242990.7,221.977,-793.154,0,0
243251.025,219.412,-790.646,0,0
243511.35,217.032,-788.196,0,0
243771.675,214.691,-785.863,0,0
244032.0,212.369,-783.559,0,0
244292.325,209.994,-781.438,0,0
244552.65,207.572,-779.281,0,0
244812.975,205.039,-777.055,0,0
245073.3,202.59,-774.819,0,0
245333.625,200.274,-772.492,0,0
245593.95,198.01,-770.117,0,0
245854.275,195.685,-767.852,0,0
246114.6,193.448,-765.616,0,0
246374.925,191.067,-763.29,0,0
246635.25,188.796,-760.84,0,0
246895.575,186.639,-758.27,0,0
247155.9,184.495,-755.766,0,0
247416.225,182.448,-753.191,0,0
247676.55,180.478,-750.625,0,0
247936.875,178.645,-747.947,0,0
248197.2,176.852,-745.42,0,0
248457.525,175.104,-742.825,0,0
248717.85,173.498,-740.301,0,0
248978.175,171.853,-737.729,0,0
249238.5,170.281,-735.347,0,0
249498.825,168.882,-732.764,0,0
249759.15,167.401,-730.328,0,0
250019.475,166.017,-727.912,0,0
250279.8,164.623,-725.432,0,0
250540,163.208,-723.01,0,0
250800,161.909,-720.668,0,0
251061,160.575,-718.261,0,0
251321,159.238,-715.796,0,0
251581,157.977,-713.395,0,0
251842,156.739,-710.987,0,0
252102,155.455,-708.52,0,0
252362,154.27,-706.026,0,0
252623,153.116,-703.472,0,0
252883,152.017,-700.958,0,0
253143,151.031,-698.432,0,0
253404,150.026,-695.901,0,0
253664,149.053,-693.311,0,0
253924,148.155,-690.7,0,0
254185,147.302,-688.05,0,0
254445,146.628,-685.374,0,0
254705,146.044,-682.74,0,0
254966,145.525,-680.155,0,0
255226,145.128,-677.629,0,0
255486,144.752,-675.118,0,0
255747,144.483,-672.684,0,0
256007,144.168,-670.283,0,0
256267,143.866,-667.973,0,0
256528,143.549,-665.631,0,0
256788,143.291,-663.279,0,0
257048,143.036,-660.896,0,0
257309,142.905,-658.529,0,0
257569,142.797,-656.179,0,0
257829,142.684,-653.741,0,0
258090,142.733,-651.354,0,0
258350,142.845,-648.962,0,0
258610,143.021,-646.572,0,0
258871,143.33,-644.231,0,0
259131,143.725,-641.95,0,0
259391,144.222,-639.693,0,0
259651,144.808,-637.52,0,0
259912,145.438,-635.39,0,0
260172,146.156,-633.402,0,0
260432,146.874,-631.479,0,0
260693,147.65,-629.598,0,0
260953,148.577,-627.77,0,0
261213,149.476,-626.092,0,0
261474,150.44,-624.48,0,0
261734,151.428,-622.983,0,0
261994,152.419,-621.575,0,0
262255,153.373,-620.268,0,0
262515,154.32,-618.965,0,0
262775,155.261,-617.672,0,0
263036,156.325,-616.42,0,0
263296,157.459,-615.25,0,0
263556,158.684,-614.165,0,0
263817,159.98,-613.216,0,0
264077,161.306,-612.432,0,0
264337,162.639,-611.739,0,0
264598,164.082,-611.257,0,0
264858,165.453,-610.913,0,0
265118,166.785,-610.811,0,0
265379,168.121,-610.857,0,0
265639,169.38,-611.076,0,0
265899,170.58,-611.515,0,0
266160,171.682,-612.149,0,0
266420,172.529,-612.951,0,0
266680.25,173.297,-613.973,0,0
266940.575,173.808,-615.123,0,0
267200.9,174.057,-616.422,0,0
267461.225,174.002,-617.808,0,0
267721.55,173.642,-619.226,0,0
267981.875,172.925,-620.621,0,0
268242.2,171.906,-621.885,0,0
268502.525,170.614,-623.007,0,0
268762.85,169.076,-623.967,0,0
269023.175,167.324,-624.644,0,0
269283.5,165.434,-625.075,0,0
269543.825,163.436,-625.261,0,0
269804.15,161.362,-625.149,0,0
270064.475,159.253,-624.747,0,0
270324.8,157.207,-624.058,0,0
270585.125,155.286,-623.153,0,0
270845.45,153.456,-622.108,0,0
271105.775,151.75,-620.871,0,0
271366.1,150.179,-619.522,0,0
271626.425,148.69,-618.054,0,0
271886.75,147.336,-616.432,0,0
272147.075,146.169,-614.738,0,0
272407.4,145.141,-613.028,0,0
272667.725,144.257,-611.29,0,0
272928.05,143.513,-609.511,0,0
273188.375,142.896,-607.74,0,0
273448.7,142.431,-605.945,0,0
273709.025,142.106,-604.251,0,0
273969.35,141.868,-602.622,0,0
274229.675,141.697,-600.997,0,0
274490.0,141.543,-599.49,0,0
274750.325,141.473,-597.971,0,0
275010.65,141.512,-596.51,0,0
275270.975,141.543,-595.052,0,0
275531.3,141.638,-593.717,0,0
275791.625,141.683,-592.412,0,0
276051.95,141.798,-591.052,0,0
276312.275,142.039,-589.691,0,0
276572.6,142.348,-588.382,0,0
276832.925,142.796,-587.174,0,0
277093.25,143.292,-586.041,0,0
277353.575,143.844,-585.06,0,0
277613.9,144.393,-584.218,0,0
277874.225,144.902,-583.468,0,0
278134.55,145.395,-582.811,0,0
278394.875,145.886,-582.205,0,0
278655.2,146.376,-581.711,0,0
278915.525,146.855,-581.311,0,0
279175.85,147.284,-580.972,0,0
279436.175,147.63,-580.763,0,0
279696.5,147.865,-580.676,0,0
279956.825,148.035,-580.622,0,0
280217.15,147.995,-580.608,0,0
280477.475,147.911,-580.52,0,0
280737.8,147.721,-580.472,0,0
280998.125,147.445,-580.337,0,0
281258.45,147.107,-580.242,0,0
281518.775,146.723,-580.079,0,0
281779.1,146.273,-579.852,0,0
282039.425,145.805,-579.6,0,0
282299.75,145.325,-579.32,0,0
282560,144.803,-579.019,0,0
282820,144.224,-578.695,0,0
283081,143.596,-578.315,0,0
283341,142.965,-577.888,0,0
283601,142.285,-577.375,0,0
283862,141.632,-576.825,0,0
284122,140.988,-576.253,0,0
284382,140.361,-575.66,0,0
284643,139.681,-575.065,0,0
284903,138.973,-574.429,0,0
285163,138.231,-573.77,0,0
285424,137.436,-573.026,0,0
285684,136.644,-572.209,0,0
285944,135.877,-571.333,0,0
286205,135.119,-570.459,0,0
286465,134.31,-569.547,0,0
286725,133.436,-568.546,0,0
286986,132.54,-567.374,0,0
287246,131.664,-566.048,0,0
287506,130.859,-564.575,0,0
287767,130.163,-562.936,0,0
288027,129.641,-561.188,0,0
288287,129.329,-559.398,0,0
288548,129.146,-557.54,0,0
288808,129.218,-555.628,0,0
289068,129.565,-553.825,0,0
289329,130.109,-552.184,0,0
289589,130.738,-550.699,0,0
289849,131.464,-549.391,0,0
290109,132.269,-548.32,0,0
290370,133.047,-547.462,0,0
290630,133.735,-546.792,0,0
290890,134.26,-546.268,0,0
291151,134.617,-545.775,0,0
291411,134.872,-545.297,0,0
291671,135.028,-544.802,0,0
291932,135.083,-544.326,0,0
292192,135.049,-543.793,0,0
292452,134.915,-543.216,0,0
292713,134.671,-542.539,0,0
292973,134.396,-541.736,0,0
293233,134.133,-540.806,0,0
293494,133.901,-539.767,0,0
293754,133.689,-538.627,0,0
294014,133.565,-537.404,0,0
294275,133.524,-536.056,0,0
294535,133.626,-534.7,0,0
294795,133.826,-533.275,0,0
295056,134.119,-531.865,0,0
295316,134.513,-530.41,0,0
295576,135.043,-528.92,0,0
295837,135.719,-527.49,0,0
296097,136.554,-526.121,0,0
296357,137.513,-524.835,0,0
296618,138.571,-523.72,0,0
296878,139.651,-522.744,0,0
297138,140.692,-521.897,0,0
297399,141.711,-521.114,0,0
297659,142.716,-520.332,0,0
297919,143.742,-519.581,0,0
298180,144.819,-518.862,0,0
298440,145.923,-518.216,0,0
298700.2,147.056,-517.628,0,0
298960.525,148.213,-517.103,0,0
299220.85,149.362,-516.712,0,0
299481.175,150.53,-516.337,0,0
299741.5,151.657,-516.194,0,0
300001.825,152.713,-515.946,0,0
300262.15,153.675,-515.684,0,0
300522.475,154.621,-515.531,0,0
300782.8,155.602,-515.276,0,0
301043.125,156.628,-514.987,0,0
301303.45,157.779,-514.64,0,0
301563.775,159.074,-514.397,0,0
301824.1,160.495,-514.241,0,0
302084.425,161.859,-514.354,0,0
302344.75,163.377,-514.478,0,0
302605.075,164.841,-514.873,0,0
302865.4,166.12,-515.452,0,0
303125.725,167.472,-516.044,0,0
303386.05,168.584,-516.752,0,0
303646.375,169.652,-517.531,0,0
303906.7,170.757,-518.293,0,0
304167.025,171.698,-519.257,0,0
304427.35,172.602,-520.209,0,0
304687.675,173.281,-521.205,0,0
304948.0,173.977,-522.187,0,0
305208.325,174.46,-523.11,0,0
305468.65,175.07,-523.99,0,0
305728.975,175.761,-524.852,0,0
305989.3,176.334,-525.774,0,0
306249.625,177.074,-526.799,0,0
306509.95,177.726,-527.981,0,0
306770.275,178.361,-529.273,0,0
307030.6,178.764,-530.698,0,0
307290.925,179.073,-532.069,0,0
307551.25,179.29,-533.49,0,0
307811.575,179.331,-534.935,0,0
308071.9,179.447,-536.456,0,0
308332.225,179.362,-537.859,0,0
308592.55,179.209,-539.393,0,0
308852.875,178.769,-540.857,0,0
309113.2,178.416,-542.294,0,0
309373.525,177.942,-543.565,0,0
309633.85,177.482,-544.853,0,0
309894.175,176.996,-546.221,0,0
310154.5,176.378,-547.56,0,0
310414.825,175.8,-548.902,0,0
310675.15,175.123,-550.151,0,0
310935.475,174.398,-551.585,0,0
311195.8,173.49,-552.956,0,0
311456.125,172.53,-554.287,0,0
311716.45,171.39,-555.62,0,0
311976.775,170.132,-556.888,0,0
312237.1,168.826,-558.081,0,0
312497.425,167.435,-559.173,0,0
312757.75,165.891,-560.096,0,0
313018.075,164.39,-561.011,0,0
313278.4,162.84,-561.694,0,0
313538.725,161.288,-562.35,0,0
313799.05,159.774,-562.93,0,0
314059.375,158.211,-563.405,0,0
314319.7,156.721,-563.872,0,0
314580,155.189,-564.287,0,0
314840,153.621,-564.489,0,0
315101,152.254,-564.764,0,0
315361,150.721,-565.137,0,0
315621,149.32,-565.336,0,0
315882,147.742,-565.622,0,0
316142,146.21,-565.918,0,0
316402,144.601,-566.134,0,0
316663,142.884,-566.258,0,0
316923,141.232,-566.238,0,0
317183,139.508,-566.232,0,0
317444,137.842,-566.044,0,0
317704,136.216,-565.889,0,0
317964,134.565,-565.578,0,0
318225,132.933,-565.224,0,0
318485,131.413,-564.779,0,0
318745,129.867,-564.288,0,0
319006,128.347,-563.891,0,0
319266,126.914,-563.375,0,0
319526,125.417,-562.927,0,0
319787,123.897,-562.402,0,0
320047,122.414,-561.736,0,0
320307,120.935,-560.994,0,0
320567,119.497,-560.29,0,0
320828,118.112,-559.554,0,0
321088,116.746,-558.718,0,0
321348,115.484,-557.873,0,0
321609,114.248,-556.937,0,0
321869,112.966,-556.069,0,0
322129,111.759,-555.07,0,0
322390,110.585,-554.063,0,0
322650,109.431,-552.959,0,0
322910,108.393,-551.841,0,0
323171,107.384,-550.641,0,0
323431,106.476,-549.497,0,0
323691,105.646,-548.345,0,0
323952,104.836,-547.137,0,0
324212,104.159,-545.911,0,0
324472,103.574,-544.741,0,0
324733,103.089,-543.547,0,0
324993,102.584,-542.528,0,0
325253,102.195,-541.439,0,0
325514,101.776,-540.46,0,0
325774,101.46,-539.444,0,0
326034,101.122,-538.507,0,0
326295,100.944,-537.607,0,0
326555,100.618,-536.696,0,0
326815,100.417,-535.902,0,0
327076,100.257,-535.124,0,0
327336,100.015,-534.386,0,0
327596,99.838,-533.783,0,0
327857,99.6434,-533.106,0,0
328117,99.4007,-532.528,0,0
328377,99.2539,-532.025,0,0
328638,99.0123,-531.529,0,0
328898,98.7718,-531.001,0,0
329158,98.5361,-530.541,0,0
329419,98.264,-530.165,0,0
329679,97.9839,-529.755,0,0
329939,97.6835,-529.435,0,0
330200,97.4402,-529.094,0,0
330460,96.9529,-528.721,0,0
330720.15,96.5658,-528.422,0,0
330980.475,96.1618,-528.238,0,0
331240.8,95.706,-527.923,0,0
331501.125,95.1996,-527.591,0,0
331761.45,94.6669,-527.314,0,0
332021.775,94.0903,-527.11,0,0
332282.1,93.5222,-526.73,0,0
332542.425,92.852,-526.488,0,0
332802.75,92.1655,-526.201,0,0
333063.075,91.4554,-525.82,0,0
333323.4,90.6996,-525.535,0,0
333583.725,89.9042,-525.085,0,0
333844.05,89.1604,-524.588,0,0
334104.375,88.4354,-524.149,0,0
334364.7,87.6478,-523.641,0,0
334625.025,86.9463,-523.142,0,0
334885.35,86.1384,-522.579,0,0
335145.675,85.3417,-522.002,0,0
335406.0,84.5514,-521.39,0,0
335666.325,83.7499,-520.757,0,0
335926.65,82.9587,-520.112,0,0
336186.975,82.2092,-519.418,0,0
336447.3,81.5201,-518.688,0,0
336707.625,80.8135,-517.937,0,0
336967.95,80.0899,-517.19,0,0
337228.275,79.4622,-516.489,0,0
337488.6,78.7489,-515.728,0,0
337748.925,78.0391,-514.9,0,0
338009.25,77.3885,-514.146,0,0
338269.575,76.7453,-513.313,0,0
338529.9,76.1837,-512.554,0,0
338790.225,75.4826,-511.716,0,0
339050.55,74.9275,-510.901,0,0
339310.875,74.3192,-510.052,0,0
339571.2,73.7467,-509.143,0,0
339831.525,73.2171,-508.399,0,0
340091.85,72.6744,-507.441,0,0
340352.175,72.1711,-506.578,0,0
340612.5,71.6389,-505.675,0,0
340872.825,71.2332,-504.806,0,0
341133.15,70.7107,-503.968,0,0
341393.475,70.2637,-503.063,0,0
341653.8,69.9186,-502.21,0,0
341914.125,69.5636,-501.434,0,0
342174.45,69.0714,-500.583,0,0
342434.775,68.7428,-499.809,0,0
342695.1,68.3484,-498.95,0,0
342955.425,67.8879,-498.244,0,0
343215.75,67.4742,-497.414,0,0
343476.075,67.0632,-496.659,0,0
343736.4,66.6488,-495.837,0,0
343996.725,66.2289,-495.006,0,0
344257.05,65.8152,-494.179,0,0
344517.375,65.3511,-493.368,0,0
344777.7,64.9453,-492.548,0,0
345038.025,64.4621,-491.697,0,0
345298.35,64.0753,-490.841,0,0
345558.675,63.6445,-489.961,0,0
345819.0,63.1813,-489.004,0,0
346079.325,62.9095,-488.078,0,0
346339.65,62.5089,-487.193,0,0
346599.975,62.1299,-486.292,0,0
346860,61.7926,-485.378,0,0
347121,61.4706,-484.395,0,0
347381,61.1829,-483.482,0,0
347641,60.8728,-482.545,0,0
347902,60.5796,-481.644,0,0
348162,60.275,-480.695,0,0
348422,60.0571,-479.729,0,0
348683,59.7271,-478.808,0,0
348943,59.4962,-477.818,0,0
349203,59.3118,-476.901,0,0
349464,59.1237,-475.88,0,0
349724,59.0127,-474.963,0,0
349984,58.8544,-474.042,0,0
350245,58.7005,-473.069,0,0
350505,58.6299,-472.143,0,0
350765,58.5524,-471.211,0,0
351025,58.453,-470.397,0,0
351286,58.407,-469.488,0,0
351546,58.2899,-468.66,0,0
351806,58.315,-467.774,0,0
352067,58.1709,-466.998,0,0
352327,58.137,-466.162,0,0
352587,58.0468,-465.338,0,0
352848,57.9355,-464.498,0,0
353108,57.8529,-463.709,0,0
353368,57.7677,-462.851,0,0
353629,57.6554,-462.025,0,0
353889,57.6324,-461.209,0,0
354149,57.4808,-460.404,0,0
354410,57.5104,-459.552,0,0
354670,57.3811,-458.756,0,0
354930,57.323,-457.877,0,0
355191,57.3261,-456.978,0,0
355451,57.3406,-456.183,0,0
355711,57.3513,-455.364,0,0
355972,57.3638,-454.535,0,0
356232,57.4011,-453.741,0,0
356492,57.4318,-452.872,0,0
356753,57.5077,-452.054,0,0
357013,57.5844,-451.322,0,0
357273,57.623,-450.523,0,0
357534,57.7422,-449.864,0,0
357794,57.8058,-449.131,0,0
358054,57.8031,-448.408,0,0
358315,57.8739,-447.707,0,0
358575,57.9639,-447.012,0,0
358835,57.917,-446.318,0,0
359096,58.0157,-445.577,0,0
359356,58.0324,-444.903,0,0
359616,58.0839,-444.214,0,0
359877,58.1126,-443.455,0,0
360137,58.1362,-442.684,0,0
360397,58.1998,-442.02,0,0
360658,58.3105,-441.303,0,0
360918,58.3916,-440.592,0,0
361178,58.4508,-439.947,0,0
361438,58.4967,-439.268,0,0
361699,58.6259,-438.609,0,0
361959,58.6541,-437.986,0,0
362219,58.7009,-437.34,0,0
362480,58.7064,-436.699,0,0
362740.1,58.7685,-436.008,0,0
363000.425,58.8013,-435.33,0,0
363260.75,58.8841,-434.639,0,0
363521.075,58.8967,-433.952,0,0
363781.4,58.9511,-433.32,0,0
364041.725,59.0037,-432.621,0,0
364302.05,59.1008,-431.942,0,0
364562.375,59.0967,-431.227,0,0
364822.7,59.2089,-430.594,0,0
365083.025,59.2737,-429.801,0,0
365343.35,59.3103,-429.15,0,0
365603.675,59.4272,-428.414,0,0
365864.0,59.4843,-427.716,0,0
366124.325,59.5605,-427.061,0,0
366384.65,59.6656,-426.354,0,0
366644.975,59.7161,-425.673,0,0
366905.3,59.7963,-424.961,0,0
367165.625,59.8411,-424.206,0,0
367425.95,59.8761,-423.475,0,0
367686.275,59.9086,-422.704,0,0
367946.6,60.0031,-421.895,0,0
368206.925,60.081,-421.035,0,0
368467.25,60.2013,-420.146,0,0
368727.575,60.3423,-419.22,0,0
368987.9,60.558,-418.279,0,0
369248.225,60.8331,-417.353,0,0
369508.55,61.2197,-416.401,0,0
369768.875,61.5928,-415.422,0,0
370029.2,62.1038,-414.58,0,0
370289.525,62.6178,-413.662,0,0
370549.85,63.1772,-412.901,0,0
370810.175,63.7997,-412.163,0,0
371070.5,64.4462,-411.394,0,0
371330.825,65.0726,-410.771,0,0
371591.15,65.7554,-410.147,0,0
371851.475,66.3747,-409.574,0,0
372111.8,67.0963,-409.062,0,0
372372.125,67.7636,-408.542,0,0
372632.45,68.453,-408.122,0,0
372892.775,69.1286,-407.716,0,0
373153.1,69.8231,-407.373,0,0
373413.425,70.5389,-407.049,0,0
373673.75,71.1754,-406.857,0,0
373934.075,71.8379,-406.653,0,0
374194.4,72.4612,-406.47,0,0
374454.725,73.0503,-406.362,0,0
374715.05,73.5906,-406.245,0,0
374975.375,74.1413,-406.206,0,0
375235.7,74.6655,-406.183,0,0
375496.025,75.0452,-406.113,0,0
375756.35,75.4554,-406.088,0,0
376016.675,75.8113,-406.051,0,0
376277.0,76.135,-405.99,0,0
376537.325,76.4756,-405.882,0,0
376797.65,76.8396,-405.8,0,0
377057.975,77.1954,-405.729,0,0
377318.3,77.5433,-405.635,0,0
377578.625,77.9158,-405.609,0,0
377838.95,78.2939,-405.544,0,0
378099.275,78.6124,-405.568,0,0
378359.6,78.9847,-405.588,0,0
378619.925,79.2838,-405.606,0,0
378880,79.5133,-405.681,0,0
379141,79.8408,-405.69,0,0
379401,80.0842,-405.772,0,0
379661,80.2863,-405.798,0,0
379922,80.5499,-405.804,0,0
380182,80.8304,-405.872,0,0
380442,81.1008,-405.925,0,0
380703,81.4007,-405.962,0,0
380963,81.6915,-406.135,0,0
381223,81.9957,-406.24,0,0
381483,82.269,-406.495,0,0
381744,82.537,-406.771,0,0
382004,82.7675,-407.138,0,0
382264,82.9483,-407.531,0,0
382525,83.0362,-408.013,0,0
382785,83.0605,-408.415,0,0
383045,82.9722,-408.928,0,0
383306,82.8362,-409.336,0,0
383566,82.6326,-409.807,0,0
383826,82.3126,-410.263,0,0
384087,81.9319,-410.622,0,0
384347,81.5176,-410.965,0,0
384607,81.0172,-411.264,0,0
384868,80.541,-411.446,0,0
385128,80.0047,-411.633,0,0
385388,79.5138,-411.649,0,0
385649,78.9494,-411.797,0,0
385909,78.4608,-411.845,0,0
386169,77.8849,-411.803,0,0
386430,77.3349,-411.878,0,0
386690,76.7087,-411.786,0,0
386950,76.1125,-411.682,0,0
387211,75.452,-411.543,0,0
387471,74.8191,-411.354,0,0
387731,74.2044,-411.081,0,0
387992,73.5963,-410.741,0,0
388252,73.0542,-410.378,0,0
388512,72.5204,-409.937,0,0
388773,72.0513,-409.487,0,0
389033,71.615,-409.014,0,0
389293,71.288,-408.584,0,0
389554,70.938,-408.125,0,0
389814,70.583,-407.641,0,0
390074,70.2973,-407.232,0,0
390335,70.085,-406.795,0,0
390595,69.8727,-406.427,0,0
390855,69.6218,-406.066,0,0
391116,69.3829,-405.729,0,0
391376,69.1719,-405.412,0,0
391636,68.9112,-405.08,0,0
391896,68.6518,-404.852,0,0
392157,68.4073,-404.576,0,0
392417,68.0761,-404.317,0,0
392677,67.735,-404.086,0,0
392938,67.3969,-403.805,0,0
393198,66.9543,-403.517,0,0
393458,66.5503,-403.236,0,0
393719,66.0773,-402.934,0,0
393979,65.5996,-402.538,0,0
394239,65.0979,-402.136,0,0
394500,64.6535,-401.708,0,0
394760.05,64.1875,-401.227,0,0
395020.375,63.6761,-400.751,0,0
395280.7,63.2381,-400.269,0,0
395541.025,62.807,-399.643,0,0
395801.35,62.3667,-399.073,0,0
396061.675,61.9716,-398.441,0,0
396322.0,61.5642,-397.847,0,0
396582.325,61.1791,-397.228,0,0
396842.65,60.8655,-396.559,0,0
397102.975,60.5248,-395.872,0,0
397363.3,60.2574,-395.229,0,0
397623.625,59.8924,-394.53,0,0
397883.95,59.6467,-393.83,0,0
398144.275,59.3528,-393.167,0,0
398404.6,59.1394,-392.426,0,0
398664.925,58.8933,-391.735,0,0
398925.25,58.6872,-391.003,0,0
399185.575,58.4789,-390.295,0,0
399445.9,58.2895,-389.563,0,0
399706.225,58.1416,-388.807,0,0
399966.55,57.958,-388.072,0,0
400006.6,57.9547,-387.983,0,0