File: Accelerated corrosion test data/2025-10-05_18-00-02/sample_6.csv
Frequency (Hz),Impedance (ohms),Phase (Radians),Temperature (C),Humidity (%)
10000.0,4252.71,-6479.06,0,0
10260.325,4114.79,-6404.28,0,0
10520.65,3984.36,-6330.88,0,0
10780.975,3859.01,-6257.65,0,0
11041.3,3739.74,-6184.54,0,0
11301.625,3625.39,-6112.79,0,0
11561.95,3516.09,-6041.19,0,0
11822.275,3411.63,-5970.44,0,0
12082.6,3310.54,-5899.87,0,0
12342.925,3214.79,-5830.03,0,0
12603.25,3124.99,-5760.29,0,0
12863.575,3037.47,-5693.12,0,0
13123.9,2955.43,-5627.59,0,0
13384.225,2873.33,-5564.73,0,0
13644.55,2793.74,-5500.11,0,0
13904.875,2718.73,-5436.14,0,0
14165.2,2646.56,-5373.05,0,0
14425.525,2576.56,-5310.87,0,0
14685.8,2510.86,-5249.94,0,0
14946.175,2447.29,-5190.51,0,0
15206.5,2385.81,-5131.22,0,0
15466.825,2326.44,-5073.45,0,0
15727.15,2269.63,-5016.92,0,0
15987.5,2214.78,-4961.56,0,0
16247.8,2161.46,-4906.62,0,0
16508.125,2110.7,-4852.56,0,0
16768.45,2061.6,-4799.01,0,0
17028.775,2014.59,-4747.39,0,0
17289.1,1968.59,-4696.96,0,0
17549.425,1923.9,-4646.76,0,0
17809.75,1880.96,-4596.75,0,0
18070.075,1838.33,-4548.37,0,0
18330.4,1798.94,-4500.44,0,0
18590.725,1760.16,-4452.33,0,0
18851.05,1723.82,-4405.47,0,0
19111.375,1688.95,-4360.91,0,0
19371.7,1654.14,-4318.01,0,0
19632.025,1618.67,-4274.61,0,0
19892.35,1587.3,-4231.73,0,0
20152.675,1554.31,-4189.77,0,0
20413.0,1522.94,-4148.36,0,0
20673.3,1492.31,-4107.39,0,0
20933.65,1463.03,-4066.96,0,0
21193.975,1434.76,-4027.73,0,0
21454.3,1407.51,-3988.54,0,0
21714.625,1380.95,-3950.56,0,0
21974.9,1354.88,-3912.33,0,0
22235.275,1329.56,-3875.15,0,0
22495.6,1304.99,-3837.26,0,0
22755.925,1283.34,-3799.71,0,0
23016.25,1263.38,-3764.12,0,0
23276.6,1243.59,-3732.83,0,0
23536.9,1221.65,-3701.51,0,0
23797.225,1200.19,-3670.03,0,0
24057.55,1177.76,-3637.9,0,0
24317.875,1156.83,-3605.33,0,0
24578.2,1136.78,-3573.87,0,0
24838.525,1117.51,-3541.73,0,0
25098.85,1098.86,-3510.86,0,0
25359.175,1081.1,-3480.69,0,0
25619.5,1063.29,-3451.16,0,0
25879.8,1045.61,-3421.44,0,0
26140.1,1028.35,-3393,0,0
26400.5,1012.42,-3364.08,0,0
26660.8,996.211,-3335.58,0,0
26921.1,980.901,-3307.38,0,0
27181.4,966.47,-3279.64,0,0
27441.8,952.473,-3252.89,0,0
27702.1,938.552,-3226.32,0,0
27962.4,924.986,-3200.77,0,0
28222.7,910.968,-3175.94,0,0
28483.1,896.715,-3150.81,0,0
28743.4,883.433,-3125.62,0,0
29003.7,870.372,-3100.32,0,0
29264,857.312,-3075.2,0,0
29524.4,846.218,-3050.5,0,0
29784.7,834.589,-3027.2,0,0
30045,823.177,-3003.07,0,0
30305.3,813.609,-2979.98,0,0
30565.7,802.68,-2958.51,0,0
30826,791.747,-2936.59,0,0
31086.3,780.116,-2914.39,0,0
31346.6,769.83,-2892.02,0,0
31607,759.946,-2870.04,0,0
31867.3,750.298,-2847.69,0,0
32127.6,742.11,-2826.5,0,0
32387.9,733.503,-2805.14,0,0
32648.3,726.126,-2784.94,0,0
32908.6,718.297,-2765.24,0,0
33168.9,710.647,-2745.7,0,0
33429.2,703.879,-2726.88,0,0
33689.6,696.813,-2709.73,0,0
33949.9,688.529,-2693.2,0,0
34210.2,679.867,-2675.61,0,0
34470.5,671.638,-2657.7,0,0
34730.9,663.516,-2640.25,0,0
34991.2,656.066,-2622.25,0,0
35251.5,649.201,-2605.26,0,0
35511.8,642.272,-2589.07,0,0
35772.2,634.934,-2573.75,0,0
36032.5,626.37,-2558.13,0,0
36292.8,618.554,-2541.76,0,0
36553.1,610.652,-2525.44,0,0
36813.5,602.91,-2509.39,0,0
37073.8,595.478,-2492.72,0,0
37334.1,588.25,-2476.95,0,0
37594.4,580.978,-2460.82,0,0
37854.8,573.957,-2444.58,0,0
38115.1,567.539,-2428.74,0,0
38375.4,561.042,-2413.1,0,0
38635.7,554.734,-2397.38,0,0
38896.1,548.917,-2381.76,0,0
39156.4,543.074,-2366.24,0,0
39416.7,537.771,-2350.82,0,0
39677,532.466,-2336.27,0,0
39937.4,527.468,-2321.36,0,0
40197.7,522.732,-2307.16,0,0
40458,517.713,-2293.25,0,0
40718.3,512.821,-2279.38,0,0
40978.7,507.829,-2266.06,0,0
41239,502.142,-2252.07,0,0
41499.3,497.896,-2237.98,0,0
41759.6,493.96,-2224.52,0,0
42020,489.899,-2211.93,0,0
42280.275,485.203,-2200.51,0,0
42540.6,479.219,-2187.74,0,0
42800.925,474.248,-2173.93,0,0
43061.25,469.711,-2160.52,0,0
43321.575,465.481,-2146.74,0,0
43581.9,462.421,-2133.66,0,0
43842.225,458.925,-2120.8,0,0
44102.55,455.821,-2108.7,0,0
44362.875,451.728,-2096.46,0,0
44623.2,449.08,-2083.7,0,0
44883.525,446.102,-2071.33,0,0
45143.85,443.848,-2059.16,0,0
45404.175,441.908,-2047.93,0,0
45664.5,439.149,-2036.87,0,0
45924.825,437.106,-2025.63,0,0
46185.15,435.487,-2015.17,0,0
46445.475,433.537,-2005.2,0,0
46705.8,431.144,-1995.82,0,0
46966.125,428.629,-1985.78,0,0
47226.45,426.592,-1976.27,0,0
47486.775,424.376,-1966.89,0,0
47747.1,422.399,-1957.68,0,0
48007.425,420.266,-1949.13,0,0
48267.75,418.035,-1940.68,0,0
48528.075,415.758,-1932.65,0,0
48788.4,413.184,-1925.04,0,0
49048.725,410.33,-1917.51,0,0
49309.05,407.597,-1910.45,0,0
49569.375,403.569,-1903.89,0,0
49829.7,399.197,-1896.98,0,0
50090.025,393.996,-1889.27,0,0
50350.35,389.211,-1881.54,0,0
50610.675,383.91,-1873.34,0,0
50871.0,378.888,-1864.01,0,0
51131.325,374.451,-1854.76,0,0
51391.65,370.326,-1845.67,0,0
51651.975,366.221,-1836.58,0,0
51912.3,362.481,-1827.43,0,0
52172.625,358.808,-1818.03,0,0
52432.95,355.653,-1808.87,0,0
52693.275,352.633,-1800.07,0,0
52953.6,349.845,-1791.68,0,0
53213.925,346.729,-1783.81,0,0
53474.25,343.049,-1775.79,0,0
53734.575,339.339,-1767.36,0,0
53994.9,335.8,-1758.76,0,0
54255.225,332.325,-1750.09,0,0
54515.55,329.197,-1741.36,0,0
54775.875,326.379,-1732.95,0,0
55036.2,323.264,-1724.88,0,0
55296.525,319.741,-1716.57,0,0
55556.85,316.173,-1708.02,0,0
55817.175,312.874,-1699.06,0,0
56077.5,309.829,-1690.06,0,0
56337.825,306.89,-1680.53,0,0
56598.15,305.092,-1670.7,0,0
56858.475,303.841,-1661.88,0,0
57118.8,302.709,-1653.33,0,0
57379.125,301.818,-1645.15,0,0
57639.45,300.92,-1637.51,0,0
57899.775,299.989,-1630.39,0,0
58160.1,298.861,-1623.9,0,0
58420.4,297.187,-1617.41,0,0
58680.7,295.06,-1610.76,0,0
58941.1,293.261,-1603.98,0,0
59201.4,291.341,-1597.39,0,0
59461.7,289.22,-1590.95,0,0
59722,287.089,-1584.6,0,0
59982.4,284.449,-1578,0,0
60242.7,281.77,-1571.32,0,0
60503,279.313,-1564.4,0,0
60763.3,276.96,-1557.4,0,0
61023.7,274.541,-1550.43,0,0
61284,272.146,-1543.58,0,0
61544.3,269.602,-1536.53,0,0
61804.6,267.047,-1529.19,0,0
62065,264.501,-1521.47,0,0
62325.3,262.56,-1513.38,0,0
62585.6,261.324,-1505.23,0,0
62845.9,260.849,-1497.49,0,0
63106.3,260.566,-1490.23,0,0
63366.6,260.727,-1483.65,0,0
63626.9,260.854,-1477.98,0,0
63887.2,260.459,-1472.78,0,0
64147.6,259.586,-1468.33,0,0
64407.9,257.201,-1463.8,0,0
64668.2,254.605,-1458.36,0,0
64928.5,252.197,-1452.34,0,0
65188.9,250.421,-1446.08,0,0
65449.2,248.622,-1439.91,0,0
65709.5,247.251,-1434.15,0,0
65969.8,245.516,-1428.69,0,0
66230.2,243.457,-1423.21,0,0
66490.5,241.219,-1417.32,0,0
66750.8,239.001,-1411.47,0,0
67011.1,236.732,-1405.72,0,0
67271.5,234.298,-1399.78,0,0
67531.8,231.936,-1393.11,0,0
67792.1,230.137,-1386.27,0,0
68052.4,228.415,-1379.79,0,0
68312.8,226.814,-1373.29,0,0
68573.1,225.118,-1366.58,0,0
68833.4,223.918,-1360.27,0,0
69093.7,222.531,-1353.54,0,0
69354.1,221.401,-1347.07,0,0
69614.4,220.384,-1340.73,0,0
69874.7,219.492,-1334.21,0,0
70135,218.682,-1327.84,0,0
70395.4,218,-1321.36,0,0
70655.7,217.484,-1315.18,0,0
70916,217.144,-1309.03,0,0
71176.3,216.858,-1302.94,0,0
71436.7,216.726,-1296.93,0,0
71697,216.849,-1291.38,0,0
71957.3,216.639,-1285.73,0,0
72217.6,216.598,-1280.11,0,0
72478,216.729,-1274.61,0,0
72738.3,216.935,-1269.44,0,0
72998.6,216.995,-1264.45,0,0
73258.9,217.104,-1259.72,0,0
73519.3,217.144,-1255.02,0,0
73779.6,216.963,-1250.51,0,0
74039.9,216.643,-1245.95,0,0
74300.225,216.177,-1241.35,0,0
74560.55,215.926,-1236.73,0,0
74820.875,215.639,-1232.14,0,0
75081.2,215.412,-1227.55,0,0
75341.525,215.207,-1223.08,0,0
75601.85,215.044,-1218.8,0,0
75862.175,214.78,-1214.62,0,0
76122.5,214.395,-1210.32,0,0
76382.825,214.058,-1206.13,0,0
76643.15,213.66,-1201.96,0,0
76903.475,213.242,-1197.74,0,0
77163.8,212.906,-1193.63,0,0
77424.125,212.531,-1189.59,0,0
77684.45,212.155,-1185.6,0,0
77944.775,211.77,-1181.66,0,0
78205.1,211.301,-1177.8,0,0
78465.425,210.754,-1173.94,0,0
78725.75,210.245,-1170.12,0,0
78986.075,209.646,-1166.31,0,0
79246.4,209.027,-1162.5,0,0
79506.725,208.444,-1158.67,0,0
79767.05,207.712,-1154.95,0,0
80027.375,207.096,-1151.13,0,0
80287.7,206.381,-1147.51,0,0
80548.025,205.603,-1143.73,0,0
80808.35,204.855,-1139.91,0,0
81068.675,204.073,-1136.25,0,0
81329.0,203.178,-1132.49,0,0
81589.325,202.364,-1128.71,0,0
81849.65,201.496,-1124.89,0,0
82109.975,200.516,-1121.2,0,0
82370.3,199.731,-1117.29,0,0
82630.625,198.878,-1113.52,0,0
82890.95,197.974,-1109.66,0,0
83151.275,197.056,-1105.73,0,0
83411.6,196.101,-1101.9,0,0
83671.925,195.272,-1097.81,0,0
83932.25,194.393,-1093.74,0,0
84192.575,193.632,-1089.58,0,0
84452.9,192.77,-1085.45,0,0
84713.225,192.254,-1081.26,0,0
84973.55,191.731,-1077.07,0,0
85233.875,191.369,-1072.83,0,0
85494.2,191.035,-1068.77,0,0
85754.525,190.826,-1064.79,0,0
86014.85,190.766,-1060.84,0,0
86275.175,190.539,-1057.03,0,0
86535.5,190.487,-1053.3,0,0
86795.825,190.331,-1049.6,0,0
87056.15,190.224,-1046.03,0,0
87316.475,189.923,-1042.57,0,0
87576.8,189.599,-1039.03,0,0
87837.125,189.148,-1035.42,0,0
88097.45,188.87,-1031.75,0,0
88357.775,188.674,-1028.07,0,0
88618.1,188.561,-1024.44,0,0
88878.425,188.341,-1020.73,0,0
89138.75,188.353,-1017.02,0,0
89399.075,188.7,-1013.35,0,0
89659.4,188.904,-1010.04,0,0
89919.725,189.161,-1006.72,0,0
90180,189.275,-1003.62,0,0
90440.4,189.376,-1000.56,0,0
90700.7,189.772,-997.792,0,0
90961,189.651,-995.04,0,0
91221.3,189.319,-992.611,0,0
91481.7,188.862,-989.816,0,0
91742,188.181,-986.919,0,0
92002.3,187.615,-983.601,0,0
92262.6,187.383,-980.185,0,0
92523,187.189,-977.068,0,0
92783.3,187.089,-973.898,0,0
93043.6,186.839,-971.157,0,0
93303.9,186.335,-967.972,0,0
93564.3,185.949,-964.796,0,0
93824.6,185.559,-961.365,0,0
94084.9,185.429,-957.928,0,0
94345.2,185.427,-954.279,0,0
94605.6,186.056,-950.724,0,0
94865.9,187.036,-947.934,0,0
95126.2,187.354,-945.379,0,0
95386.5,187.604,-942.691,0,0
95646.9,188.042,-940,0,0
95907.2,188.525,-937.576,0,0
96167.5,188.902,-935.393,0,0
96427.8,189.001,-933.262,0,0
96688.2,189.179,-931.198,0,0
96948.5,188.794,-929.527,0,0
97208.8,187.962,-927.371,0,0
97469.1,187.344,-924.716,0,0
97729.5,186.826,-921.911,0,0
97989.8,186.495,-919.153,0,0
98250.1,186.364,-916.147,0,0
98510.4,186.498,-913.078,0,0
98770.8,187.034,-910.118,0,0
99031.1,187.984,-907.522,0,0
99291.4,189.153,-905.577,0,0
99551.7,190.111,-904.406,0,0
99812.1,190.27,-903.576,0,0
100072,189.942,-902.558,0,0
100333,189.433,-901.435,0,0
100593,188.78,-900.237,0,0
100853,187.928,-899.086,0,0
101114,186.657,-897.815,0,0
101374,185.176,-896.201,0,0
101634,183.852,-894.17,0,0
101895,182.659,-891.956,0,0
102155,181.815,-889.774,0,0
102415,180.962,-887.927,0,0
102676,179.998,-886.105,0,0
102936,179.092,-884.426,0,0
103196,177.908,-883.042,0,0
103457,176.121,-881.602,0,0
103717,174.194,-879.772,0,0
103977,172.363,-877.742,0,0
104238,170.208,-875.83,0,0
104498,167.742,-873.728,0,0
104758,165.141,-871.046,0,0
105019,162.621,-868.127,0,0
105279,159.928,-864.778,0,0
105539,157.435,-860.955,0,0
105800,155.274,-856.773,0,0
106060,153.402,-852.388,0,0
106320.175,151.702,-847.737,0,0
106580.5,150.682,-842.825,0,0
106840.825,150.066,-838.095,0,0
107101.15,149.738,-833.476,0,0
107361.475,149.664,-829.14,0,0
107621.8,149.644,-824.877,0,0
107882.125,149.916,-820.496,0,0
108142.45,150.672,-816.537,0,0
108402.775,151.236,-813.062,0,0
108663.1,151.703,-809.505,0,0
108923.425,152.213,-806.096,0,0
109183.75,152.726,-802.917,0,0
109444.075,153.049,-799.611,0,0
109704.4,153.516,-796.446,0,0
109964.725,153.891,-793.097,0,0
110225.05,154.564,-789.989,0,0
110485.375,155.083,-786.889,0,0
110745.7,155.516,-783.552,0,0
111006.025,156.253,-779.984,0,0
111266.35,157.209,-776.995,0,0
111526.675,158.22,-774.272,0,0
111787.0,159.112,-771.51,0,0
112047.325,159.964,-769.001,0,0
112307.65,160.955,-766.057,0,0
112567.975,161.867,-763.661,0,0
112828.3,162.767,-761.145,0,0
113088.625,163.678,-758.652,0,0
113348.95,164.832,-756.325,0,0
113609.275,165.792,-754.267,0,0
113869.6,166.649,-752.077,0,0
114129.925,167.661,-749.863,0,0
114390.25,168.614,-748.151,0,0
114650.575,169.251,-746.233,0,0
114910.9,170.135,-744.189,0,0
115171.225,170.995,-742.373,0,0
115431.55,171.768,-740.604,0,0
115691.875,172.433,-738.706,0,0
115952.2,173.558,-736.802,0,0
116212.525,174.892,-735.243,0,0
116472.85,176.048,-734.304,0,0
116733.175,176.788,-733.606,0,0
116993.5,177.161,-733.027,0,0
117253.825,177.118,-732.352,0,0
117514.15,176.871,-731.522,0,0
117774.475,176.363,-730.63,0,0
118034.8,175.494,-729.49,0,0
118295.125,174.533,-727.744,0,0
118555.45,173.664,-725.639,0,0
118815.775,173.248,-723.233,0,0
119076.1,173.226,-720.83,0,0
119336.425,173.052,-718.618,0,0
119596.75,173.127,-716.04,0,0
119857.075,173.562,-713.383,0,0
120117.4,174.458,-710.776,0,0
120377.725,176.02,-708.634,0,0
120638.05,177.829,-707.179,0,0
120898.375,179.414,-706.597,0,0
121158.7,180.473,-706.622,0,0
121419.025,180.736,-706.985,0,0
121679.35,180.207,-707.125,0,0
121939.675,179.157,-706.9,0,0
122200.0,177.855,-706.042,0,0
122460,176.652,-704.688,0,0
122721,175.679,-703.106,0,0
122981,174.956,-701.492,0,0
123241,174.25,-699.851,0,0
123502,173.597,-698.177,0,0
123762,173.036,-696.501,0,0
124022,172.519,-694.706,0,0
124283,172.058,-693.264,0,0
124543,171.439,-691.75,0,0
124803,170.674,-690.093,0,0
125064,169.995,-688.246,0,0
125324,169.374,-686.431,0,0
125584,168.765,-684.687,0,0
125845,168.153,-682.814,0,0
126105,167.574,-681.008,0,0
126365,166.883,-679.077,0,0
126626,166.167,-677.136,0,0
126886,165.495,-675.05,0,0
127146,164.847,-672.856,0,0
127406,164.372,-670.513,0,0
127667,163.927,-668.198,0,0
127927,163.422,-665.722,0,0
128187,163.532,-663.162,0,0
128448,163.761,-660.706,0,0
128708,164.145,-658.495,0,0
128968,164.614,-656.574,0,0
129229,165.054,-654.889,0,0
129489,165.351,-653.308,0,0
129749,165.625,-651.845,0,0
130010,165.71,-650.475,0,0
130270,165.66,-649.148,0,0
130530,165.594,-647.847,0,0
130791,165.392,-646.537,0,0
131051,165.114,-645.21,0,0
131311,164.725,-643.859,0,0
131572,164.375,-642.487,0,0
131832,163.952,-641.093,0,0
132092,163.453,-639.76,0,0
132353,162.907,-638.365,0,0
132613,162.31,-637.001,0,0
132873,161.637,-635.568,0,0
133134,160.903,-634.116,0,0
133394,160.033,-632.635,0,0
133654,159.129,-631.113,0,0
133915,158.104,-629.436,0,0
134175,157.057,-627.622,0,0
134435,156.082,-625.679,0,0
134696,155.032,-623.657,0,0
134956,154.073,-621.534,0,0
135216,153.086,-619.353,0,0
135477,152.156,-617.149,0,0
135737,151.222,-614.788,0,0
135997,150.333,-612.345,0,0
136258,149.567,-609.819,0,0
136518,148.964,-607.289,0,0
136778,148.355,-604.697,0,0
137039,147.789,-602.207,0,0
137299,147.218,-599.65,0,0
137559,146.746,-596.889,0,0
137819,146.355,-594.233,0,0
138080,146.024,-591.642,0,0
138340.125,145.732,-589.009,0,0
138600.45,145.483,-586.296,0,0
138860.775,145.253,-583.658,0,0
139121.1,145.144,-580.939,0,0
139381.425,145.009,-578.24,0,0
139641.75,144.947,-575.546,0,0
139902.075,144.957,-572.791,0,0
140162.4,145.029,-570.101,0,0
140422.725,145.204,-567.358,0,0
140683.05,145.376,-564.692,0,0
140943.375,145.645,-561.943,0,0
141203.7,146.063,-559.263,0,0
141464.025,146.575,-556.703,0,0
141724.35,147.111,-554.28,0,0
141984.675,147.544,-551.981,0,0
142245.0,147.933,-549.676,0,0
142505.325,148.263,-547.359,0,0
142765.65,148.605,-545.029,0,0
143025.975,148.94,-542.679,0,0
143286.3,149.252,-540.216,0,0
143546.625,149.676,-537.719,0,0
143806.95,150.173,-535.245,0,0
144067.275,150.803,-532.701,0,0
144327.6,151.641,-530.251,0,0
144587.925,152.609,-528.005,0,0
144848.25,153.6,-525.969,0,0
145108.575,154.529,-524.138,0,0
145368.9,155.315,-522.412,0,0
145629.225,156.031,-520.835,0,0
145889.55,156.531,-519.386,0,0
146149.875,156.815,-517.86,0,0
146410.2,156.975,-516.235,0,0
146670.525,157.057,-514.529,0,0
146930.85,157.173,-512.734,0,0
147191.175,157.256,-510.943,0,0
147451.5,157.255,-509.135,0,0
147711.825,157.117,-507.287,0,0
147972.15,156.899,-505.282,0,0
148232.475,156.66,-503.055,0,0
148492.8,156.589,-500.762,0,0
148753.125,156.553,-498.452,0,0
149013.45,156.477,-496.106,0,0
149273.775,156.378,-493.654,0,0
149534.1,156.308,-491.06,0,0
149794.425,156.266,-488.335,0,0
150054.75,156.401,-485.446,0,0
150315.075,156.661,-482.574,0,0
150575.4,156.997,-479.663,0,0
150835.725,157.372,-476.682,0,0
151096.05,157.826,-473.551,0,0
151356.375,158.453,-470.23,0,0
151616.7,159.396,-466.826,0,0
151877.025,160.791,-463.457,0,0
152137.35,162.417,-460.14,0,0
152397.675,164.47,-457.116,0,0
152658.0,166.767,-454.507,0,0
152918.325,169.164,-452.317,0,0
153178.65,171.46,-450.721,0,0
153438.975,173.376,-449.474,0,0
153699.3,174.88,-448.293,0,0
153959.625,176.196,-447.069,0,0
154219.95,177.267,-445.875,0,0
154480,178.131,-444.6,0,0
154741,178.557,-443.034,0,0
155001,179.072,-440.941,0,0
155261,180.025,-438.626,0,0
155522,181.247,-436.297,0,0
155782,182.697,-434.171,0,0
156042,184.35,-432.014,0,0
156303,186.245,-430.015,0,0
156563,188.471,-428.434,0,0
156823,190.709,-427.449,0,0
157084,192.625,-426.786,0,0
157344,194.166,-426.358,0,0
157604,195.275,-425.992,0,0
157864,196.108,-425.651,0,0
158125,196.697,-425.151,0,0
158385,197.045,-424.491,0,0
158645,197.33,-423.682,0,0
158906,197.658,-422.713,0,0
159166,197.845,-421.704,0,0
159426,198.01,-420.556,0,0
159687,198.128,-419.288,0,0
159947,198.216,-417.821,0,0
160207,198.441,-416.334,0,0
160468,198.827,-414.878,0,0
160728,199.092,-413.413,0,0
160988,199.371,-411.875,0,0
161249,199.705,-410.458,0,0
161509,199.978,-408.957,0,0
161769,200.175,-407.608,0,0
162030,200.291,-406.131,0,0
162290,200.219,-404.519,0,0
162550,200.184,-402.802,0,0
162811,200.225,-400.884,0,0
163071,200.321,-398.973,0,0
163331,200.471,-396.974,0,0
163592,200.705,-395.141,0,0
163852,200.773,-393.229,0,0
164112,200.799,-391.294,0,0
164373,200.743,-389.174,0,0
164633,200.722,-386.927,0,0
164893,200.726,-384.497,0,0
165154,200.845,-382.038,0,0
165414,200.993,-379.311,0,0
165674,201.418,-376.501,0,0
165935,202.078,-373.732,0,0
166195,202.918,-371.101,0,0
166455,203.656,-368.595,0,0
166716,204.471,-366.149,0,0
166976,205.222,-363.714,0,0
167236,205.959,-361.256,0,0
167497,206.779,-358.797,0,0
167757,207.548,-356.283,0,0
168017,208.336,-353.798,0,0
168277,209.142,-351.169,0,0
168538,210.101,-348.527,0,0
168798,211.126,-345.912,0,0
169058,212.172,-343.355,0,0
169319,213.258,-340.788,0,0
169579,214.378,-338.275,0,0
169839,215.583,-335.946,0,0
170100,216.586,-333.565,0,0
170360.075,217.524,-331.126,0,0
170620.4,218.496,-328.58,0,0
170880.725,219.458,-325.985,0,0
171141.05,220.557,-323.438,0,0
171401.375,221.615,-320.811,0,0
171661.7,222.678,-318.192,0,0
171922.025,223.776,-315.5,0,0
172182.35,224.894,-312.804,0,0
172442.675,226.099,-310.079,0,0
172703.0,227.254,-307.416,0,0
172963.325,228.374,-304.691,0,0
173223.65,229.513,-301.933,0,0
173483.975,230.664,-299.148,0,0
173744.3,231.765,-296.275,0,0
174004.625,232.861,-293.411,0,0
174264.95,233.907,-290.464,0,0
174525.275,234.939,-287.297,0,0
174785.6,235.985,-284.039,0,0
175045.925,237.087,-280.59,0,0
175306.25,238.326,-276.975,0,0
175566.575,239.731,-273.311,0,0
175826.9,241.257,-269.581,0,0
176087.225,242.82,-265.763,0,0
176347.55,244.527,-261.875,0,0
176607.875,246.334,-257.871,0,0
176868.2,248.287,-253.753,0,0
177128.525,250.448,-249.519,0,0
177388.85,252.754,-245.357,0,0
177649.175,255.214,-241.116,0,0
177909.5,257.828,-236.828,0,0
178169.825,260.589,-232.44,0,0
178430.15,263.529,-228.017,0,0
178690.475,266.724,-223.541,0,0
178950.8,270.253,-219.029,0,0
179211.125,274.035,-214.523,0,0
179471.45,278.095,-210.206,0,0
179731.775,282.442,-206.012,0,0
179992.1,286.968,-202.025,0,0
180252.425,291.651,-198.224,0,0
180512.75,296.471,-194.669,0,0
180773.075,301.355,-191.243,0,0
181033.4,306.365,-187.99,0,0
181293.725,311.377,-184.898,0,0
181554.05,316.446,-181.975,0,0
181814.375,321.621,-179.109,0,0
182074.7,326.953,-176.431,0,0
182335.025,332.359,-174.015,0,0
182595.35,337.707,-171.934,0,0
182855.675,342.894,-169.976,0,0
183116.0,347.903,-168.168,0,0
183376.325,352.805,-166.26,0,0
183636.65,357.816,-164.258,0,0
183896.975,362.915,-162.341,0,0
184157.3,368.054,-160.643,0,0
184417.625,373.228,-159.079,0,0
184677.95,378.357,-157.725,0,0
184938.275,383.317,-156.567,0,0
185198.6,388.072,-155.46,0,0
185458.925,392.73,-154.396,0,0
185719.25,397.116,-153.336,0,0
185979.575,401.362,-152.267,0,0
186239.9,405.266,-151.168,0,0
186500,409.08,-149.78,0,0
186761,412.718,-148.232,0,0
187021,416.122,-146.391,0,0
187281,419.286,-144.211,0,0
187542,422.342,-141.497,0,0
187802,425.528,-138.147,0,0
188062,429.045,-134.239,0,0
188322,432.997,-129.835,0,0
188583,437.381,-125.234,0,0
188843,442.208,-120.184,0,0
189103,447.41,-115.007,0,0
189364,453.175,-109.36,0,0
189624,459.526,-103.373,0,0
189884,466.669,-97.1304,0,0
190145,474.753,-90.8036,0,0
190405,483.77,-84.6591,0,0
190665,493.646,-78.5962,0,0
190926,504.437,-72.9622,0,0
191186,516.027,-67.6924,0,0
191446,528.471,-63.1712,0,0
191707,541.433,-59.6046,0,0
191967,554.642,-56.5126,0,0
192227,568.272,-54.1206,0,0
192488,582.052,-52.4869,0,0
192748,595.919,-51.2821,0,0
193008,609.955,-50.4239,0,0
193269,624.365,-49.8356,0,0
193529,639.275,-49.6631,0,0
193789,654.799,-49.9679,0,0
194050,670.914,-51.0885,0,0
194310,687.483,-53.1682,0,0
194570,704.369,-56.2628,0,0
194831,721.28,-60.3022,0,0
195091,738.47,-65.4755,0,0
195351,755.486,-71.9008,0,0
195612,771.948,-79.3494,0,0
195872,788.035,-87.3657,0,0
196132,803.784,-96.0205,0,0
196393,819.244,-105.441,0,0
196653,834.554,-115.425,0,0
196913,849.695,-126.207,0,0
197174,864.432,-137.879,0,0
197434,878.513,-150.338,0,0
197694,891.954,-163.166,0,0
197955,904.803,-176.396,0,0
198215,917.508,-189.92,0,0
198475,930.052,-203.781,0,0
198735,942.392,-218.414,0,0
198996,954.492,-233.701,0,0
199256,966.262,-249.953,0,0
199516,977.174,-266.755,0,0
199777,987.627,-284.268,0,0
200037,997.528,-302.312,0,0
200297,1006.95,-321.053,0,0
200558,1015.86,-340.275,0,0
200818,1023.86,-360.288,0,0
201078,1031.3,-381.153,0,0
201339,1038.2,-402.737,0,0
201599,1043.88,-425.308,0,0
201859,1048.79,-448.99,0,0
202120,1051.53,-473.085,0,0
202380.025,1052.88,-498.398,0,0
202640.35,1052.02,-523.333,0,0
202900.675,1048.98,-548.224,0,0
203161.0,1044.32,-572.206,0,0
203421.325,1038.13,-595.347,0,0
203681.65,1030.68,-617.704,0,0
203941.975,1022.53,-638.588,0,0
204202.3,1013.4,-658.746,0,0
204462.625,1003.59,-678.409,0,0
204722.95,993.129,-697.004,0,0
204983.275,981.992,-714.831,0,0
205243.6,969.822,-732.07,0,0
205503.925,957.579,-748.086,0,0
205764.25,944.504,-763.411,0,0
206024.575,931.123,-777.535,0,0
206284.9,917.42,-790.784,0,0
206545.225,903.622,-803.121,0,0
206805.55,889.36,-814.206,0,0
207065.875,875.516,-824.765,0,0
207326.2,861.622,-834.065,0,0
207586.525,847.686,-842.966,0,0
207846.85,834.257,-851.021,0,0
208107.175,820.679,-858.356,0,0
208367.5,807.403,-865.199,0,0
208627.825,794.869,-871.296,0,0
208888.15,782.06,-877.03,0,0
209148.475,770.11,-882.524,0,0
209408.8,758.266,-887.56,0,0
209669.125,746.671,-892.457,0,0
209929.45,735.413,-897.343,0,0
210189.775,724.336,-902.363,0,0
210450.1,713.293,-906.832,0,0
210710.425,702.735,-912.23,0,0
210970.75,691.512,-917.267,0,0
211231.075,679.998,-922.649,0,0
211491.4,668.006,-927.876,0,0
211751.725,655.2,-932.807,0,0
212012.05,641.944,-937.111,0,0
212272.375,628.156,-940.65,0,0
212532.7,614.246,-943.633,0,0
212793.025,600.246,-944.879,0,0
213053.35,586.481,-945.537,0,0
213313.675,573.09,-945.558,0,0
213574.0,560.187,-944.947,0,0
213834.325,547.557,-943.925,0,0
214094.65,535.299,-942.35,0,0
214354.975,523.457,-940.539,0,0
214615.3,512.056,-938.096,0,0
214875.625,500.742,-935.585,0,0
215135.95,490.292,-932.724,0,0
215396.275,480.076,-929.237,0,0
215656.6,470.344,-925.876,0,0
215916.925,461.029,-922.42,0,0
216177.25,452.06,-918.821,0,0
216437.575,443.39,-915.142,0,0
216697.9,435.033,-911.416,0,0
216958.225,427.053,-907.68,0,0
217218.55,419.183,-903.838,0,0
217478.875,411.548,-899.904,0,0
217739.2,404.256,-896.037,0,0
217999.525,397.149,-891.981,0,0
218259.85,390.159,-888.011,0,0
218520,383.586,-883.942,0,0
218780,376.997,-879.722,0,0
219041,370.709,-875.595,0,0
219301,364.608,-871.437,0,0
219561,358.623,-867.212,0,0
219822,353.028,-863.066,0,0
220082,347.604,-858.636,0,0
220342,342.18,-854.538,0,0
220603,337.024,-850.059,0,0
220863,331.821,-845.836,0,0
221123,326.992,-841.475,0,0
221384,322.093,-837.083,0,0
221644,317.658,-832.693,0,0
221904,313.188,-828.12,0,0
222165,308.847,-823.687,0,0
222425,304.611,-819.08,0,0
222685,300.59,-814.451,0,0
222946,296.87,-809.844,0,0
223206,293.263,-805.035,0,0
223466,289.879,-800.223,0,0
223727,286.762,-795.425,0,0
223987,283.8,-790.705,0,0
224247,281.067,-785.786,0,0
224508,278.651,-780.919,0,0
224768,276.557,-775.957,0,0
225028,274.529,-771.284,0,0
225289,272.917,-766.631,0,0
225549,271.712,-762.056,0,0
225809,270.635,-757.546,0,0
226070,269.799,-753.312,0,0
226330,269.222,-749.265,0,0
226590,268.996,-745.641,0,0
226851,268.748,-742.075,0,0
227111,268.801,-739.086,0,0
227371,268.822,-736.227,0,0
227632,268.837,-734.05,0,0
227892,268.827,-731.953,0,0
228152,268.53,-730.306,0,0
228413,268.103,-728.849,0,0
228673,267.361,-727.571,0,0
228933,266.488,-726.485,0,0
229193,265.386,-725.307,0,0
229454,263.857,-724.244,0,0
229714,262.166,-723.138,0,0
229974,260.327,-721.793,0,0
230235,258.366,-720.533,0,0
230495,256.331,-719,0,0
230755,254.133,-717.345,0,0
231016,251.846,-715.584,0,0
231276,249.583,-713.596,0,0
231536,247.374,-711.498,0,0
231797,245.185,-709.305,0,0
232057,243.007,-706.986,0,0
232317,240.994,-704.529,0,0
232578,238.999,-701.901,0,0
232838,237.023,-699.28,0,0
233098,235.251,-696.539,0,0
233359,233.483,-693.757,0,0
233619,231.882,-690.889,0,0
233879,230.429,-688.005,0,0
234140,229.034,-685.095,0,0
234400,227.764,-682.095,0,0
234660.3,226.598,-679.161,0,0
234920.625,225.472,-676.248,0,0
235180.95,224.732,-673.364,0,0
235441.275,223.76,-670.418,0,0
235701.6,223.008,-667.516,0,0
235961.925,222.347,-664.742,0,0
236222.25,221.822,-661.91,0,0
236482.575,221.223,-659.111,0,0
236742.9,220.772,-656.4,0,0
237003.225,220.367,-653.669,0,0
237263.55,220.062,-651.014,0,0
237523.875,219.761,-648.352,0,0
237784.2,219.548,-645.757,0,0
238044.525,219.394,-643.157,0,0
238304.85,219.258,-640.558,0,0
238565.175,219.162,-638.086,0,0
238825.5,219.198,-635.557,0,0
239085.825,219.266,-633.053,0,0
239346.15,219.348,-630.609,0,0
239606.475,219.578,-628.278,0,0
239866.8,219.765,-625.923,0,0
240127.125,220.012,-623.546,0,0
240387.45,220.195,-621.278,0,0
240647.775,220.548,-619.004,0,0
240908.1,220.849,-616.714,0,0
241168.425,221.303,-614.521,0,0
241428.75,221.739,-612.287,0,0
241689.075,222.264,-610.082,0,0
241949.4,222.824,-607.928,0,0
242209.725,223.394,-605.795,0,0
242470.05,224.063,-603.656,0,0
242730.375,224.792,-601.606,0,0
242990.7,225.537,-599.563,0,0
243251.025,226.348,-597.459,0,0
243511.35,227.258,-595.422,0,0
243771.675,228.273,-593.487,0,0
244032.0,229.307,-591.578,0,0
244292.325,230.28,-589.683,0,0
244552.65,231.522,-587.825,0,0
244812.975,232.644,-585.977,0,0
245073.3,233.95,-584.211,0,0
245333.625,235.28,-582.445,0,0
245593.95,236.649,-580.697,0,0
245854.275,238.108,-578.997,0,0
246114.6,239.711,-577.293,0,0
246374.925,241.409,-575.617,0,0
246635.25,243.262,-574.049,0,0
246895.575,245.176,-572.565,0,0
247155.9,247.331,-571.161,0,0
247416.225,249.547,-569.925,0,0
247676.55,252.051,-568.842,0,0
247936.875,254.514,-567.953,0,0
248197.2,256.972,-567.418,0,0
248457.525,259.599,-566.862,0,0
248717.85,262.168,-566.728,0,0
248978.175,264.663,-566.709,0,0
249238.5,267.113,-566.937,0,0
249498.825,269.374,-567.275,0,0
249759.15,271.507,-567.765,0,0
250019.475,273.543,-568.168,0,0
250279.8,275.572,-568.616,0,0
250540,277.616,-568.944,0,0
250800,279.639,-569.295,0,0
251061,281.822,-569.615,0,0
251321,284.272,-570.058,0,0
251581,286.847,-570.619,0,0
251842,289.697,-571.472,0,0
252102,292.557,-572.56,0,0
252362,295.589,-574.1,0,0
252623,298.587,-575.93,0,0
252883,301.538,-578.152,0,0
253143,304.344,-580.775,0,0
253404,306.988,-583.751,0,0
253664,309.414,-587.088,0,0
253924,311.524,-590.678,0,0
254185,313.384,-594.543,0,0
254445,314.941,-598.645,0,0
254705,315.989,-603.039,0,0
254966,316.752,-607.491,0,0
255226,317.079,-612.015,0,0
255486,317.033,-616.596,0,0
255747,316.457,-621.165,0,0
256007,315.709,-625.631,0,0
256267,314.494,-630.044,0,0
256528,312.98,-634.401,0,0
256788,311.174,-638.539,0,0
257048,309.055,-642.525,0,0
257309,306.723,-646.368,0,0
257569,304.211,-649.986,0,0
257829,301.384,-653.374,0,0
258090,298.577,-656.556,0,0
258350,295.499,-659.553,0,0
258610,292.295,-662.35,0,0
258871,289,-664.98,0,0
259131,285.593,-667.47,0,0
259391,282.072,-669.663,0,0
259651,278.494,-671.738,0,0
259912,274.907,-673.555,0,0
260172,271.118,-675.267,0,0
260432,267.34,-676.713,0,0
260693,263.569,-677.933,0,0
260953,259.79,-678.978,0,0
261213,255.883,-679.807,0,0
261474,252.153,-680.465,0,0
261734,248.376,-680.913,0,0
261994,244.658,-681.262,0,0
262255,241.05,-681.34,0,0
262515,237.501,-681.326,0,0
262775,234.084,-681.139,0,0
263036,230.684,-680.882,0,0
263296,227.407,-680.545,0,0
263556,224.189,-680.155,0,0
263817,221.071,-679.666,0,0
264077,217.861,-679.082,0,0
264337,214.872,-678.601,0,0
264598,211.846,-677.858,0,0
264858,208.978,-677.052,0,0
265118,206.162,-676.274,0,0
265379,203.293,-675.345,0,0
265639,200.384,-674.59,0,0
265899,197.798,-673.465,0,0
266160,195.257,-672.432,0,0
266420,192.696,-671.419,0,0
266680.25,190.22,-670.25,0,0
266940.575,187.831,-669.097,0,0
267200.9,185.457,-667.958,0,0
267461.225,183.203,-666.745,0,0
267721.55,180.868,-665.571,0,0
267981.875,178.792,-664.351,0,0
268242.2,176.566,-663.139,0,0
268502.525,174.489,-661.946,0,0
268762.85,172.369,-660.565,0,0
269023.175,170.427,-659.331,0,0
269283.5,168.448,-658.114,0,0
269543.825,166.512,-656.822,0,0
269804.15,164.649,-655.469,0,0
270064.475,162.889,-654.206,0,0
270324.8,160.925,-652.896,0,0
270585.125,159.181,-651.55,0,0
270845.45,157.341,-650.242,0,0
271105.775,155.622,-648.884,0,0
271366.1,153.914,-647.613,0,0
271626.425,152.257,-646.248,0,0
271886.75,150.598,-644.853,0,0
272147.075,149.012,-643.482,0,0
272407.4,147.362,-642.092,0,0
272667.725,145.793,-640.705,0,0
272928.05,144.248,-639.344,0,0
273188.375,142.708,-637.884,0,0
273448.7,141.288,-636.455,0,0
273709.025,139.761,-635.059,0,0
273969.35,138.384,-633.598,0,0
274229.675,136.932,-632.172,0,0
274490.0,135.55,-630.651,0,0
274750.325,134.217,-629.202,0,0
275010.65,132.893,-627.728,0,0
275270.975,131.648,-626.219,0,0
275531.3,130.341,-624.736,0,0
275791.625,129.1,-623.266,0,0
276051.95,127.932,-621.766,0,0
276312.275,126.753,-620.247,0,0
276572.6,125.622,-618.718,0,0
276832.925,124.526,-617.244,0,0
277093.25,123.412,-615.712,0,0
277353.575,122.341,-614.219,0,0
277613.9,121.326,-612.724,0,0
277874.225,120.298,-611.19,0,0
278134.55,119.316,-609.684,0,0
278394.875,118.341,-608.147,0,0
278655.2,117.413,-606.652,0,0
278915.525,116.47,-605.047,0,0
279175.85,115.62,-603.501,0,0
279436.175,114.791,-601.962,0,0
279696.5,114.055,-600.327,0,0
279956.825,113.342,-598.772,0,0
280217.15,112.682,-597.174,0,0
280477.475,112.073,-595.648,0,0
280737.8,111.49,-594.163,0,0
280998.125,111.013,-592.696,0,0
281258.45,110.547,-591.315,0,0
281518.775,110.096,-589.977,0,0
281779.1,109.636,-588.679,0,0
282039.425,109.147,-587.431,0,0
282299.75,108.655,-586.207,0,0
282560,108.151,-584.983,0,0
282820,107.604,-583.774,0,0
283081,107.084,-582.545,0,0
283341,106.57,-581.338,0,0
283601,106.06,-580.098,0,0
283862,105.551,-578.859,0,0
284122,105.097,-577.593,0,0
284382,104.671,-576.424,0,0
284643,104.224,-575.172,0,0
284903,103.844,-573.952,0,0
285163,103.483,-572.756,0,0
285424,103.152,-571.6,0,0
285684,102.851,-570.458,0,0
285944,102.521,-569.379,0,0
286205,102.223,-568.338,0,0
286465,101.96,-567.33,0,0
286725,101.617,-566.382,0,0
286986,101.269,-565.464,0,0
287246,100.86,-564.546,0,0
287506,100.407,-563.601,0,0
287767,99.951,-562.641,0,0
288027,99.5058,-561.635,0,0
288287,99.072,-560.656,0,0
288548,98.6611,-559.657,0,0
288808,98.2582,-558.623,0,0
289068,97.8979,-557.621,0,0
289329,97.4993,-556.62,0,0
289589,97.1379,-555.619,0,0
289849,96.8035,-554.615,0,0
290109,96.4742,-553.692,0,0
290370,96.149,-552.71,0,0
290630,95.8165,-551.801,0,0
290890,95.5305,-550.875,0,0
291151,95.2133,-549.961,0,0
291411,94.9158,-549.065,0,0
291671,94.617,-548.181,0,0
291932,94.3181,-547.335,0,0
292192,94.0037,-546.488,0,0
292452,93.7425,-545.698,0,0
292713,93.4363,-544.884,0,0
292973,93.1128,-544.101,0,0
293233,92.7958,-543.377,0,0
293494,92.4516,-542.647,0,0
293754,92.0625,-541.924,0,0
294014,91.6501,-541.226,0,0
294275,91.2064,-540.541,0,0
294535,90.7525,-539.817,0,0
294795,90.2275,-539.09,0,0
295056,89.6508,-538.39,0,0
295316,89.1083,-537.598,0,0
295576,88.5176,-536.841,0,0
295837,87.907,-535.976,0,0
296097,87.2927,-535.11,0,0
296357,86.6903,-534.196,0,0
296618,86.065,-533.243,0,0
296878,85.4669,-532.23,0,0
297138,84.8754,-531.187,0,0
297399,84.3385,-530.093,0,0
297659,83.8318,-528.928,0,0
297919,83.3896,-527.777,0,0
298180,82.9978,-526.568,0,0
298440,82.6968,-525.362,0,0
298700.2,82.4047,-524.183,0,0
298960.525,82.2541,-522.993,0,0
299220.85,82.1442,-521.946,0,0
299481.175,82.0702,-520.868,0,0
299741.5,81.9802,-519.878,0,0
300001.825,81.9697,-518.931,0,0
300262.15,81.875,-518.063,0,0
300522.475,81.8576,-517.178,0,0
300782.8,81.695,-516.341,0,0
301043.125,81.6824,-515.517,0,0
301303.45,81.5661,-514.73,0,0
301563.775,81.3228,-513.958,0,0
301824.1,81.2711,-513.188,0,0
302084.425,81.1455,-512.43,0,0
302344.75,80.9418,-511.687,0,0
302605.075,80.7984,-510.942,0,0
302865.4,80.529,-510.133,0,0
303125.725,80.2972,-509.424,0,0
303386.05,80.166,-508.656,0,0
303646.375,79.9568,-507.916,0,0
303906.7,79.7211,-507.128,0,0
304167.025,79.5249,-506.269,0,0
304427.35,79.3114,-505.429,0,0
304687.675,79.204,-504.682,0,0
304948.0,79.0254,-503.829,0,0
305208.325,78.8897,-503.02,0,0
305468.65,78.8155,-502.165,0,0
305728.975,78.7961,-501.424,0,0
305989.3,78.8104,-500.617,0,0
306249.625,78.8305,-499.929,0,0
306509.95,78.8222,-499.291,0,0
306770.275,78.8183,-498.631,0,0
307030.6,78.8145,-498.03,0,0
307290.925,78.7355,-497.559,0,0
307551.25,78.6767,-497.083,0,0
307811.575,78.5676,-496.619,0,0
308071.9,78.3995,-496.152,0,0
308332.225,78.1795,-495.663,0,0
308592.55,78.0359,-495.174,0,0
308852.875,77.712,-494.65,0,0
309113.2,77.4747,-494.149,0,0
309373.525,77.2119,-493.616,0,0
309633.85,76.9964,-493.009,0,0
309894.175,76.6552,-492.446,0,0
310154.5,76.4528,-491.941,0,0
310414.825,76.1041,-491.359,0,0
310675.15,75.9086,-490.848,0,0
310935.475,75.5784,-490.269,0,0
311195.8,75.2888,-489.666,0,0
311456.125,74.9896,-489.141,0,0
311716.45,74.6659,-488.607,0,0
311976.775,74.3278,-488.023,0,0
312237.1,74.0248,-487.437,0,0
312497.425,73.6592,-486.847,0,0
312757.75,73.3153,-486.212,0,0
313018.075,73.0472,-485.603,0,0
313278.4,72.6353,-485.033,0,0
313538.725,72.3214,-484.358,0,0
313799.05,71.9798,-483.658,0,0
314059.375,71.655,-483.102,0,0
314319.7,71.3627,-482.382,0,0
314580,71.0146,-481.719,0,0
314840,70.7353,-481.086,0,0
315101,70.4172,-480.41,0,0
315361,70.1568,-479.771,0,0
315621,69.8513,-479.107,0,0
315882,69.5459,-478.451,0,0
316142,69.3186,-477.755,0,0
316402,69.0222,-477.111,0,0
316663,68.7332,-476.556,0,0
316923,68.4639,-475.793,0,0
317183,68.2099,-475.225,0,0
317444,67.9253,-474.509,0,0
317704,67.634,-473.882,0,0
317964,67.3811,-473.24,0,0
318225,67.0903,-472.576,0,0
318485,66.7734,-471.933,0,0
318745,66.5367,-471.302,0,0
319006,66.1743,-470.603,0,0
319266,65.9208,-469.986,0,0
319526,65.6017,-469.266,0,0
319787,65.3114,-468.604,0,0
320047,65.0406,-468.013,0,0
320307,64.7134,-467.269,0,0
320567,64.4145,-466.575,0,0
320828,64.1384,-465.912,0,0
321088,63.8805,-465.183,0,0
321348,63.6358,-464.422,0,0
321609,63.3896,-463.724,0,0
321869,63.1557,-463.023,0,0
322129,62.9521,-462.255,0,0
322390,62.7023,-461.551,0,0
322650,62.4785,-460.879,0,0
322910,62.319,-460.211,0,0
323171,62.0758,-459.493,0,0
323431,61.9184,-458.789,0,0
323691,61.7415,-458.168,0,0
323952,61.5298,-457.468,0,0
324212,61.3433,-456.815,0,0
324472,61.1271,-456.179,0,0
324733,60.9434,-455.528,0,0
324993,60.6997,-454.843,0,0
325253,60.4877,-454.212,0,0
325514,60.3109,-453.571,0,0
325774,60.088,-452.925,0,0
326034,59.8451,-452.203,0,0
326295,59.6539,-451.556,0,0
326555,59.4627,-450.92,0,0
326815,59.2316,-450.202,0,0
327076,59.0306,-449.54,0,0
327336,58.837,-448.828,0,0
327596,58.6074,-448.163,0,0
327857,58.444,-447.469,0,0
328117,58.2653,-446.791,0,0
328377,58.0852,-446.096,0,0
328638,57.8541,-445.442,0,0
328898,57.6873,-444.805,0,0
329158,57.5431,-444.098,0,0
329419,57.3807,-443.414,0,0
329679,57.1773,-442.75,0,0
329939,57.0395,-442.06,0,0
330200,56.8291,-441.347,0,0
330460,56.7048,-440.678,0,0
330720.15,56.5019,-439.984,0,0
330980.475,56.3395,-439.345,0,0
331240.8,56.1984,-438.695,0,0
331501.125,56.0686,-437.932,0,0
331761.45,55.9381,-437.315,0,0
332021.775,55.8015,-436.588,0,0
332282.1,55.6504,-435.921,0,0
332542.425,55.4484,-435.29,0,0
332802.75,55.3682,-434.564,0,0
333063.075,55.2285,-433.879,0,0
333323.4,55.092,-433.176,0,0
333583.725,54.9615,-432.541,0,0
333844.05,54.8841,-431.852,0,0
334104.375,54.7271,-431.167,0,0
334364.7,54.6453,-430.478,0,0
334625.025,54.6074,-429.826,0,0
334885.35,54.5122,-429.13,0,0
335145.675,54.3673,-428.488,0,0
335406.0,54.3479,-427.828,0,0
335666.325,54.2823,-427.128,0,0
335926.65,54.2336,-426.531,0,0
336186.975,54.1647,-425.875,0,0
336447.3,54.0674,-425.262,0,0
336707.625,54.0215,-424.635,0,0
336967.95,53.955,-424.002,0,0
337228.275,53.9,-423.364,0,0
337488.6,53.8138,-422.748,0,0
337748.925,53.7499,-422.12,0,0
338009.25,53.7119,-421.541,0,0
338269.575,53.5749,-420.9,0,0
338529.9,53.4615,-420.298,0,0
338790.225,53.4466,-419.679,0,0
339050.55,53.3659,-419.063,0,0
339310.875,53.2508,-418.441,0,0
339571.2,53.2548,-417.781,0,0
339831.525,53.2038,-417.152,0,0
340091.85,53.0868,-416.552,0,0
340352.175,53.0961,-415.939,0,0
340612.5,52.9945,-415.27,0,0
340872.825,52.9732,-414.682,0,0
341133.15,52.9473,-414.049,0,0
341393.475,52.9163,-413.446,0,0
341653.8,52.8968,-412.821,0,0
341914.125,52.9098,-412.186,0,0
342174.45,52.9182,-411.602,0,0
342434.775,52.936,-411,0,0
342695.1,52.9767,-410.372,0,0
342955.425,53.0383,-409.83,0,0
343215.75,53.0898,-409.288,0,0
343476.075,53.1304,-408.792,0,0
343736.4,53.2195,-408.358,0,0
343996.725,53.2646,-407.865,0,0
344257.05,53.2382,-407.489,0,0
344517.375,53.1551,-407.078,0,0
344777.7,53.0897,-406.681,0,0
345038.025,52.9604,-406.26,0,0
345298.35,52.8212,-405.851,0,0
345558.675,52.6448,-405.279,0,0
345819.0,52.4733,-404.796,0,0
346079.325,52.2962,-404.217,0,0
346339.65,52.1744,-403.702,0,0
346599.975,52.0201,-403.11,0,0
346860,51.9185,-402.551,0,0
347121,51.8281,-401.997,0,0
347381,51.6586,-401.381,0,0
347641,51.5858,-400.774,0,0
347902,51.4927,-400.177,0,0
348162,51.4495,-399.567,0,0
348422,51.3642,-399.016,0,0
348683,51.3152,-398.423,0,0
348943,51.2387,-397.845,0,0
349203,51.2159,-397.267,0,0
349464,51.1491,-396.668,0,0
349724,51.1192,-396.095,0,0
349984,51.0356,-395.49,0,0
350245,51.0382,-394.919,0,0
350505,50.9985,-394.374,0,0
350765,50.9956,-393.823,0,0
351025,50.9627,-393.261,0,0
351286,50.9743,-392.667,0,0
351546,50.9731,-392.081,0,0
351806,50.9326,-391.538,0,0
352067,50.9448,-390.979,0,0
352327,50.9358,-390.444,0,0
352587,50.9336,-389.891,0,0
352848,50.9624,-389.365,0,0
353108,50.9893,-388.86,0,0
353368,50.9614,-388.308,0,0
353629,51.0207,-387.83,0,0
353889,51.0372,-387.325,0,0
354149,51.0221,-386.836,0,0
354410,51.0315,-386.329,0,0
354670,50.9702,-385.874,0,0
354930,50.9976,-385.378,0,0
355191,50.961,-384.903,0,0
355451,50.8747,-384.416,0,0
355711,50.8664,-383.898,0,0
355972,50.871,-383.409,0,0
356232,50.8325,-382.925,0,0
356492,50.8062,-382.371,0,0
356753,50.7721,-381.844,0,0
357013,50.7733,-381.326,0,0
357273,50.7642,-380.799,0,0
357534,50.7114,-380.322,0,0
357794,50.7247,-379.746,0,0
358054,50.7576,-379.271,0,0
358315,50.7943,-378.749,0,0
358575,50.8485,-378.287,0,0
358835,50.8676,-377.813,0,0
359096,50.8955,-377.353,0,0
359356,50.9672,-376.884,0,0
359616,50.937,-376.452,0,0
359877,50.9963,-376.084,0,0
360137,50.9704,-375.568,0,0
360397,50.96,-375.184,0,0
360658,50.9363,-374.711,0,0
360918,50.9516,-374.363,0,0
361178,50.9305,-373.933,0,0
361438,50.897,-373.524,0,0
361699,50.8405,-373.047,0,0
361959,50.7842,-372.651,0,0
362219,50.7389,-372.215,0,0
362480,50.6334,-371.776,0,0
362740.1,50.6029,-371.343,0,0
363000.425,50.569,-370.91,0,0
363260.75,50.4632,-370.461,0,0
363521.075,50.3957,-369.979,0,0
363781.4,50.316,-369.518,0,0
364041.725,50.2486,-369.07,0,0
364302.05,50.2292,-368.602,0,0
364562.375,50.1365,-368.1,0,0
364822.7,50.0767,-367.635,0,0
365083.025,50.0185,-367.134,0,0
365343.35,49.944,-366.654,0,0
365603.675,49.9259,-366.148,0,0
365864.0,49.8805,-365.663,0,0
366124.325,49.8597,-365.142,0,0
366384.65,49.8318,-364.707,0,0
366644.975,49.8084,-364.203,0,0
366905.3,49.7649,-363.733,0,0
367165.625,49.7171,-363.254,0,0
367425.95,49.7048,-362.778,0,0
367686.275,49.6848,-362.277,0,0
367946.6,49.6552,-361.79,0,0
368206.925,49.6363,-361.297,0,0
368467.25,49.6088,-360.817,0,0
368727.575,49.6021,-360.369,0,0
368987.9,49.5535,-359.877,0,0
369248.225,49.5638,-359.358,0,0
369508.55,49.5394,-358.934,0,0
369768.875,49.5074,-358.385,0,0
370029.2,49.5308,-357.904,0,0
370289.525,49.4948,-357.431,0,0
370549.85,49.576,-356.938,0,0
370810.175,49.5509,-356.452,0,0
371070.5,49.5716,-355.989,0,0
371330.825,49.6291,-355.515,0,0
371591.15,49.6416,-355.044,0,0
371851.475,49.7033,-354.587,0,0
372111.8,49.7404,-354.119,0,0
372372.125,49.801,-353.686,0,0
372632.45,49.8467,-353.274,0,0
372892.775,49.9129,-352.841,0,0
373153.1,50.0095,-352.45,0,0
373413.425,50.0536,-352.066,0,0
373673.75,50.1402,-351.732,0,0
373934.075,50.1565,-351.406,0,0
374194.4,50.1586,-351.097,0,0
374454.725,50.1398,-350.77,0,0
374715.05,50.1229,-350.451,0,0
374975.375,50.036,-350.099,0,0
375235.7,49.9563,-349.804,0,0
375496.025,49.8688,-349.452,0,0
375756.35,49.7625,-349.099,0,0
376016.675,49.6467,-348.721,0,0
376277.0,49.5298,-348.334,0,0
376537.325,49.3874,-347.888,0,0
376797.65,49.3086,-347.495,0,0
377057.975,49.1983,-347.046,0,0
377318.3,49.0789,-346.636,0,0
377578.625,48.969,-346.229,0,0
377838.95,48.8851,-345.793,0,0
378099.275,48.7856,-345.368,0,0
378359.6,48.6451,-344.942,0,0
378619.925,48.5561,-344.476,0,0
378880,48.4425,-344.05,0,0
379141,48.3354,-343.576,0,0
379401,48.1938,-343.126,0,0
379661,48.0778,-342.653,0,0
379922,47.9343,-342.161,0,0
380182,47.8469,-341.654,0,0
380442,47.7103,-341.147,0,0
380703,47.5784,-340.638,0,0
380963,47.475,-340.053,0,0
381223,47.4009,-339.543,0,0
381483,47.3317,-338.971,0,0
381744,47.2408,-338.375,0,0
382004,47.2059,-337.813,0,0
382264,47.1977,-337.23,0,0
382525,47.2116,-336.651,0,0
382785,47.2818,-336.052,0,0
383045,47.3556,-335.603,0,0
383306,47.3955,-335.1,0,0
383566,47.539,-334.568,0,0
383826,47.588,-334.186,0,0
384087,47.6181,-333.793,0,0
384347,47.6005,-333.423,0,0
384607,47.5822,-333.034,0,0
384868,47.5549,-332.627,0,0
385128,47.471,-332.229,0,0
385388,47.3883,-331.781,0,0
385649,47.3069,-331.32,0,0
385909,47.2546,-330.855,0,0
386169,47.1887,-330.412,0,0
386430,47.0842,-329.933,0,0
386690,47.0225,-329.449,0,0
386950,46.9472,-328.959,0,0
387211,46.8466,-328.463,0,0
387471,46.8087,-327.951,0,0
387731,46.7497,-327.455,0,0
387992,46.6907,-326.974,0,0
388252,46.6339,-326.399,0,0
388512,46.6088,-325.904,0,0
388773,46.5568,-325.377,0,0
389033,46.5027,-324.86,0,0
389293,46.4967,-324.31,0,0
389554,46.4582,-323.809,0,0
389814,46.4256,-323.274,0,0
390074,46.4032,-322.768,0,0
390335,46.3843,-322.222,0,0
390595,46.3534,-321.696,0,0
390855,46.3548,-321.164,0,0
391116,46.3688,-320.642,0,0
391376,46.3274,-320.105,0,0
391636,46.3393,-319.605,0,0
391896,46.3306,-319.036,0,0
392157,46.3063,-318.529,0,0
392417,46.3463,-318.022,0,0
392677,46.306,-317.468,0,0
392938,46.336,-316.952,0,0
393198,46.3354,-316.423,0,0
393458,46.3363,-315.88,0,0
393719,46.3516,-315.363,0,0
393979,46.3439,-314.821,0,0
394239,46.3536,-314.304,0,0
394500,46.3958,-313.754,0,0
394760.05,46.4003,-313.247,0,0
395020.375,46.4138,-312.696,0,0
395280.7,46.4225,-312.165,0,0
395541.025,46.4468,-311.617,0,0
395801.35,46.4376,-311.108,0,0
396061.675,46.5072,-310.549,0,0
396322.0,46.5328,-310.009,0,0
396582.325,46.5774,-309.481,0,0
396842.65,46.5687,-308.942,0,0
397102.975,46.6515,-308.399,0,0
397363.3,46.6781,-307.849,0,0
397623.625,46.7122,-307.31,0,0
397883.95,46.7662,-306.768,0,0
398144.275,46.7884,-306.233,0,0
398404.6,46.8474,-305.684,0,0
398664.925,46.8929,-305.148,0,0
398925.25,46.9474,-304.626,0,0
399185.575,46.9785,-304.068,0,0
399445.9,47.0578,-303.526,0,0
399706.225,47.1161,-302.998,0,0
399966.55,47.1437,-302.457,0,0
400006.6,47.1654,-302.385,0,0