File: Accelerated corrosion test data/2025-10-05_18-00-02/sample_2.csv
Frequency (Hz),Impedance (ohms),Phase (Radians),Temperature (C),Humidity (%)
10000.0,228.202,-11364.1,0,0
10260.325,222.332,-11078.3,0,0
10520.65,216.865,-10806,0,0
10780.975,212.307,-10546.8,0,0
11041.3,206.924,-10301.3,0,0
11301.625,202.826,-10065.1,0,0
11561.95,198.976,-9838.64,0,0
11822.275,195.829,-9628.05,0,0
12082.6,193.804,-9422.43,0,0
12342.925,186.348,-9226.08,0,0
12603.25,182.574,-9035.86,0,0
12863.575,179.488,-8853.23,0,0
13123.9,176.797,-8681.47,0,0
13384.225,172.653,-8511.47,0,0
13644.55,169.972,-8346.79,0,0
13904.875,184.28,-8192.67,0,0
14165.2,165.259,-8050.66,0,0
14425.525,161.918,-7901.32,0,0
14685.8,162.701,-7756.91,0,0
14946.175,161.016,-7629.92,0,0
15206.5,165.967,-7505.75,0,0
15466.825,161.295,-7372.85,0,0
15727.15,150.594,-7261.43,0,0
15987.5,147.113,-7140.56,0,0
16247.8,146.98,-7026.34,0,0
16508.125,142.386,-6917.38,0,0
16768.45,140.154,-6809.85,0,0
17028.775,138.899,-6706.31,0,0
17289.1,137.547,-6606.22,0,0
17549.425,134.183,-6507.64,0,0
17809.75,132.283,-6412.77,0,0
18070.075,129.555,-6320.09,0,0
18330.4,128.228,-6229.8,0,0
18590.725,127.966,-6141.91,0,0
18851.05,126.451,-6056.75,0,0
19111.375,128.132,-5975.66,0,0
19371.7,127.708,-5898.03,0,0
19632.025,122.552,-5821.02,0,0
19892.35,120.042,-5743.7,0,0
20152.675,118.48,-5668.52,0,0
20413.0,117.751,-5594.62,0,0
20673.3,116.99,-5522.46,0,0
20933.65,117.548,-5451.61,0,0
21193.975,122.34,-5384.71,0,0
21454.3,128.139,-5320.94,0,0
21714.625,127.155,-5265.91,0,0
21974.9,120.346,-5203.39,0,0
22235.275,118.449,-5149.14,0,0
22495.6,114.299,-5088.92,0,0
22755.925,110.713,-5028.21,0,0
23016.25,111.388,-4972.75,0,0
23276.6,112.199,-4917.96,0,0
23536.9,107.85,-4863.78,0,0
23797.225,106.306,-4809.64,0,0
24057.55,105.449,-4758.85,0,0
24317.875,102.59,-4708.67,0,0
24578.2,100.481,-4657.85,0,0
24838.525,99.796,-4608.06,0,0
25098.85,98.6193,-4559.75,0,0
25359.175,97.3766,-4512.36,0,0
25619.5,96.6794,-4466.66,0,0
25879.8,95.7472,-4420.41,0,0
26140.1,96.3256,-4376.11,0,0
26400.5,95.1185,-4332.7,0,0
26660.8,95.6689,-4291.43,0,0
26921.1,94.353,-4249.56,0,0
27181.4,93.1068,-4210.16,0,0
27441.8,91.8662,-4169.46,0,0
27702.1,90.0489,-4129.88,0,0
27962.4,89.1286,-4089.75,0,0
28222.7,89.7169,-4051,0,0
28483.1,89.1758,-4014.35,0,0
28743.4,88.4582,-3976.9,0,0
29003.7,89.4792,-3939.03,0,0
29264,90.4428,-3904.89,0,0
29524.4,92.1984,-3868.53,0,0
29784.7,96.5976,-3839.53,0,0
30045,92.1006,-3808.23,0,0
30305.3,93.3877,-3775.54,0,0
30565.7,90.4039,-3747.64,0,0
30826,87.5541,-3715.32,0,0
31086.3,86.2286,-3682.92,0,0
31346.6,84.4483,-3652.54,0,0
31607,84.1849,-3621.26,0,0
31867.3,82.9522,-3592.74,0,0
32127.6,81.7049,-3562.21,0,0
32387.9,81.8359,-3532.04,0,0
32648.3,82.7226,-3503.89,0,0
32908.6,82.9594,-3478.36,0,0
33168.9,81.2803,-3451.45,0,0
33429.2,79.2431,-3424.18,0,0
33689.6,79.0953,-3397.85,0,0
33949.9,78.2696,-3371.8,0,0
34210.2,76.6758,-3346.04,0,0
34470.5,75.7307,-3319.79,0,0
34730.9,75.3035,-3294.29,0,0
34991.2,75.0394,-3269.43,0,0
35251.5,74.4453,-3244.87,0,0
35511.8,73.743,-3220.77,0,0
35772.2,73.2448,-3196.99,0,0
36032.5,72.9261,-3173.76,0,0
36292.8,72.1794,-3150.28,0,0
36553.1,71.5798,-3127.64,0,0
36813.5,71.1775,-3105.09,0,0
37073.8,70.9437,-3082.76,0,0
37334.1,70.4719,-3060.87,0,0
37594.4,70.2266,-3039.66,0,0
37854.8,69.8328,-3018.1,0,0
38115.1,69.6664,-2997.62,0,0
38375.4,68.8711,-2976.86,0,0
38635.7,68.7405,-2956.4,0,0
38896.1,68.2653,-2936.22,0,0
39156.4,67.6641,-2916.38,0,0
39416.7,67.392,-2896.69,0,0
39677,67.0054,-2877.36,0,0
39937.4,66.7463,-2857.99,0,0
40197.7,66.4431,-2839.16,0,0
40458,66.0172,-2820.44,0,0
40718.3,65.6774,-2801.78,0,0
40978.7,65.5806,-2783.74,0,0
41239,65.2003,-2765.93,0,0
41499.3,65.2744,-2748.03,0,0
41759.6,65.0909,-2730.83,0,0
42020,64.881,-2713.24,0,0
42280.275,64.5864,-2696.32,0,0
42540.6,64.1481,-2679.8,0,0
42800.925,63.7838,-2663.04,0,0
43061.25,63.3298,-2646.56,0,0
43321.575,63.3836,-2630.2,0,0
43581.9,63.1619,-2613.94,0,0
43842.225,62.6647,-2598.18,0,0
44102.55,62.6278,-2582.37,0,0
44362.875,62.5697,-2566.96,0,0
44623.2,62.0475,-2551.51,0,0
44883.525,61.7122,-2536.44,0,0
45143.85,61.5643,-2520.9,0,0
45404.175,61.6147,-2506.15,0,0
45664.5,61.3496,-2491.79,0,0
45924.825,61.2922,-2476.85,0,0
46185.15,61.6123,-2462.77,0,0
46445.475,60.9344,-2448.87,0,0
46705.8,60.6391,-2434.59,0,0
46966.125,60.5148,-2420.41,0,0
47226.45,60.5116,-2406.71,0,0
47486.775,60.6032,-2393.16,0,0
47747.1,60.515,-2380.08,0,0
48007.425,60.1408,-2366.57,0,0
48267.75,60.3171,-2352.87,0,0
48528.075,61.4597,-2340.92,0,0
48788.4,60.6489,-2328.77,0,0
49048.725,60.1144,-2316.19,0,0
49309.05,59.884,-2303.99,0,0
49569.375,59.0222,-2291.59,0,0
49829.7,58.4731,-2279.4,0,0
50090.025,58.092,-2266.89,0,0
50350.35,57.689,-2254.73,0,0
50610.675,57.3999,-2242.33,0,0
50871.0,57.5325,-2230.49,0,0
51131.325,57.3858,-2218.86,0,0
51391.65,57.017,-2207.4,0,0
51651.975,56.3919,-2196,0,0
51912.3,56.0818,-2184.41,0,0
52172.625,55.5894,-2172.91,0,0
52432.95,55.3411,-2161.47,0,0
52693.275,55.1067,-2150.23,0,0
52953.6,54.9672,-2139.01,0,0
53213.925,54.6836,-2127.9,0,0
53474.25,54.6342,-2116.96,0,0
53734.575,54.3391,-2106.14,0,0
53994.9,54.2381,-2095.41,0,0
54255.225,54.1697,-2084.56,0,0
54515.55,53.9748,-2073.99,0,0
54775.875,54.0319,-2063.69,0,0
55036.2,53.9363,-2053.45,0,0
55296.525,53.7693,-2043.14,0,0
55556.85,53.662,-2032.9,0,0
55817.175,53.6832,-2022.89,0,0
56077.5,53.6833,-2012.92,0,0
56337.825,53.4929,-2003.08,0,0
56598.15,53.5465,-1993.15,0,0
56858.475,53.4983,-1983.33,0,0
57118.8,53.7342,-1973.74,0,0
57379.125,53.6862,-1964.35,0,0
57639.45,53.5657,-1954.85,0,0
57899.775,53.8641,-1945.43,0,0
58160.1,53.9784,-1936.42,0,0
58420.4,53.7618,-1927.18,0,0
58680.7,53.8343,-1917.91,0,0
58941.1,54.0201,-1908.75,0,0
59201.4,54.0451,-1899.73,0,0
59461.7,54.3451,-1890.69,0,0
59722,54.6463,-1881.83,0,0
59982.4,55.2249,-1872.93,0,0
60242.7,55.9249,-1864.72,0,0
60503,56.1788,-1856.77,0,0
60763.3,56.014,-1848.59,0,0
61023.7,56.1994,-1840.07,0,0
61284,57.0192,-1831.5,0,0
61544.3,58.0391,-1824.01,0,0
61804.6,58.6133,-1816.9,0,0
62065,58.7606,-1810.27,0,0
62325.3,57.7828,-1803.36,0,0
62585.6,57.2387,-1795.49,0,0
62845.9,57.0713,-1787.97,0,0
63106.3,56.8186,-1781.31,0,0
63366.6,55.6673,-1774,0,0
63626.9,54.8346,-1766.22,0,0
63887.2,54.25,-1758.6,0,0
64147.6,53.7601,-1751.09,0,0
64407.9,53.0289,-1743.67,0,0
64668.2,52.5329,-1735.76,0,0
64928.5,51.9929,-1728.37,0,0
65188.9,51.3843,-1720.67,0,0
65449.2,50.7548,-1712.95,0,0
65709.5,50.4981,-1704.86,0,0
65969.8,50.487,-1697.16,0,0
66230.2,50.5331,-1689.6,0,0
66490.5,50.6295,-1682.06,0,0
66750.8,50.686,-1674.75,0,0
67011.1,50.5783,-1667.2,0,0
67271.5,51.1501,-1659.66,0,0
67531.8,51.7308,-1652.57,0,0
67792.1,52.3089,-1645.77,0,0
68052.4,52.9566,-1639.05,0,0
68312.8,53.323,-1632.71,0,0
68573.1,53.1938,-1626.25,0,0
68833.4,53.5968,-1619.58,0,0
69093.7,54.4712,-1613.12,0,0
69354.1,54.8363,-1607.58,0,0
69614.4,54.8314,-1601.34,0,0
69874.7,55.6677,-1595.84,0,0
70135,55.4017,-1590.74,0,0
70395.4,54.8624,-1585.42,0,0
70655.7,54.0236,-1580.11,0,0
70916,52.7726,-1574.02,0,0
71176.3,52.3791,-1567.78,0,0
71436.7,51.8229,-1562.04,0,0
71697,50.9202,-1556.15,0,0
71957.3,49.7913,-1550.44,0,0
72217.6,48.6131,-1544.1,0,0
72478,47.635,-1537.36,0,0
72738.3,47.039,-1530.87,0,0
72998.6,46.4499,-1524.21,0,0
73258.9,46.1507,-1517.85,0,0
73519.3,45.5572,-1511.48,0,0
73779.6,45.0434,-1504.86,0,0
74039.9,44.9253,-1498.19,0,0
74300.225,44.9411,-1491.63,0,0
74560.55,44.9696,-1485.4,0,0
74820.875,45.014,-1479.07,0,0
75081.2,45.1071,-1472.74,0,0
75341.525,45.3143,-1466.54,0,0
75601.85,45.5928,-1460.42,0,0
75862.175,45.8914,-1454.38,0,0
76122.5,46.3833,-1448.38,0,0
76382.825,46.8734,-1442.58,0,0
76643.15,47.2649,-1436.85,0,0
76903.475,47.6317,-1431.13,0,0
77163.8,48.2137,-1425.4,0,0
77424.125,48.9019,-1419.89,0,0
77684.45,49.5174,-1414.55,0,0
77944.775,50.2499,-1409.25,0,0
78205.1,51.0701,-1404.2,0,0
78465.425,51.7874,-1399.42,0,0
78725.75,52.2562,-1394.83,0,0
78986.075,52.8337,-1390.26,0,0
79246.4,53.114,-1386.14,0,0
79506.725,53.042,-1381.88,0,0
79767.05,52.8917,-1377.57,0,0
80027.375,52.5104,-1373.38,0,0
80287.7,51.7436,-1368.98,0,0
80548.025,50.9475,-1364.14,0,0
80808.35,50.3479,-1359.17,0,0
81068.675,49.8725,-1354.11,0,0
81329.0,49.4244,-1349.13,0,0
81589.325,49.0776,-1344.03,0,0
81849.65,48.7447,-1339.01,0,0
82109.975,48.4551,-1333.86,0,0
82370.3,48.253,-1328.82,0,0
82630.625,48.0143,-1323.75,0,0
82890.95,47.891,-1318.55,0,0
83151.275,47.9033,-1313.43,0,0
83411.6,48.0845,-1308.36,0,0
83671.925,48.2663,-1303.41,0,0
83932.25,48.5019,-1298.51,0,0
84192.575,48.6959,-1293.79,0,0
84452.9,48.967,-1289.14,0,0
84713.225,49.0648,-1284.59,0,0
84973.55,49.0895,-1279.87,0,0
85233.875,49.2228,-1275.21,0,0
85494.2,49.4541,-1270.53,0,0
85754.525,49.8214,-1266.02,0,0
86014.85,49.9749,-1261.68,0,0
86275.175,50.2291,-1257.32,0,0
86535.5,50.3312,-1252.95,0,0
86795.825,50.3481,-1248.65,0,0
87056.15,50.4974,-1244.08,0,0
87316.475,50.8899,-1239.61,0,0
87576.8,51.284,-1235.78,0,0
87837.125,51.1373,-1231.81,0,0
88097.45,50.882,-1227.56,0,0
88357.775,50.9739,-1223.2,0,0
88618.1,51.2814,-1219.13,0,0
88878.425,50.9094,-1215.14,0,0
89138.75,50.7283,-1210.49,0,0
89399.075,51.1051,-1206.04,0,0
89659.4,51.2189,-1201.84,0,0
89919.725,51.6821,-1197.75,0,0
90180,51.716,-1193.94,0,0
90440.4,51.8147,-1189.98,0,0
90700.7,51.4182,-1185.91,0,0
90961,51.503,-1181.26,0,0
91221.3,51.9715,-1176.89,0,0
91481.7,52.4285,-1172.92,0,0
91742,52.7361,-1169.03,0,0
92002.3,52.9079,-1164.97,0,0
92262.6,53.389,-1160.78,0,0
92523,54.2445,-1156.92,0,0
92783.3,54.6514,-1153.41,0,0
93043.6,55.0488,-1149.71,0,0
93303.9,55.6941,-1146.31,0,0
93564.3,55.9656,-1143.21,0,0
93824.6,56.1542,-1139.89,0,0
94084.9,56.1249,-1136.94,0,0
94345.2,55.6478,-1133.79,0,0
94605.6,54.9726,-1129.9,0,0
94865.9,55.2731,-1125.93,0,0
95126.2,55.2107,-1122.62,0,0
95386.5,54.8879,-1118.94,0,0
95646.9,54.3643,-1115.01,0,0
95907.2,54.5402,-1110.62,0,0
96167.5,55.2394,-1106.42,0,0
96427.8,56.3174,-1102.9,0,0
96688.2,57.0742,-1099.92,0,0
96948.5,57.331,-1097.02,0,0
97208.8,57.5473,-1093.86,0,0
97469.1,57.981,-1090.91,0,0
97729.5,58.1813,-1088.23,0,0
97989.8,58.196,-1085.55,0,0
98250.1,57.9145,-1082.93,0,0
98510.4,57.5262,-1080.17,0,0
98770.8,57.1517,-1077.36,0,0
99031.1,56.7375,-1074.8,0,0
99291.4,55.7415,-1072.29,0,0
99551.7,54.4358,-1069.21,0,0
99812.1,53.146,-1065.81,0,0
100072,52.0896,-1061.95,0,0
100333,51.3828,-1057.92,0,0
100593,51.1515,-1054.09,0,0
100853,50.798,-1050.73,0,0
101114,50.1368,-1047.41,0,0
101374,49.2057,-1043.88,0,0
101634,48.2791,-1039.96,0,0
101895,47.5308,-1035.84,0,0
102155,47.111,-1031.55,0,0
102415,46.9892,-1027.46,0,0
102676,46.6875,-1023.55,0,0
102936,46.3275,-1019.45,0,0
103196,46.2474,-1015.25,0,0
103457,46.2012,-1011.16,0,0
103717,46.043,-1006.92,0,0
103977,46.2873,-1002.36,0,0
104238,46.9408,-998.053,0,0
104498,47.6823,-993.897,0,0
104758,48.7039,-990.077,0,0
105019,49.6404,-986.535,0,0
105279,50.3515,-983.115,0,0
105539,51.017,-979.475,0,0
105800,52.0909,-975.857,0,0
106060,53.3524,-972.659,0,0
106320.175,54.4067,-969.894,0,0
106580.5,55.3916,-967.1,0,0
106840.825,56.4014,-964.732,0,0
107101.15,56.8627,-962.594,0,0
107361.475,57.1164,-960.173,0,0
107621.8,57.4502,-957.713,0,0
107882.125,57.7054,-955.564,0,0
108142.45,57.4473,-953.565,0,0
108402.775,56.8284,-951.115,0,0
108663.1,56.4823,-948.358,0,0
108923.425,56.0891,-945.901,0,0
109183.75,55.3556,-943.211,0,0
109444.075,54.5698,-940.192,0,0
109704.4,54.0386,-936.979,0,0
109964.725,53.4417,-933.836,0,0
110225.05,52.8979,-930.456,0,0
110485.375,52.4078,-927.04,0,0
110745.7,51.9952,-923.487,0,0
111006.025,51.8469,-919.816,0,0
111266.35,51.8564,-916.346,0,0
111526.675,51.8466,-912.913,0,0
111787.0,52.0251,-909.407,0,0
112047.325,51.9894,-906.02,0,0
112307.65,52.1223,-902.603,0,0
112567.975,52.1992,-899.22,0,0
112828.3,52.3322,-895.677,0,0
113088.625,52.5506,-892.234,0,0
113348.95,52.8789,-888.8,0,0
113609.275,53.1153,-885.358,0,0
113869.6,53.5372,-881.935,0,0
114129.925,54.0214,-878.595,0,0
114390.25,54.5353,-875.312,0,0
114650.575,55.0435,-872.058,0,0
114910.9,55.604,-868.889,0,0
115171.225,56.1202,-865.637,0,0
115431.55,56.7827,-862.475,0,0
115691.875,57.4047,-859.404,0,0
115952.2,58.0535,-856.332,0,0
116212.525,58.6242,-853.292,0,0
116472.85,59.3325,-850.19,0,0
116733.175,60.1687,-847.214,0,0
116993.5,60.9722,-844.416,0,0
117253.825,61.7382,-841.637,0,0
117514.15,62.4554,-838.933,0,0
117774.475,63.2091,-836.228,0,0
118034.8,64.003,-833.582,0,0
118295.125,64.7443,-831.06,0,0
118555.45,65.4541,-828.552,0,0
118815.775,66.1645,-826.044,0,0
119076.1,66.9653,-823.689,0,0
119336.425,67.5947,-821.446,0,0
119596.75,68.2475,-819.138,0,0
119857.075,68.9819,-817.118,0,0
120117.4,69.3005,-815.231,0,0
120377.725,69.5841,-813.227,0,0
120638.05,69.7834,-811.251,0,0
120898.375,69.7529,-809.367,0,0
121158.7,69.4882,-807.206,0,0
121419.025,69.2579,-804.886,0,0
121679.35,69.0886,-802.482,0,0
121939.675,68.9752,-800.057,0,0
122200.0,68.8344,-797.601,0,0
122460,68.6034,-795.109,0,0
122721,68.4327,-792.491,0,0
122981,68.3284,-789.809,0,0
123241,68.2293,-787.181,0,0
123502,68.1661,-784.485,0,0
123762,68.1302,-781.833,0,0
124022,68.0077,-779.181,0,0
124283,67.906,-776.478,0,0
124543,67.766,-773.696,0,0
124803,67.6424,-770.888,0,0
125064,67.5503,-767.947,0,0
125324,67.5404,-764.961,0,0
125584,67.5832,-761.996,0,0
125845,67.6593,-759.006,0,0
126105,67.788,-755.984,0,0
126365,67.9913,-752.902,0,0
126626,68.3218,-749.852,0,0
126886,68.6365,-746.834,0,0
127146,68.9453,-743.871,0,0
127406,69.4174,-740.887,0,0
127667,69.9504,-737.82,0,0
127927,70.6198,-734.97,0,0
128187,71.1219,-732.226,0,0
128448,71.712,-729.466,0,0
128708,72.2977,-726.717,0,0
128968,72.8561,-724.096,0,0
129229,73.4038,-721.453,0,0
129489,73.9753,-718.837,0,0
129749,74.4817,-716.307,0,0
130010,74.908,-713.693,0,0
130270,75.4254,-711.084,0,0
130530,75.943,-708.556,0,0
130791,76.4077,-706.016,0,0
131051,76.8441,-703.533,0,0
131311,77.2551,-701.055,0,0
131572,77.632,-698.571,0,0
131832,78.001,-696.083,0,0
132092,78.2478,-693.634,0,0
132353,78.4455,-691.109,0,0
132613,78.6125,-688.503,0,0
132873,78.7408,-685.786,0,0
133134,79.0016,-683.029,0,0
133394,79.2946,-680.226,0,0
133654,79.6135,-677.484,0,0
133915,79.933,-674.693,0,0
134175,80.2578,-671.944,0,0
134435,80.5061,-669.128,0,0
134696,80.7799,-666.192,0,0
134956,81.1544,-663.254,0,0
135216,81.65,-660.326,0,0
135477,82.0808,-657.408,0,0
135737,82.5573,-654.489,0,0
135997,83.0368,-651.573,0,0
136258,83.5466,-648.569,0,0
136518,84.0689,-645.63,0,0
136778,84.6118,-642.675,0,0
137039,85.1709,-639.633,0,0
137299,85.8298,-636.587,0,0
137559,86.5947,-633.634,0,0
137819,87.2745,-630.749,0,0
138080,87.8837,-627.914,0,0
138340.125,88.3945,-624.993,0,0
138600.45,88.922,-621.983,0,0
138860.775,89.4353,-618.892,0,0
139121.1,89.9791,-615.719,0,0
139381.425,90.6024,-612.468,0,0
139641.75,91.2757,-609.205,0,0
139902.075,91.9097,-605.953,0,0
140162.4,92.4712,-602.488,0,0
140422.725,93.1651,-598.819,0,0
140683.05,94.1164,-594.919,0,0
140943.375,95.4041,-591.158,0,0
141203.7,96.6843,-587.538,0,0
141464.025,98.0191,-583.793,0,0
141724.35,99.5524,-580.017,0,0
141984.675,101.301,-576.285,0,0
142245.0,103.259,-572.663,0,0
142505.325,105.262,-569.222,0,0
142765.65,107.304,-565.771,0,0
143025.975,109.617,-562.363,0,0
143286.3,111.993,-559.339,0,0
143546.625,114.155,-556.47,0,0
143806.95,116.223,-553.537,0,0
144067.275,118.345,-550.554,0,0
144327.6,120.468,-547.584,0,0
144587.925,122.668,-544.643,0,0
144848.25,124.819,-541.645,0,0
145108.575,127.136,-538.547,0,0
145368.9,129.661,-535.538,0,0
145629.225,132.227,-532.675,0,0
145889.55,134.805,-529.887,0,0
146149.875,137.338,-527.114,0,0
146410.2,139.904,-524.276,0,0
146670.525,142.55,-521.375,0,0
146930.85,145.347,-518.433,0,0
147191.175,148.32,-515.439,0,0
147451.5,151.558,-512.47,0,0
147711.825,155.051,-509.689,0,0
147972.15,158.585,-507.107,0,0
148232.475,162.139,-504.533,0,0
148492.8,165.949,-501.846,0,0
148753.125,170.066,-499.291,0,0
149013.45,174.455,-496.799,0,0
149273.775,179.422,-494.453,0,0
149534.1,184.907,-492.768,0,0
149794.425,190.452,-491.84,0,0
150054.75,195.902,-491.407,0,0
150315.075,201.359,-491.414,0,0
150575.4,206.777,-491.947,0,0
150835.725,212.174,-493.137,0,0
151096.05,217.209,-495.099,0,0
151356.375,221.576,-497.621,0,0
151616.7,225.34,-500.267,0,0
151877.025,228.75,-503.129,0,0
152137.35,231.702,-506.388,0,0
152397.675,233.896,-509.855,0,0
152658.0,235.374,-513.25,0,0
152918.325,236.236,-516.48,0,0
153178.65,236.535,-519.41,0,0
153438.975,236.512,-521.832,0,0
153699.3,236.416,-524.073,0,0
153959.625,235.93,-526.2,0,0
154219.95,235.096,-527.952,0,0
154480,234.152,-529.19,0,0
154741,233.237,-530.184,0,0
155001,232.266,-531.042,0,0
155261,231.176,-531.447,0,0
155522,230.107,-531.714,0,0
155782,229.203,-531.91,0,0
156042,228.148,-531.656,0,0
156303,227.448,-531.442,0,0
156563,226.612,-531.164,0,0
156823,225.793,-530.813,0,0
157084,224.793,-530.448,0,0
157344,223.64,-529.642,0,0
157604,222.695,-528.521,0,0
157864,221.949,-527.073,0,0
158125,221.64,-525.644,0,0
158385,221.627,-524.545,0,0
158645,221.37,-523.511,0,0
158906,221.013,-522.205,0,0
159166,220.724,-520.957,0,0
159426,220.497,-519.569,0,0
159687,220.251,-518.03,0,0
159947,220.349,-516.29,0,0
160207,220.908,-514.537,0,0
160468,221.58,-513.209,0,0
160728,222.13,-512.105,0,0
160988,222.447,-510.845,0,0
161249,222.958,-509.154,0,0
161509,224.316,-507.419,0,0
161769,226.461,-506.404,0,0
162030,228.49,-506.402,0,0
162290,230.013,-507.168,0,0
162550,231.14,-508.51,0,0
162811,231.517,-510.096,0,0
163071,230.903,-512.179,0,0
163331,229.26,-513.892,0,0
163592,226.959,-514.75,0,0
163852,224.706,-514.975,0,0
164112,222.306,-515.104,0,0
164373,219.577,-515.081,0,0
164633,216.339,-514.364,0,0
164893,212.989,-512.81,0,0
165154,210.135,-510.757,0,0
165414,207.442,-508.683,0,0
165674,204.462,-506.305,0,0
165935,201.492,-503.324,0,0
166195,198.822,-499.668,0,0
166455,196.708,-495.777,0,0
166716,195.027,-491.636,0,0
166976,193.768,-487.617,0,0
167236,192.585,-483.605,0,0
167497,191.549,-479.533,0,0
167757,190.687,-475.433,0,0
168017,189.844,-471.222,0,0
168277,189.086,-466.744,0,0
168538,188.617,-462.02,0,0
168798,188.744,-457.145,0,0
169058,189.43,-452.555,0,0
169319,190.038,-448.528,0,0
169579,190.321,-444.579,0,0
169839,190.396,-440.296,0,0
170100,190.865,-435.626,0,0
170360.075,191.681,-431.052,0,0
170620.4,192.565,-426.713,0,0
170880.725,193.24,-422.396,0,0
171141.05,193.863,-417.665,0,0
171401.375,194.805,-412.571,0,0
171661.7,196.281,-407.506,0,0
171922.025,197.984,-402.618,0,0
172182.35,199.906,-397.83,0,0
172442.675,201.783,-393.106,0,0
172703.0,203.729,-388.138,0,0
172963.325,206.023,-383.23,0,0
173223.65,208.476,-378.381,0,0
173483.975,211.126,-373.513,0,0
173744.3,213.923,-368.692,0,0
174004.625,216.803,-363.848,0,0
174264.95,219.899,-358.79,0,0
174525.275,223.479,-353.64,0,0
174785.6,227.66,-348.609,0,0
175045.925,232.307,-344.063,0,0
175306.25,236.94,-339.96,0,0
175566.575,241.63,-336.009,0,0
175826.9,246.437,-332.331,0,0
176087.225,251.455,-328.726,0,0
176347.55,256.593,-325.466,0,0
176607.875,261.837,-322.546,0,0
176868.2,266.992,-319.716,0,0
177128.525,272.485,-316.805,0,0
177388.85,278.669,-314.224,0,0
177649.175,285.309,-312.806,0,0
177909.5,291.655,-312.554,0,0
178169.825,297.047,-313.231,0,0
178430.15,301.149,-314.044,0,0
178690.475,304.711,-314.376,0,0
178950.8,308.195,-314.637,0,0
179211.125,311.231,-313.91,0,0
179471.45,314.023,-314.149,0,0
179731.775,316.4,-314.141,0,0
179992.1,318.547,-314.131,0,0
180252.425,320.053,-314.018,0,0
180512.75,320.718,-313.382,0,0
180773.075,321.129,-311.704,0,0
181033.4,321.571,-309.243,0,0
181293.725,322.196,-306.002,0,0
181554.05,323.392,-301.882,0,0
181814.375,325.31,-297.456,0,0
182074.7,327.781,-293.016,0,0
182335.025,330.668,-288.399,0,0
182595.35,333.924,-283.652,0,0
182855.675,337.643,-278.922,0,0
183116.0,341.737,-274.226,0,0
183376.325,345.996,-269.344,0,0
183636.65,350.847,-264.341,0,0
183896.975,356.365,-259.508,0,0
184157.3,362.082,-255.071,0,0
184417.625,367.977,-250.462,0,0
184677.95,374.564,-245.797,0,0
184938.275,381.807,-241.444,0,0
185198.6,389.478,-237.73,0,0
185458.925,397.146,-234.424,0,0
185719.25,405.134,-231.316,0,0
185979.575,413.389,-228.66,0,0
186239.9,421.894,-226.518,0,0
186500,430.327,-225.182,0,0
186761,438.211,-224.335,0,0
187021,445.403,-223.254,0,0
187281,452.649,-221.202,0,0
187542,460.946,-218.931,0,0
187802,470.182,-217.288,0,0
188062,479.761,-216.933,0,0
188322,488.478,-217.585,0,0
188583,496.175,-217.829,0,0
188843,504.119,-217.604,0,0
189103,512.368,-217.526,0,0
189364,520.289,-217.466,0,0
189624,528.456,-217.1,0,0
189884,536.855,-216.825,0,0
190145,545.474,-216.298,0,0
190405,554.441,-215.801,0,0
190665,563.798,-215.238,0,0
190926,573.571,-214.578,0,0
191186,584.167,-213.842,0,0
191446,595.731,-213.484,0,0
191707,608.09,-213.886,0,0
191967,620.923,-215.266,0,0
192227,633.925,-217.335,0,0
192488,647.182,-220.012,0,0
192748,661.016,-223.378,0,0
193008,675.292,-227.821,0,0
193269,689.725,-233.601,0,0
193529,704.059,-240.661,0,0
193789,717.861,-249.3,0,0
194050,730.354,-259.007,0,0
194310,741.66,-268.717,0,0
194570,752.674,-278.229,0,0
194831,763.715,-287.957,0,0
195091,774.989,-298.352,0,0
195351,785.945,-309.793,0,0
195612,796.193,-322.183,0,0
195872,805.395,-335.367,0,0
196132,813.315,-348.35,0,0
196393,820.825,-360.875,0,0
196653,828.506,-373.486,0,0
196913,836.105,-386.626,0,0
197174,843.401,-400.406,0,0
197434,850.096,-414.959,0,0
197694,855.666,-430.001,0,0
197955,860.298,-444.528,0,0
198215,865.361,-458.948,0,0
198475,870.291,-474.382,0,0
198735,874.222,-490.658,0,0
198996,877.064,-507.493,0,0
199256,878.565,-524.378,0,0
199516,878.926,-540.807,0,0
199777,878.546,-556.576,0,0
200037,878.229,-571.704,0,0
200297,878.499,-586.96,0,0
200558,878.33,-603.567,0,0
200818,876.707,-621.12,0,0
201078,873.623,-638.482,0,0
201339,869.334,-655.552,0,0
201599,863.972,-672.224,0,0
201859,857.809,-688.576,0,0
202120,850.43,-704.449,0,0
202380.025,842.303,-719.837,0,0
202640.35,832.849,-734.813,0,0
202900.675,821.748,-748.403,0,0
203161.0,810.35,-759.826,0,0
203421.325,799.453,-770.172,0,0
203681.65,788.639,-779.763,0,0
203941.975,778.077,-788.658,0,0
204202.3,767.445,-797.004,0,0
204462.625,756.885,-804.465,0,0
204722.95,746.907,-811.589,0,0
204983.275,737.587,-818.821,0,0
205243.6,727.607,-826.367,0,0
205503.925,716.675,-833.719,0,0
205764.25,704.828,-840.192,0,0
206024.575,692.799,-845.075,0,0
206284.9,681.242,-848.793,0,0
206545.225,670.296,-851.729,0,0
206805.55,659.977,-854.12,0,0
207065.875,650.089,-856.052,0,0
207326.2,640.979,-857.897,0,0
207586.525,632.035,-859.67,0,0
207846.85,623.065,-861.064,0,0
208107.175,614.678,-862.079,0,0
208367.5,606.877,-862.794,0,0
208627.825,599.863,-863.668,0,0
208888.15,593.083,-864.921,0,0
209148.475,586.458,-866.6,0,0
209408.8,579.952,-868.662,0,0
209669.125,573.081,-871.113,0,0
209929.45,565.709,-873.782,0,0
210189.775,557.572,-876.263,0,0
210450.1,548.952,-878.224,0,0
210710.425,540.282,-879.481,0,0
210970.75,531.566,-880.396,0,0
211231.075,522.758,-880.903,0,0
211491.4,513.732,-880.717,0,0
211751.725,504.892,-879.816,0,0
212012.05,496.552,-878.172,0,0
212272.375,488.886,-876.126,0,0
212532.7,481.949,-874.132,0,0
212793.025,475.164,-872.29,0,0
213053.35,468.229,-870.351,0,0
213313.675,461.48,-868.105,0,0
213574.0,454.985,-865.465,0,0
213834.325,448.927,-862.529,0,0
214094.65,443.357,-859.579,0,0
214354.975,438.166,-856.583,0,0
214615.3,433.383,-853.563,0,0
214875.625,428.799,-850.83,0,0
215135.95,424.425,-848.205,0,0
215396.275,420.029,-845.756,0,0
215656.6,415.68,-843.066,0,0
215916.925,411.448,-840.267,0,0
216177.25,407.416,-837.423,0,0
216437.575,403.635,-834.508,0,0
216697.9,400.133,-831.535,0,0
216958.225,396.805,-828.655,0,0
217218.55,393.578,-825.715,0,0
217478.875,390.559,-822.767,0,0
217739.2,387.873,-819.728,0,0
217999.525,385.503,-816.83,0,0
218259.85,383.248,-814.14,0,0
218520,381.05,-811.599,0,0
218780,378.947,-808.984,0,0
219041,377.011,-806.355,0,0
219301,375.33,-803.831,0,0
219561,373.837,-801.425,0,0
219822,372.526,-799.195,0,0
220082,371.238,-797.272,0,0
220342,369.803,-795.403,0,0
220603,368.454,-793.521,0,0
220863,367.071,-791.609,0,0
221123,365.823,-789.573,0,0
221384,364.776,-787.517,0,0
221644,364.013,-785.45,0,0
221904,363.482,-783.585,0,0
222165,363.288,-781.881,0,0
222425,363.204,-780.45,0,0
222685,363.258,-779.298,0,0
222946,363.327,-778.514,0,0
223206,363.286,-778.003,0,0
223466,363.221,-777.705,0,0
223727,363.024,-777.696,0,0
223987,362.468,-777.767,0,0
224247,361.928,-777.735,0,0
224508,361.35,-777.844,0,0
224768,360.669,-778.051,0,0
225028,359.865,-778.358,0,0
225289,358.966,-778.672,0,0
225549,357.943,-778.749,0,0
225809,356.879,-778.723,0,0
226070,356.099,-778.732,0,0
226330,355.47,-778.732,0,0
226590,354.928,-778.883,0,0
226851,354.388,-779.259,0,0
227111,353.891,-779.805,0,0
227371,353.402,-780.448,0,0
227632,352.879,-781.354,0,0
227892,352.354,-782.427,0,0
228152,351.719,-783.725,0,0
228413,350.98,-785.258,0,0
228673,350.069,-786.952,0,0
228933,348.908,-788.875,0,0
229193,347.467,-790.974,0,0
229454,345.73,-793.198,0,0
229714,343.571,-795.336,0,0
229974,341.154,-797.302,0,0
230235,338.479,-799.194,0,0
230495,335.62,-800.946,0,0
230755,332.645,-802.598,0,0
231016,329.402,-804.095,0,0
231276,326.116,-805.41,0,0
231536,322.639,-806.548,0,0
231797,319.141,-807.512,0,0
232057,315.597,-808.293,0,0
232317,311.983,-808.952,0,0
232578,308.419,-809.488,0,0
232838,304.785,-809.892,0,0
233098,301.054,-810.151,0,0
233359,297.324,-810.236,0,0
233619,293.638,-810.143,0,0
233879,289.978,-809.896,0,0
234140,286.543,-809.587,0,0
234400,283.032,-809.293,0,0
234660.3,279.583,-808.893,0,0
234920.625,276.145,-808.454,0,0
235180.95,272.603,-807.91,0,0
235441.275,269.144,-807.43,0,0
235701.6,265.567,-806.79,0,0
235961.925,261.961,-806.079,0,0
236222.25,258.411,-805.201,0,0
236482.575,254.93,-804.23,0,0
236742.9,251.42,-803.183,0,0
237003.225,247.975,-802.038,0,0
237263.55,244.479,-800.851,0,0
237523.875,241.031,-799.494,0,0
237784.2,237.553,-798.055,0,0
238044.525,234.176,-796.348,0,0
238304.85,230.917,-794.575,0,0
238565.175,227.792,-792.701,0,0
238825.5,224.919,-790.818,0,0
239085.825,222.02,-788.936,0,0
239346.15,219.224,-786.997,0,0
239606.475,216.408,-785.07,0,0
239866.8,213.74,-783.064,0,0
240127.125,211.171,-780.99,0,0
240387.45,208.717,-778.891,0,0
240647.775,206.354,-776.878,0,0
240908.1,203.992,-774.81,0,0
241168.425,201.764,-772.705,0,0
241428.75,199.604,-770.621,0,0
241689.075,197.538,-768.534,0,0
241949.4,195.543,-766.493,0,0
242209.725,193.594,-764.441,0,0
242470.05,191.71,-762.424,0,0
242730.375,189.928,-760.428,0,0
242990.7,188.207,-758.46,0,0
243251.025,186.53,-756.626,0,0
243511.35,184.931,-754.894,0,0
243771.675,183.281,-753.193,0,0
244032.0,181.583,-751.507,0,0
244292.325,179.902,-749.92,0,0
244552.65,178.159,-748.285,0,0
244812.975,176.423,-746.79,0,0
245073.3,174.693,-745.254,0,0
245333.625,172.959,-743.774,0,0
245593.95,171.166,-742.255,0,0
245854.275,169.292,-741.005,0,0
246114.6,167.236,-739.704,0,0
246374.925,165.077,-738.397,0,0
246635.25,162.58,-737.072,0,0
246895.575,160.026,-735.444,0,0
247155.9,157.288,-733.584,0,0
247416.225,154.645,-731.475,0,0
247676.55,152.016,-729.129,0,0
247936.875,149.596,-726.686,0,0
248197.2,147.206,-724.131,0,0
248457.525,144.957,-721.457,0,0
248717.85,142.826,-718.74,0,0
248978.175,140.767,-715.943,0,0
249238.5,138.752,-713.037,0,0
249498.825,136.8,-710.089,0,0
249759.15,135.01,-707.029,0,0
250019.475,133.302,-703.92,0,0
250279.8,131.705,-700.784,0,0
250540,130.246,-697.554,0,0
250800,128.782,-694.286,0,0
251061,127.684,-690.94,0,0
251321,126.627,-687.633,0,0
251581,125.689,-684.375,0,0
251842,124.861,-681.11,0,0
252102,124.05,-677.859,0,0
252362,123.385,-674.582,0,0
252623,122.834,-671.307,0,0
252883,122.4,-668.055,0,0
253143,122.1,-664.84,0,0
253404,121.909,-661.704,0,0
253664,121.737,-658.64,0,0
253924,121.66,-655.644,0,0
254185,121.581,-652.6,0,0
254445,121.516,-649.547,0,0
254705,121.543,-646.618,0,0
254966,121.675,-643.569,0,0
255226,121.839,-640.484,0,0
255486,122.053,-637.404,0,0
255747,122.531,-634.314,0,0
256007,123.128,-631.264,0,0
256267,123.871,-628.263,0,0
256528,124.742,-625.387,0,0
256788,125.71,-622.627,0,0
257048,126.751,-619.979,0,0
257309,127.839,-617.41,0,0
257569,128.99,-614.966,0,0
257829,130.152,-612.579,0,0
258090,131.359,-610.307,0,0
258350,132.602,-608.101,0,0
258610,133.87,-605.975,0,0
258871,135.112,-603.876,0,0
259131,136.435,-601.828,0,0
259391,137.815,-599.722,0,0
259651,139.278,-597.721,0,0
259912,140.861,-595.853,0,0
260172,142.52,-593.985,0,0
260432,144.22,-592.32,0,0
260693,146.011,-590.718,0,0
260953,147.848,-589.265,0,0
261213,149.738,-587.948,0,0
261474,151.677,-586.812,0,0
261734,153.597,-585.843,0,0
261994,155.485,-585.043,0,0
262255,157.266,-584.378,0,0
262515,158.996,-583.808,0,0
262775,160.667,-583.296,0,0
263036,162.294,-582.865,0,0
263296,163.942,-582.492,0,0
263556,165.611,-582.209,0,0
263817,167.24,-582.12,0,0
264077,168.808,-582.19,0,0
264337,170.249,-582.439,0,0
264598,171.559,-582.789,0,0
264858,172.68,-583.29,0,0
265118,173.627,-583.817,0,0
265379,174.296,-584.358,0,0
265639,174.809,-584.847,0,0
265899,175.175,-585.175,0,0
266160,175.415,-585.431,0,0
266420,175.61,-585.505,0,0
266680.25,175.859,-585.447,0,0
266940.575,176.197,-585.397,0,0
267200.9,176.562,-585.326,0,0
267461.225,176.942,-585.388,0,0
267721.55,177.249,-585.503,0,0
267981.875,177.415,-585.614,0,0
268242.2,177.467,-585.707,0,0
268502.525,177.407,-585.71,0,0
268762.85,177.259,-585.652,0,0
269023.175,176.993,-585.439,0,0
269283.5,176.676,-584.988,0,0
269543.825,176.449,-584.373,0,0
269804.15,176.27,-583.564,0,0
270064.475,176.26,-582.668,0,0
270324.8,176.352,-581.586,0,0
270585.125,176.613,-580.431,0,0
270845.45,177.064,-579.209,0,0
271105.775,177.797,-577.934,0,0
271366.1,178.779,-576.694,0,0
271626.425,180.02,-575.625,0,0
271886.75,181.36,-574.717,0,0
272147.075,182.758,-573.962,0,0
272407.4,184.185,-573.284,0,0
272667.725,185.725,-572.617,0,0
272928.05,187.399,-571.978,0,0
273188.375,189.314,-571.428,0,0
273448.7,191.471,-571.024,0,0
273709.025,193.88,-570.817,0,0
273969.35,196.517,-570.981,0,0
274229.675,199.259,-571.57,0,0
274490.0,202.044,-572.534,0,0
274750.325,204.807,-573.996,0,0
275010.65,207.491,-575.88,0,0
275270.975,210.013,-578.205,0,0
275531.3,212.232,-580.959,0,0
275791.625,214.192,-584.074,0,0
276051.95,215.656,-587.609,0,0
276312.275,216.653,-591.405,0,0
276572.6,217.034,-595.34,0,0
276832.925,216.844,-599.294,0,0
277093.25,216.107,-603.108,0,0
277353.575,214.898,-606.721,0,0
277613.9,213.324,-610.009,0,0
277874.225,211.49,-612.997,0,0
278134.55,209.481,-615.735,0,0
278394.875,207.284,-618.218,0,0
278655.2,204.979,-620.427,0,0
278915.525,202.58,-622.428,0,0
279175.85,200.127,-624.227,0,0
279436.175,197.579,-625.817,0,0
279696.5,194.981,-627.189,0,0
279956.825,192.447,-628.365,0,0
280217.15,189.849,-629.387,0,0
280477.475,187.376,-630.31,0,0
280737.8,184.897,-631.157,0,0
280998.125,182.363,-631.936,0,0
281258.45,179.786,-632.637,0,0
281518.775,177.154,-633.263,0,0
281779.1,174.452,-633.802,0,0
282039.425,171.651,-634.221,0,0
282299.75,168.762,-634.544,0,0
282560,165.724,-634.681,0,0
282820,162.57,-634.53,0,0
283081,159.382,-634.076,0,0
283341,156.311,-633.266,0,0
283601,153.402,-632.15,0,0
283862,150.833,-630.819,0,0
284122,148.585,-629.471,0,0
284382,146.596,-628.26,0,0
284643,144.708,-627.235,0,0
284903,142.706,-626.411,0,0
285163,140.533,-625.672,0,0
285424,138.134,-624.845,0,0
285684,135.56,-623.808,0,0
285944,132.908,-622.551,0,0
286205,130.171,-621.068,0,0
286465,127.401,-619.24,0,0
286725,124.72,-617.114,0,0
286986,122.138,-614.624,0,0
287246,119.759,-611.867,0,0
287506,117.616,-608.819,0,0
287767,115.734,-605.535,0,0
288027,114.184,-602.008,0,0
288287,113,-598.33,0,0
288548,112.173,-594.52,0,0
288808,111.751,-590.578,0,0
289068,111.82,-586.567,0,0
289329,112.431,-582.604,0,0
289589,113.532,-578.78,0,0
289849,115.165,-575.233,0,0
290109,117.256,-572.042,0,0
290370,119.671,-569.312,0,0
290630,122.3,-567.057,0,0
290890,125.149,-565.275,0,0
291151,128.057,-563.95,0,0
291411,131.011,-563.117,0,0
291671,133.937,-562.761,0,0
291932,136.772,-562.915,0,0
292192,139.377,-563.566,0,0
292452,141.68,-564.614,0,0
292713,143.643,-566.014,0,0
292973,145.195,-567.731,0,0
293233,146.204,-569.667,0,0
293494,146.649,-571.625,0,0
293754,146.552,-573.388,0,0
294014,146.065,-574.86,0,0
294275,145.334,-575.973,0,0
294535,144.456,-576.656,0,0
294795,143.611,-576.913,0,0
295056,142.996,-576.733,0,0
295316,142.825,-576.326,0,0
295576,143.248,-575.974,0,0
295837,144.103,-576.034,0,0
296097,145.115,-576.631,0,0
296357,146.073,-577.797,0,0
296618,146.709,-579.496,0,0
296878,146.816,-581.493,0,0
297138,146.361,-583.642,0,0
297399,145.39,-585.652,0,0
297659,144.004,-587.429,0,0
297919,142.356,-588.895,0,0
298180,140.537,-590.069,0,0
298440,138.622,-590.927,0,0
298700.2,136.722,-591.528,0,0
298960.525,134.878,-591.911,0,0
299220.85,133.111,-592.191,0,0
299481.175,131.367,-592.393,0,0
299741.5,129.583,-592.535,0,0
300001.825,127.781,-592.551,0,0
300262.15,125.923,-592.436,0,0
300522.475,124.114,-592.101,0,0
300782.8,122.387,-591.625,0,0
301043.125,120.756,-591.035,0,0
301303.45,119.236,-590.319,0,0
301563.775,117.831,-589.511,0,0
301824.1,116.639,-588.644,0,0
302084.425,115.626,-587.744,0,0
302344.75,114.822,-586.938,0,0
302605.075,114.17,-586.281,0,0
302865.4,113.608,-585.776,0,0
303125.725,113.056,-585.483,0,0
303386.05,112.454,-585.395,0,0
303646.375,111.723,-585.451,0,0
303906.7,110.834,-585.588,0,0
304167.025,109.786,-585.755,0,0
304427.35,108.596,-585.91,0,0
304687.675,107.256,-586.07,0,0
304948.0,105.755,-586.159,0,0
305208.325,104.097,-586.138,0,0
305468.65,102.338,-585.97,0,0
305728.975,100.536,-585.638,0,0
305989.3,98.7075,-585.157,0,0
306249.625,96.8861,-584.537,0,0
306509.95,95.091,-583.77,0,0
306770.275,93.3523,-582.885,0,0
307030.6,91.6796,-581.896,0,0
307290.925,90.0876,-580.805,0,0
307551.25,88.5992,-579.659,0,0
307811.575,87.1913,-578.484,0,0
308071.9,85.8661,-577.289,0,0
308332.225,84.5901,-576.092,0,0
308592.55,83.3754,-574.891,0,0
308852.875,82.1885,-573.677,0,0
309113.2,81.0313,-572.451,0,0
309373.525,79.9095,-571.182,0,0
309633.85,78.8367,-569.919,0,0
309894.175,77.807,-568.651,0,0
310154.5,76.8033,-567.351,0,0
310414.825,75.8412,-566.083,0,0
310675.15,74.8861,-564.775,0,0
310935.475,73.9689,-563.444,0,0
311195.8,73.0842,-562.088,0,0
311456.125,72.2353,-560.713,0,0
311716.45,71.4635,-559.325,0,0
311976.775,70.7416,-557.933,0,0
312237.1,70.0826,-556.565,0,0
312497.425,69.469,-555.211,0,0
312757.75,68.8883,-553.879,0,0
313018.075,68.3474,-552.589,0,0
313278.4,67.817,-551.312,0,0
313538.725,67.2756,-550.073,0,0
313799.05,66.7654,-548.813,0,0
314059.375,66.2649,-547.593,0,0
314319.7,65.7889,-546.369,0,0
314580,65.3209,-545.215,0,0
314840,64.7948,-543.917,0,0
315101,64.2938,-542.77,0,0
315361,63.8619,-541.521,0,0
315621,63.3529,-540.312,0,0
315882,62.9951,-538.98,0,0
316142,62.5986,-537.825,0,0
316402,62.2141,-536.575,0,0
316663,61.9,-535.292,0,0
316923,61.5441,-534.059,0,0
317183,61.2749,-532.84,0,0
317444,61.0255,-531.659,0,0
317704,60.8288,-530.403,0,0
317964,60.6155,-529.192,0,0
318225,60.4344,-528.031,0,0
318485,60.3302,-526.967,0,0
318745,60.1021,-525.88,0,0
319006,59.9427,-524.823,0,0
319266,59.7799,-523.73,0,0
319526,59.5762,-522.801,0,0
319787,59.4289,-521.753,0,0
320047,59.1805,-520.675,0,0
320307,58.9975,-519.684,0,0
320567,58.7634,-518.679,0,0
320828,58.6072,-517.63,0,0
321088,58.3622,-516.595,0,0
321348,58.1414,-515.565,0,0
321609,57.9244,-514.564,0,0
321869,57.7523,-513.512,0,0
322129,57.5642,-512.463,0,0
322390,57.3306,-511.45,0,0
322650,57.1801,-510.387,0,0
322910,56.9685,-509.285,0,0
323171,56.7266,-508.22,0,0
323431,56.5185,-507.103,0,0
323691,56.25,-505.894,0,0
323952,56.0535,-504.663,0,0
324212,55.9459,-503.394,0,0
324472,55.8664,-502.09,0,0
324733,55.8561,-500.717,0,0
324993,55.9912,-499.338,0,0
325253,56.2149,-497.971,0,0
325514,56.5003,-496.586,0,0
325774,56.9839,-495.269,0,0
326034,57.5034,-494.041,0,0
326295,58.0743,-492.981,0,0
326555,58.776,-492.005,0,0
326815,59.421,-491.092,0,0
327076,60.0537,-490.407,0,0
327336,60.6652,-489.772,0,0
327596,61.2517,-489.211,0,0
327857,61.7087,-488.758,0,0
328117,62.1493,-488.312,0,0
328377,62.5338,-487.834,0,0
328638,62.8546,-487.356,0,0
328898,63.1663,-487.005,0,0
329158,63.4554,-486.578,0,0
329419,63.7816,-486.165,0,0
329679,64.0612,-485.826,0,0
329939,64.3306,-485.54,0,0
330200,64.6096,-485.265,0,0
330460,64.8003,-484.973,0,0
330720.15,64.9157,-484.745,0,0
330980.475,65.0581,-484.621,0,0
331240.8,65.1536,-484.415,0,0
331501.125,65.1986,-484.307,0,0
331761.45,65.1373,-484.205,0,0
332021.775,65.0761,-484.148,0,0
332282.1,64.8724,-484.025,0,0
332542.425,64.6465,-483.915,0,0
332802.75,64.3488,-483.799,0,0
333063.075,63.9643,-483.591,0,0
333323.4,63.5398,-483.39,0,0
333583.725,63.0436,-483.107,0,0
333844.05,62.5585,-482.736,0,0
334104.375,62.0717,-482.273,0,0
334364.7,61.5443,-481.862,0,0
334625.025,61.0889,-481.341,0,0
334885.35,60.6311,-480.736,0,0
335145.675,60.1437,-480.139,0,0
335406.0,59.715,-479.461,0,0
335666.325,59.3146,-478.817,0,0
335926.65,58.9305,-478.141,0,0
336186.975,58.5354,-477.423,0,0
336447.3,58.1469,-476.764,0,0
336707.625,57.7785,-476.002,0,0
336967.95,57.3971,-475.281,0,0
337228.275,57.0273,-474.502,0,0
337488.6,56.7246,-473.734,0,0
337748.925,56.4356,-472.901,0,0
338009.25,56.1215,-472.107,0,0
338269.575,55.8787,-471.263,0,0
338529.9,55.6002,-470.407,0,0
338790.225,55.3789,-469.609,0,0
339050.55,55.1831,-468.717,0,0
339310.875,54.9588,-467.846,0,0
339571.2,54.8157,-466.95,0,0
339831.525,54.6589,-466.116,0,0
340091.85,54.5211,-465.266,0,0
340352.175,54.4532,-464.432,0,0
340612.5,54.3273,-463.499,0,0
340872.825,54.2656,-462.649,0,0
341133.15,54.1865,-461.801,0,0
341393.475,54.209,-460.932,0,0
341653.8,54.1289,-460.095,0,0
341914.125,54.0891,-459.217,0,0
342174.45,54.0844,-458.347,0,0
342434.775,54.0998,-457.513,0,0
342695.1,54.0906,-456.723,0,0
342955.425,54.1159,-455.816,0,0
343215.75,54.1404,-454.963,0,0
343476.075,54.2507,-454.132,0,0
343736.4,54.3233,-453.248,0,0
343996.725,54.4384,-452.386,0,0
344257.05,54.6116,-451.598,0,0
344517.375,54.668,-450.751,0,0
344777.7,54.8348,-449.956,0,0
345038.025,54.9904,-449.159,0,0
345298.35,55.1848,-448.278,0,0
345558.675,55.4465,-447.557,0,0
345819.0,55.6122,-446.838,0,0
346079.325,55.8632,-446.076,0,0
346339.65,56.0828,-445.316,0,0
346599.975,56.3598,-444.654,0,0
346860,56.6144,-443.925,0,0
347121,56.8752,-443.211,0,0
347381,57.1234,-442.573,0,0
347641,57.3807,-441.913,0,0
347902,57.6847,-441.238,0,0
348162,57.9604,-440.632,0,0
348422,58.1922,-439.986,0,0
348683,58.4929,-439.371,0,0
348943,58.8501,-438.769,0,0
349203,59.1723,-438.16,0,0
349464,59.4854,-437.582,0,0
349724,59.8191,-437.062,0,0
349984,60.1909,-436.499,0,0
350245,60.5501,-436.013,0,0
350505,60.921,-435.569,0,0
350765,61.2549,-435.145,0,0
351025,61.5707,-434.775,0,0
351286,61.9329,-434.384,0,0
351546,62.1878,-433.998,0,0
351806,62.4381,-433.657,0,0
352067,62.6658,-433.307,0,0
352327,62.9003,-432.931,0,0
352587,63.1156,-432.585,0,0
352848,63.3666,-432.185,0,0
353108,63.5041,-431.823,0,0
353368,63.7551,-431.449,0,0
353629,63.9618,-431.033,0,0
353889,64.1805,-430.648,0,0
354149,64.38,-430.31,0,0
354410,64.6052,-429.945,0,0
354670,64.8455,-429.568,0,0
354930,65.117,-429.243,0,0
355191,65.3411,-428.9,0,0
355451,65.58,-428.566,0,0
355711,65.7739,-428.244,0,0
355972,66.0134,-427.889,0,0
356232,66.2478,-427.583,0,0
356492,66.4453,-427.27,0,0
356753,66.7231,-426.935,0,0
357013,66.9676,-426.616,0,0
357273,67.2079,-426.31,0,0
357534,67.4871,-426.009,0,0
357794,67.8034,-425.734,0,0
358054,68.1254,-425.48,0,0
358315,68.486,-425.322,0,0
358575,68.765,-425.083,0,0
358835,69.0782,-424.938,0,0
359096,69.4087,-424.868,0,0
359356,69.7479,-424.786,0,0
359616,70.015,-424.833,0,0
359877,70.2638,-424.868,0,0
360137,70.4311,-424.923,0,0
360397,70.5984,-424.988,0,0
360658,70.6328,-425.059,0,0
360918,70.6953,-425.163,0,0
361178,70.7241,-425.155,0,0
361438,70.7124,-425.245,0,0
361699,70.7041,-425.208,0,0
361959,70.656,-425.245,0,0
362219,70.5831,-425.272,0,0
362480,70.5259,-425.272,0,0
362740.1,70.4749,-425.352,0,0
363000.425,70.3451,-425.349,0,0
363260.75,70.192,-425.361,0,0
363521.075,70.0165,-425.376,0,0
363781.4,69.8042,-425.345,0,0
364041.725,69.6236,-425.306,0,0
364302.05,69.396,-425.268,0,0
364562.375,69.0744,-425.164,0,0
364822.7,68.8524,-425.078,0,0
365083.025,68.5258,-424.972,0,0
365343.35,68.2495,-424.801,0,0
365603.675,67.9157,-424.645,0,0
365864.0,67.654,-424.455,0,0
366124.325,67.3847,-424.24,0,0
366384.65,67.0289,-423.917,0,0
366644.975,66.745,-423.628,0,0
366905.3,66.5007,-423.291,0,0
367165.625,66.2822,-422.898,0,0
367425.95,66.1305,-422.51,0,0
367686.275,65.9365,-422.148,0,0
367946.6,65.8729,-421.776,0,0
368206.925,65.7702,-421.424,0,0
368467.25,65.7278,-421.1,0,0
368727.575,65.744,-420.864,0,0
368987.9,65.7001,-420.645,0,0
369248.225,65.6785,-420.462,0,0
369508.55,65.6127,-420.302,0,0
369768.875,65.5808,-420.21,0,0
370029.2,65.4525,-420.096,0,0
370289.525,65.3237,-420.027,0,0
370549.85,65.0854,-419.936,0,0
370810.175,64.8416,-419.771,0,0
371070.5,64.5261,-419.665,0,0
371330.825,64.2616,-419.471,0,0
371591.15,64.0184,-419.22,0,0
371851.475,63.7395,-419.024,0,0
372111.8,63.4419,-418.775,0,0
372372.125,63.1901,-418.566,0,0
372632.45,62.9652,-418.297,0,0
372892.775,62.7428,-417.995,0,0
373153.1,62.5581,-417.786,0,0
373413.425,62.3014,-417.534,0,0
373673.75,62.0554,-417.324,0,0
373934.075,61.7832,-417.129,0,0
374194.4,61.5418,-416.901,0,0
374454.725,61.2697,-416.646,0,0
374715.05,60.9993,-416.428,0,0
374975.375,60.6781,-416.22,0,0
375235.7,60.3927,-415.946,0,0
375496.025,60.055,-415.66,0,0
375756.35,59.7377,-415.366,0,0
376016.675,59.4183,-415.088,0,0
376277.0,59.1066,-414.753,0,0
376537.325,58.8246,-414.415,0,0
376797.65,58.5599,-414.105,0,0
377057.975,58.3049,-413.781,0,0
377318.3,58.0426,-413.54,0,0
377578.625,57.7966,-413.261,0,0
377838.95,57.5907,-413.016,0,0
378099.275,57.2475,-412.83,0,0
378359.6,56.8698,-412.688,0,0
378619.925,56.4471,-412.504,0,0
378880,55.9585,-412.337,0,0
379141,55.3465,-412.035,0,0
379401,54.7184,-411.697,0,0
379661,54.0959,-411.282,0,0
379922,53.421,-410.674,0,0
380182,52.8069,-410.015,0,0
380442,52.3109,-409.198,0,0
380703,51.9896,-408.374,0,0
380963,51.7506,-407.557,0,0
381223,51.6717,-406.784,0,0
381483,51.6478,-406.108,0,0
381744,51.6331,-405.512,0,0
382004,51.645,-405.125,0,0
382264,51.6154,-404.663,0,0
382525,51.5169,-404.371,0,0
382785,51.3915,-404.049,0,0
383045,51.1661,-403.72,0,0
383306,50.9229,-403.425,0,0
383566,50.6607,-403.109,0,0
383826,50.3574,-402.763,0,0
384087,49.9918,-402.372,0,0
384347,49.6533,-401.943,0,0
384607,49.278,-401.511,0,0
384868,48.87,-401.045,0,0
385128,48.5141,-400.543,0,0
385388,48.1936,-400.018,0,0
385649,47.8317,-399.45,0,0
385909,47.5003,-398.95,0,0
386169,47.2157,-398.342,0,0
386430,46.7966,-397.758,0,0
386690,46.5168,-397.154,0,0
386950,46.1589,-396.489,0,0
387211,45.8766,-395.82,0,0
387471,45.5964,-395.161,0,0
387731,45.3375,-394.453,0,0
387992,45.1211,-393.755,0,0
388252,44.9136,-393.064,0,0
388512,44.7542,-392.324,0,0
388773,44.6132,-391.593,0,0
389033,44.5157,-390.88,0,0
389293,44.4571,-390.133,0,0
389554,44.3996,-389.431,0,0
389814,44.427,-388.749,0,0
390074,44.46,-388.141,0,0
390335,44.4946,-387.493,0,0
390595,44.5574,-386.922,0,0
390855,44.6208,-386.388,0,0
391116,44.711,-385.88,0,0
391376,44.8071,-385.473,0,0
391636,44.8377,-385.068,0,0
391896,44.8356,-384.72,0,0
392157,44.7409,-384.432,0,0
392417,44.5798,-384.16,0,0
392677,44.3761,-383.837,0,0
392938,44.0779,-383.473,0,0
393198,43.7659,-383.042,0,0
393458,43.4428,-382.595,0,0
393719,43.1159,-382.038,0,0
393979,42.7583,-381.491,0,0
394239,42.4382,-380.871,0,0
394500,42.1,-380.21,0,0
394760.05,41.839,-379.499,0,0
395020.375,41.5342,-378.801,0,0
395280.7,41.3279,-378.025,0,0
395541.025,41.1475,-377.279,0,0
395801.35,40.9714,-376.473,0,0
396061.675,40.8142,-375.7,0,0
396322.0,40.7308,-374.876,0,0
396582.325,40.6775,-374.107,0,0
396842.65,40.6393,-373.3,0,0
397102.975,40.5833,-372.527,0,0
397363.3,40.5959,-371.766,0,0
397623.625,40.6077,-370.961,0,0
397883.95,40.6466,-370.199,0,0
398144.275,40.7363,-369.466,0,0
398404.6,40.8196,-368.732,0,0
398664.925,40.9373,-368.049,0,0
398925.25,41.0277,-367.324,0,0
399185.575,41.1647,-366.663,0,0
399445.9,41.2751,-365.974,0,0
399706.225,41.3743,-365.301,0,0
399966.55,41.5348,-364.659,0,0
400006.6,41.5561,-364.561,0,0