File: Accelerated corrosion test data/2025-10-10_18-00-03/sample_7.csv
Frequency (Hz),Impedance (ohms),Phase (Radians),Temperature (C),Humidity (%)
10000.0,273.941,-12077.1,0,0
10260.325,268.929,-11786.5,0,0
10520.65,258.067,-11488.2,0,0
10780.975,253.175,-11207.4,0,0
11041.3,250.352,-10940.7,0,0
11301.625,247.386,-10684.7,0,0
11561.95,250.65,-10436.3,0,0
11822.275,260.675,-10204.8,0,0
12082.6,271.245,-9978.64,0,0
12342.925,313.138,-9835.45,0,0
12603.25,257.08,-9628.59,0,0
12863.575,264.762,-9455.49,0,0
13123.9,236.164,-9263.78,0,0
13384.225,226.896,-9088.66,0,0
13644.55,224.826,-8913.94,0,0
13904.875,210.953,-8740.06,0,0
14165.2,213.727,-8568.85,0,0
14425.525,204.915,-8429.95,0,0
14685.8,203.746,-8281.17,0,0
14946.175,199.199,-8134.92,0,0
15206.5,194.859,-8005.4,0,0
15466.825,187.362,-7863.07,0,0
15727.15,182.486,-7734.81,0,0
15987.5,180.333,-7604.47,0,0
16247.8,177.348,-7487.54,0,0
16508.125,171.896,-7365.02,0,0
16768.45,172.073,-7246.69,0,0
17028.775,170.767,-7136.35,0,0
17289.1,166.058,-7027.34,0,0
17549.425,165.752,-6918.89,0,0
17809.75,171.752,-6810.13,0,0
18070.075,169.753,-6712.63,0,0
18330.4,181.864,-6607.77,0,0
18590.725,202.119,-6528.14,0,0
18851.05,193.04,-6451.71,0,0
19111.375,181.359,-6368.01,0,0
19371.7,201.106,-6305.55,0,0
19632.025,167.18,-6226.99,0,0
19892.35,159.105,-6126.98,0,0
20152.675,168.684,-6049.21,0,0
20413.0,167.985,-5976.56,0,0
20673.3,171.251,-5895.77,0,0
20933.65,178.673,-5839.75,0,0
21193.975,160.528,-5773.94,0,0
21454.3,152.549,-5699.65,0,0
21714.625,155.581,-5634.83,0,0
21974.9,145.911,-5570.29,0,0
22235.275,141.554,-5501.66,0,0
22495.6,139.574,-5439.44,0,0
22755.925,134.067,-5375.54,0,0
23016.25,130.666,-5311.91,0,0
23276.6,128.946,-5248.99,0,0
23536.9,130.227,-5189.54,0,0
23797.225,128.446,-5134.21,0,0
24057.55,124.669,-5076.66,0,0
24317.875,123.403,-5019.18,0,0
24578.2,124.003,-4964.88,0,0
24838.525,122.999,-4910.92,0,0
25098.85,121.276,-4859.53,0,0
25359.175,120.694,-4807.56,0,0
25619.5,118.732,-4755.45,0,0
25879.8,118.906,-4705.9,0,0
26140.1,120.395,-4654.14,0,0
26400.5,124.44,-4607.63,0,0
26660.8,122.42,-4561.07,0,0
26921.1,123.902,-4510.72,0,0
27181.4,129.82,-4463.6,0,0
27441.8,133.366,-4416.89,0,0
27702.1,145.311,-4371.04,0,0
27962.4,162.017,-4329.33,0,0
28222.7,181.154,-4308.94,0,0
28483.1,179.819,-4287.15,0,0
28743.4,174.583,-4271.87,0,0
29003.7,158.982,-4242.13,0,0
29264,143.6,-4204.96,0,0
29524.4,136.775,-4164.57,0,0
29784.7,129.672,-4126.58,0,0
30045,129.438,-4083.21,0,0
30305.3,132.363,-4047.5,0,0
30565.7,133.269,-4014.75,0,0
30826,134.066,-3982.94,0,0
31086.3,135.802,-3954.02,0,0
31346.6,133.03,-3925.31,0,0
31607,129.258,-3901.07,0,0
31867.3,121.755,-3868.7,0,0
32127.6,117.783,-3837.72,0,0
32387.9,114.718,-3806.76,0,0
32648.3,111.103,-3776.6,0,0
32908.6,108.01,-3746.41,0,0
33168.9,104.57,-3716.36,0,0
33429.2,101.868,-3686.41,0,0
33689.6,99.4543,-3656.28,0,0
33949.9,97.8678,-3627.67,0,0
34210.2,95.4573,-3598.64,0,0
34470.5,94.0814,-3570.35,0,0
34730.9,92.8209,-3542.17,0,0
34991.2,91.815,-3514.59,0,0
35251.5,90.5607,-3487.47,0,0
35511.8,89.6001,-3460.5,0,0
35772.2,89.2086,-3434.12,0,0
36032.5,88.9077,-3408.48,0,0
36292.8,88.2916,-3383.81,0,0
36553.1,87.154,-3358.68,0,0
36813.5,86.683,-3333.53,0,0
37073.8,86.6478,-3308.85,0,0
37334.1,86.5783,-3285.05,0,0
37594.4,86.2329,-3261.79,0,0
37854.8,85.6515,-3238.08,0,0
38115.1,85.7487,-3214.34,0,0
38375.4,86.2697,-3191.21,0,0
38635.7,87.1098,-3168.07,0,0
38896.1,88.4617,-3145.79,0,0
39156.4,90.0573,-3124.43,0,0
39416.7,92.9618,-3103.04,0,0
39677,96.2576,-3084.75,0,0
39937.4,97.6323,-3068.27,0,0
40197.7,97.8833,-3052.14,0,0
40458,95.0489,-3036.23,0,0
40718.3,92.5324,-3018.28,0,0
40978.7,89.4097,-2999.72,0,0
41239,87.0348,-2980.57,0,0
41499.3,85.2843,-2960.77,0,0
41759.6,84.129,-2942.14,0,0
42020,82.2247,-2923.43,0,0
42280.275,80.943,-2904.07,0,0
42540.6,80.6689,-2884.68,0,0
42800.925,81.0308,-2866.59,0,0
43061.25,81.0348,-2848.38,0,0
43321.575,80.7131,-2832.15,0,0
43581.9,79.6387,-2814.4,0,0
43842.225,79.6441,-2796.22,0,0
44102.55,80.8104,-2778.72,0,0
44362.875,82.5799,-2763.77,0,0
44623.2,82.5611,-2748.55,0,0
44883.525,81.4878,-2733.82,0,0
45143.85,80.9777,-2718.53,0,0
45404.175,79.3137,-2702.64,0,0
45664.5,80.2065,-2686.16,0,0
45924.825,81.1215,-2673.1,0,0
46185.15,79.6704,-2659.84,0,0
46445.475,77.767,-2646.18,0,0
46705.8,75.0787,-2631.5,0,0
46966.125,73.0985,-2615.6,0,0
47226.45,72.0678,-2600,0,0
47486.775,71.5985,-2584.81,0,0
47747.1,71.2428,-2570.27,0,0
48007.425,70.7961,-2555.92,0,0
48267.75,70.3027,-2541.87,0,0
48528.075,69.5245,-2527.75,0,0
48788.4,69.0055,-2513.72,0,0
49048.725,68.3212,-2499.82,0,0
49309.05,67.989,-2486.19,0,0
49569.375,67.6147,-2472.67,0,0
49829.7,67.1191,-2459.32,0,0
50090.025,66.8711,-2446.1,0,0
50350.35,66.5352,-2432.86,0,0
50610.675,66.1561,-2419.9,0,0
50871.0,65.7902,-2407.16,0,0
51131.325,65.4169,-2394.36,0,0
51391.65,64.9273,-2381.76,0,0
51651.975,64.6937,-2369.37,0,0
51912.3,64.5461,-2356.96,0,0
52172.625,64.2902,-2344.63,0,0
52432.95,64.121,-2332.57,0,0
52693.275,64.0147,-2320.69,0,0
52953.6,63.9817,-2308.84,0,0
53213.925,63.9273,-2297.41,0,0
53474.25,63.6377,-2286.02,0,0
53734.575,63.1439,-2274.82,0,0
53994.9,62.7886,-2263.41,0,0
54255.225,62.7115,-2252.06,0,0
54515.55,62.3745,-2241,0,0
54775.875,62.087,-2229.85,0,0
55036.2,61.8257,-2219,0,0
55296.525,61.6168,-2208.1,0,0
55556.85,61.5062,-2197.32,0,0
55817.175,61.3108,-2186.65,0,0
56077.5,61.1262,-2176.04,0,0
56337.825,61.1729,-2165.51,0,0
56598.15,60.8146,-2155.36,0,0
56858.475,60.6327,-2145.17,0,0
57118.8,60.4458,-2135.05,0,0
57379.125,60.158,-2124.9,0,0
57639.45,59.9773,-2114.85,0,0
57899.775,59.8706,-2104.61,0,0
58160.1,59.9956,-2094.72,0,0
58420.4,60.3606,-2085,0,0
58680.7,60.3168,-2075.72,0,0
58941.1,60.0972,-2066.3,0,0
59201.4,59.9104,-2056.85,0,0
59461.7,60.2577,-2047.4,0,0
59722,60.2637,-2038.59,0,0
59982.4,60.3208,-2029.63,0,0
60242.7,60.3076,-2020.73,0,0
60503,60.0128,-2012.27,0,0
60763.3,59.5987,-2003.56,0,0
61023.7,59.1587,-1994.86,0,0
61284,58.7648,-1986.24,0,0
61544.3,58.4229,-1977.68,0,0
61804.6,57.9729,-1969.06,0,0
62065,57.5547,-1960.39,0,0
62325.3,57.1456,-1951.67,0,0
62585.6,56.9127,-1943.05,0,0
62845.9,56.6002,-1934.51,0,0
63106.3,56.3953,-1926.06,0,0
63366.6,56.3689,-1917.51,0,0
63626.9,56.3847,-1909.47,0,0
63887.2,56.0205,-1901.45,0,0
64147.6,55.7802,-1893.26,0,0
64407.9,55.5434,-1885.14,0,0
64668.2,55.4027,-1876.95,0,0
64928.5,55.3398,-1868.99,0,0
65188.9,55.4505,-1861.04,0,0
65449.2,55.6351,-1853.5,0,0
65709.5,55.6274,-1846.06,0,0
65969.8,55.4752,-1838.6,0,0
66230.2,55.1957,-1831.24,0,0
66490.5,55.0536,-1823.85,0,0
66750.8,54.7072,-1816.55,0,0
67011.1,54.1026,-1809.16,0,0
67271.5,53.7171,-1801.75,0,0
67531.8,53.4781,-1794.32,0,0
67792.1,53.228,-1787.06,0,0
68052.4,52.8308,-1779.61,0,0
68312.8,52.6144,-1772.3,0,0
68573.1,52.6248,-1765.09,0,0
68833.4,52.3898,-1757.97,0,0
69093.7,52.2922,-1750.72,0,0
69354.1,52.2927,-1743.7,0,0
69614.4,52.1559,-1736.71,0,0
69874.7,52.1689,-1729.72,0,0
70135,52.111,-1722.94,0,0
70395.4,51.9734,-1716.07,0,0
70655.7,51.9787,-1709.39,0,0
70916,52.0293,-1702.77,0,0
71176.3,51.9308,-1696.34,0,0
71436.7,51.7949,-1689.91,0,0
71697,51.4345,-1683.46,0,0
71957.3,51.2956,-1676.98,0,0
72217.6,50.9541,-1670.57,0,0
72478,50.6791,-1664.02,0,0
72738.3,50.4673,-1657.55,0,0
72998.6,50.3608,-1651.16,0,0
73258.9,50.2087,-1644.77,0,0
73519.3,50.0798,-1638.44,0,0
73779.6,49.9332,-1632.23,0,0
74039.9,49.7716,-1625.97,0,0
74300.225,49.7147,-1619.8,0,0
74560.55,49.654,-1613.66,0,0
74820.875,49.548,-1607.52,0,0
75081.2,49.3996,-1601.49,0,0
75341.525,49.2683,-1595.45,0,0
75601.85,49.1649,-1589.42,0,0
75862.175,49.1039,-1583.54,0,0
76122.5,48.9466,-1577.59,0,0
76382.825,48.8834,-1571.7,0,0
76643.15,48.7811,-1565.78,0,0
76903.475,48.8314,-1559.99,0,0
77163.8,48.73,-1554.28,0,0
77424.125,48.6382,-1548.57,0,0
77684.45,48.6151,-1542.81,0,0
77944.775,48.5382,-1537.21,0,0
78205.1,48.4049,-1531.53,0,0
78465.425,48.4528,-1525.93,0,0
78725.75,48.3832,-1520.43,0,0
78986.075,48.3105,-1514.92,0,0
79246.4,48.2367,-1509.49,0,0
79506.725,48.1288,-1503.94,0,0
79767.05,48.221,-1498.55,0,0
80027.375,48.1433,-1493.18,0,0
80287.7,48.1031,-1487.89,0,0
80548.025,48.0868,-1482.59,0,0
80808.35,47.9404,-1477.33,0,0
81068.675,47.7809,-1472.04,0,0
81329.0,47.8044,-1466.78,0,0
81589.325,47.7815,-1461.58,0,0
81849.65,47.7122,-1456.41,0,0
82109.975,47.6654,-1451.23,0,0
82370.3,47.7085,-1446.08,0,0
82630.625,47.6664,-1441.01,0,0
82890.95,47.5685,-1435.99,0,0
83151.275,47.5653,-1430.89,0,0
83411.6,47.5181,-1425.75,0,0
83671.925,47.513,-1420.72,0,0
83932.25,47.5855,-1415.77,0,0
84192.575,47.6427,-1410.8,0,0
84452.9,47.721,-1405.99,0,0
84713.225,47.7134,-1401.15,0,0
84973.55,47.7274,-1396.29,0,0
85233.875,47.7622,-1391.56,0,0
85494.2,47.7697,-1386.78,0,0
85754.525,47.7209,-1382.04,0,0
86014.85,47.7852,-1377.22,0,0
86275.175,47.9289,-1372.58,0,0
86535.5,47.8841,-1368.05,0,0
86795.825,47.8071,-1363.34,0,0
87056.15,47.8667,-1358.68,0,0
87316.475,47.9075,-1354.06,0,0
87576.8,47.9638,-1349.65,0,0
87837.125,47.9751,-1345.11,0,0
88097.45,47.9919,-1340.66,0,0
88357.775,48.0301,-1336.23,0,0
88618.1,47.9369,-1331.79,0,0
88878.425,47.8644,-1327.27,0,0
89138.75,47.859,-1322.89,0,0
89399.075,47.7704,-1318.29,0,0
89659.4,47.7089,-1313.8,0,0
89919.725,47.7973,-1309.47,0,0
90180,47.7624,-1304.94,0,0
90440.4,47.9589,-1300.45,0,0
90700.7,48.0897,-1296.2,0,0
90961,47.9848,-1291.87,0,0
91221.3,48.1457,-1287.51,0,0
91481.7,48.2463,-1283.14,0,0
91742,48.3931,-1278.95,0,0
92002.3,48.5884,-1274.68,0,0
92262.6,48.775,-1270.56,0,0
92523,48.7901,-1266.47,0,0
92783.3,48.7428,-1262.29,0,0
93043.6,48.9368,-1258.01,0,0
93303.9,49.1141,-1253.82,0,0
93564.3,49.2976,-1249.54,0,0
93824.6,49.7423,-1245.35,0,0
94084.9,50.2273,-1241.55,0,0
94345.2,50.4677,-1237.8,0,0
94605.6,50.6624,-1234.06,0,0
94865.9,50.9017,-1230.15,0,0
95126.2,51.2369,-1226.77,0,0
95386.5,51.1709,-1223.36,0,0
95646.9,50.8202,-1219.61,0,0
95907.2,50.5538,-1215.81,0,0
96167.5,50.5136,-1211.9,0,0
96427.8,50.309,-1208,0,0
96688.2,50.2724,-1204.13,0,0
96948.5,50.2247,-1200.25,0,0
97208.8,50.1009,-1196.37,0,0
97469.1,50.0437,-1192.31,0,0
97729.5,50.2341,-1188.26,0,0
97989.8,50.4528,-1184.46,0,0
98250.1,50.6674,-1180.58,0,0
98510.4,50.9911,-1177.04,0,0
98770.8,50.9914,-1173.53,0,0
99031.1,50.8462,-1169.94,0,0
99291.4,50.6829,-1166.21,0,0
99551.7,50.5346,-1162.25,0,0
99812.1,50.5506,-1158.17,0,0
100072,50.8402,-1154.14,0,0
100333,51.346,-1150.37,0,0
100593,51.506,-1146.79,0,0
100853,51.7543,-1143,0,0
101114,52.1073,-1139.33,0,0
101374,52.3999,-1135.78,0,0
101634,52.6371,-1132.17,0,0
101895,52.9049,-1128.44,0,0
102155,53.2617,-1124.76,0,0
102415,53.805,-1121.17,0,0
102676,54.2071,-1117.72,0,0
102936,54.7408,-1114.12,0,0
103196,55.3916,-1110.88,0,0
103457,55.9237,-1107.65,0,0
103717,56.5265,-1104.66,0,0
103977,56.663,-1101.89,0,0
104238,56.6576,-1098.67,0,0
104498,56.9318,-1095.41,0,0
104758,57.343,-1092.34,0,0
105019,57.4337,-1089.46,0,0
105279,57.3468,-1086.55,0,0
105539,57.1929,-1083.26,0,0
105800,57.1766,-1080.03,0,0
106060,57.0516,-1076.74,0,0
106320.175,57.0714,-1073.21,0,0
106580.5,57.3408,-1069.78,0,0
106840.825,57.7188,-1066.38,0,0
107101.15,58.1067,-1063.39,0,0
107361.475,58.1314,-1060.34,0,0
107621.8,58.1648,-1057.08,0,0
107882.125,58.4099,-1053.71,0,0
108142.45,58.6398,-1050.63,0,0
108402.775,58.7895,-1047.44,0,0
108663.1,59.0519,-1044.22,0,0
108923.425,59.209,-1041,0,0
109183.75,59.4019,-1037.97,0,0
109444.075,59.3914,-1034.86,0,0
109704.4,59.3555,-1031.44,0,0
109964.725,59.4974,-1028.02,0,0
110225.05,59.6612,-1024.37,0,0
110485.375,60.0777,-1020.63,0,0
110745.7,60.8088,-1017.18,0,0
111006.025,61.6392,-1013.96,0,0
111266.35,62.2606,-1010.88,0,0
111526.675,62.7763,-1007.62,0,0
111787.0,63.4186,-1004.24,0,0
112047.325,64.265,-1001.03,0,0
112307.65,65.1061,-997.789,0,0
112567.975,65.9914,-994.692,0,0
112828.3,67.0254,-991.641,0,0
113088.625,68.1469,-988.744,0,0
113348.95,69.1424,-986.086,0,0
113609.275,69.9834,-983.342,0,0
113869.6,70.9584,-980.493,0,0
114129.925,72.0436,-977.783,0,0
114390.25,73.1911,-975.177,0,0
114650.575,74.0952,-972.721,0,0
114910.9,75.0977,-969.96,0,0
115171.225,76.4026,-967.385,0,0
115431.55,77.72,-964.885,0,0
115691.875,79.2419,-962.484,0,0
115952.2,80.8658,-960.448,0,0
116212.525,82.5045,-958.67,0,0
116472.85,84.1131,-957.257,0,0
116733.175,85.3349,-956.28,0,0
116993.5,86.0494,-955.172,0,0
117253.825,86.9284,-953.871,0,0
117514.15,87.6697,-952.825,0,0
117774.475,88.0874,-951.732,0,0
118034.8,88.5052,-950.304,0,0
118295.125,89.4413,-948.878,0,0
118555.45,90.4738,-948.157,0,0
118815.775,91.1313,-947.822,0,0
119076.1,91.2399,-947.727,0,0
119336.425,91.0694,-947.434,0,0
119596.75,90.7815,-947.199,0,0
119857.075,90.0868,-947.22,0,0
120117.4,88.9033,-947.084,0,0
120377.725,87.2696,-946.982,0,0
120638.05,84.952,-946.146,0,0
120898.375,82.8432,-944.841,0,0
121158.7,80.3474,-943.17,0,0
121419.025,78.1892,-940.577,0,0
121679.35,76.8479,-938.029,0,0
121939.675,75.4829,-935.8,0,0
122200.0,74.0396,-933.453,0,0
122460,72.5736,-931.068,0,0
122721,71.1413,-928.509,0,0
122981,69.8053,-925.809,0,0
123241,68.4887,-923.056,0,0
123502,67.2166,-920.051,0,0
123762,66.3199,-916.908,0,0
124022,65.6747,-913.999,0,0
124283,64.945,-911.193,0,0
124543,64.3159,-908.361,0,0
124803,63.821,-905.664,0,0
125064,63.0815,-903.268,0,0
125324,62.0597,-900.644,0,0
125584,61.1297,-897.696,0,0
125845,60.4356,-894.709,0,0
126105,59.7162,-891.885,0,0
126365,58.9664,-888.965,0,0
126626,58.3383,-885.831,0,0
126886,57.8596,-882.801,0,0
127146,57.3706,-879.717,0,0
127406,57.0015,-876.673,0,0
127667,56.7457,-873.606,0,0
127927,56.5116,-870.735,0,0
128187,56.1817,-867.949,0,0
128448,55.8294,-865.067,0,0
128708,55.5017,-862.154,0,0
128968,55.168,-859.217,0,0
129229,55.0241,-856.247,0,0
129489,54.8283,-853.485,0,0
129749,54.4797,-850.614,0,0
130010,54.2159,-847.657,0,0
130270,54.0695,-844.705,0,0
130530,53.9618,-841.896,0,0
130791,53.6705,-839.075,0,0
131051,53.3885,-836.169,0,0
131311,53.1087,-833.097,0,0
131572,52.9873,-829.969,0,0
131832,52.978,-826.951,0,0
132092,52.896,-823.97,0,0
132353,52.8093,-820.882,0,0
132613,52.8618,-817.771,0,0
132873,52.954,-814.708,0,0
133134,53.048,-811.635,0,0
133394,53.2003,-808.528,0,0
133654,53.3818,-805.313,0,0
133915,53.7212,-802.061,0,0
134175,54.4155,-798.801,0,0
134435,55.1728,-795.85,0,0
134696,55.8858,-793.199,0,0
134956,56.2928,-790.482,0,0
135216,56.8474,-787.418,0,0
135477,57.7214,-784.434,0,0
135737,58.955,-781.582,0,0
135997,60.3995,-779.267,0,0
136258,61.5833,-777.5,0,0
136518,62.4303,-775.837,0,0
136778,63.1871,-774.483,0,0
137039,63.28,-773.362,0,0
137299,62.8261,-771.758,0,0
137559,62.3568,-769.737,0,0
137819,62.0809,-767.502,0,0
138080,61.837,-765.367,0,0
138340.125,61.396,-763.131,0,0
138600.45,60.8803,-760.653,0,0
138860.775,60.4859,-757.908,0,0
139121.1,60.3533,-754.973,0,0
139381.425,60.506,-752.129,0,0
139641.75,60.7252,-749.519,0,0
139902.075,60.8694,-746.959,0,0
140162.4,61.0107,-744.496,0,0
140422.725,60.9994,-742.049,0,0
140683.05,60.9357,-739.435,0,0
140943.375,60.949,-736.745,0,0
141203.7,60.991,-734.076,0,0
141464.025,60.9999,-731.359,0,0
141724.35,61.1033,-728.52,0,0
141984.675,61.3157,-725.66,0,0
142245.0,61.5737,-722.845,0,0
142505.325,61.9334,-720.081,0,0
142765.65,62.2925,-717.351,0,0
143025.975,62.7003,-714.594,0,0
143286.3,63.1878,-711.764,0,0
143546.625,63.8567,-709.254,0,0
143806.95,64.3863,-706.832,0,0
144067.275,64.8206,-704.525,0,0
144327.6,65.0501,-702.133,0,0
144587.925,65.2332,-699.663,0,0
144848.25,65.4143,-697.06,0,0
145108.575,65.7961,-694.404,0,0
145368.9,66.2253,-691.965,0,0
145629.225,66.4179,-689.604,0,0
145889.55,66.4425,-687.056,0,0
146149.875,66.5483,-684.26,0,0
146410.2,66.9218,-681.434,0,0
146670.525,67.3408,-678.784,0,0
146930.85,67.7069,-676.152,0,0
147191.175,68.0644,-673.569,0,0
147451.5,68.3401,-670.947,0,0
147711.825,68.6497,-668.212,0,0
147972.15,69.1221,-665.563,0,0
148232.475,69.4916,-663.09,0,0
148492.8,69.7037,-660.609,0,0
148753.125,69.7841,-658.045,0,0
149013.45,69.7445,-655.371,0,0
149273.775,69.6543,-652.446,0,0
149534.1,69.69,-649.372,0,0
149794.425,69.8719,-646.218,0,0
150054.75,70.0942,-643.079,0,0
150315.075,70.3397,-639.865,0,0
150575.4,70.612,-636.562,0,0
150835.725,70.9893,-633.194,0,0
151096.05,71.4192,-629.767,0,0
151356.375,71.9614,-626.288,0,0
151616.7,72.5919,-622.72,0,0
151877.025,73.3473,-619.209,0,0
152137.35,74.138,-615.669,0,0
152397.675,75.0286,-612.026,0,0
152658.0,76.1036,-608.422,0,0
152918.325,77.2587,-604.903,0,0
153178.65,78.4507,-601.429,0,0
153438.975,79.6585,-597.953,0,0
153699.3,80.8537,-594.416,0,0
153959.625,82.164,-590.785,0,0
154219.95,83.6726,-587.089,0,0
154480,85.2947,-583.53,0,0
154741,87.0794,-579.964,0,0
155001,88.903,-576.513,0,0
155261,90.7773,-573.045,0,0
155522,92.7737,-569.688,0,0
155782,94.9404,-566.248,0,0
156042,97.0938,-562.902,0,0
156303,99.4034,-559.762,0,0
156563,101.77,-556.703,0,0
156823,104.283,-553.741,0,0
157084,106.742,-550.781,0,0
157344,109.392,-548.015,0,0
157604,112.071,-545.591,0,0
157864,114.613,-543.216,0,0
158125,117.199,-540.929,0,0
158385,119.827,-538.955,0,0
158645,122.256,-537.352,0,0
158906,124.169,-535.929,0,0
159166,125.643,-534.304,0,0
159426,126.889,-532.597,0,0
159687,127.947,-530.57,0,0
159947,128.704,-528.397,0,0
160207,129.24,-525.873,0,0
160468,129.768,-522.754,0,0
160728,130.407,-519.3,0,0
160988,131.023,-515.334,0,0
161249,132.097,-510.822,0,0
161509,133.783,-505.937,0,0
161769,135.926,-500.979,0,0
162030,138.633,-496.053,0,0
162290,141.706,-491.296,0,0
162550,145.064,-486.718,0,0
162811,148.489,-482.043,0,0
163071,152.192,-477.294,0,0
163331,156.469,-472.427,0,0
163592,161.388,-467.811,0,0
163852,166.645,-463.799,0,0
164112,171.871,-460.206,0,0
164373,176.998,-456.636,0,0
164633,182.359,-453.141,0,0
164893,187.794,-449.928,0,0
165154,192.969,-446.68,0,0
165414,198.297,-443.229,0,0
165674,203.963,-439.263,0,0
165935,210.315,-435.106,0,0
166195,217.604,-430.891,0,0
166455,225.855,-427.134,0,0
166716,234.721,-424.296,0,0
166976,243.799,-421.919,0,0
167236,253.409,-420.017,0,0
167497,263.414,-419.006,0,0
167757,273.549,-418.661,0,0
168017,284.193,-418.515,0,0
168277,295.596,-419.468,0,0
168538,307.411,-421.964,0,0
168798,318.627,-426.053,0,0
169058,329.373,-431.147,0,0
169319,339.349,-437.301,0,0
169579,348.01,-443.834,0,0
169839,356.542,-450.181,0,0
170100,365.232,-456.953,0,0
170360.075,374.101,-465.136,0,0
170620.4,381.864,-474.891,0,0
170880.725,387.803,-485.067,0,0
171141.05,392.874,-494.753,0,0
171401.375,397.867,-504.629,0,0
171661.7,402.39,-515.139,0,0
171922.025,406.392,-526.192,0,0
172182.35,409.809,-538.462,0,0
172442.675,411.242,-552.255,0,0
172703.0,409.96,-565.644,0,0
172963.325,407.392,-578.246,0,0
173223.65,403.359,-590.419,0,0
173483.975,397.526,-601.977,0,0
173744.3,390.001,-611.987,0,0
174004.625,381.557,-620.084,0,0
174264.95,372.644,-626.515,0,0
174525.275,363.388,-631.252,0,0
174785.6,353.863,-633.89,0,0
175045.925,345.61,-634.079,0,0
175306.25,339.381,-633.868,0,0
175566.575,333.193,-633.793,0,0
175826.9,327.257,-631.915,0,0
176087.225,323.349,-628.863,0,0
176347.55,321.207,-626.047,0,0
176607.875,320.402,-623.42,0,0
176868.2,321.13,-621.337,0,0
177128.525,323.037,-620.504,0,0
177388.85,325.478,-621.101,0,0
177649.175,328.127,-622.677,0,0
177909.5,331.404,-625.583,0,0
178169.825,334.725,-630.683,0,0
178430.15,336.747,-638.15,0,0
178690.475,336.327,-646.972,0,0
178950.8,333.233,-655.806,0,0
179211.125,327.949,-663.412,0,0
179471.45,321.856,-669.261,0,0
179731.775,315.674,-674.192,0,0
179992.1,309.007,-678.14,0,0
180252.425,303.052,-681.004,0,0
180512.75,297.822,-684.27,0,0
180773.075,292.205,-688.371,0,0
181033.4,285.235,-692.979,0,0
181293.725,276.281,-696.842,0,0
181554.05,266.434,-698.53,0,0
181814.375,257.172,-698.639,0,0
182074.7,248.287,-698.218,0,0
182335.025,239.298,-697.121,0,0
182595.35,230.217,-694.854,0,0
182855.675,221.729,-691.162,0,0
183116.0,214.855,-686.77,0,0
183376.325,208.844,-682.689,0,0
183636.65,202.914,-678.954,0,0
183896.975,196.766,-674.758,0,0
184157.3,191.126,-669.713,0,0
184417.625,186.465,-664.396,0,0
184677.95,182.69,-659.307,0,0
184938.275,179.244,-654.798,0,0
185198.6,175.598,-650.565,0,0
185458.925,171.864,-646.187,0,0
185719.25,168.11,-641.603,0,0
185979.575,164.427,-636.531,0,0
186239.9,161.202,-631.013,0,0
186500,158.633,-625.339,0,0
186761,156.628,-619.843,0,0
187021,154.838,-614.498,0,0
187281,153.356,-609.049,0,0
187542,152.446,-603.656,0,0
187802,152.038,-598.58,0,0
188062,151.994,-594.009,0,0
188322,152.149,-590.076,0,0
188583,152.046,-586.974,0,0
188843,151.09,-584.175,0,0
189103,149.489,-581.016,0,0
189364,147.747,-577.243,0,0
189624,146.27,-573.188,0,0
189884,144.806,-569.024,0,0
190145,143.468,-564.601,0,0
190405,142.377,-560.184,0,0
190665,141.12,-555.696,0,0
190926,139.902,-550.667,0,0
191186,139.285,-545.264,0,0
191446,139.308,-540.075,0,0
191707,139.477,-535.296,0,0
191967,139.518,-530.652,0,0
192227,139.536,-525.888,0,0
192488,139.633,-520.996,0,0
192748,139.929,-515.925,0,0
193008,140.475,-510.843,0,0
193269,141.304,-505.777,0,0
193529,142.372,-500.854,0,0
193789,143.486,-496.071,0,0
194050,144.591,-491.27,0,0
194310,145.856,-486.323,0,0
194570,147.385,-481.301,0,0
194831,149.304,-476.292,0,0
195091,151.578,-471.55,0,0
195351,153.9,-467.111,0,0
195612,156.303,-462.912,0,0
195872,158.688,-458.819,0,0
196132,161.063,-454.884,0,0
196393,163.369,-450.911,0,0
196653,165.789,-446.955,0,0
196913,168.458,-443.047,0,0
197174,171.096,-439.471,0,0
197434,173.775,-435.97,0,0
197694,176.337,-432.717,0,0
197955,178.498,-429.457,0,0
198215,180.647,-425.805,0,0
198475,183.058,-421.996,0,0
198735,185.616,-418.199,0,0
198996,188.12,-414.452,0,0
199256,190.705,-410.649,0,0
199516,193.273,-406.587,0,0
199777,196.065,-402.36,0,0
200037,199.182,-398.061,0,0
200297,202.617,-393.758,0,0
200558,206.351,-389.67,0,0
200818,210.016,-385.712,0,0
201078,213.73,-381.59,0,0
201339,217.618,-377.209,0,0
201599,222.102,-372.794,0,0
201859,226.947,-368.551,0,0
202120,232.035,-364.454,0,0
202380.025,237.556,-360.571,0,0
202640.35,243.274,-357.038,0,0
202900.675,249.023,-353.73,0,0
203161.0,254.9,-350.465,0,0
203421.325,261.069,-347.352,0,0
203681.65,267.449,-344.349,0,0
203941.975,274.162,-341.605,0,0
204202.3,281.194,-339.144,0,0
204462.625,288.308,-337.109,0,0
204722.95,295.581,-335.431,0,0
204983.275,302.864,-333.698,0,0
205243.6,310.72,-332.149,0,0
205503.925,319.219,-331.307,0,0
205764.25,327.807,-331.575,0,0
206024.575,336.073,-332.571,0,0
206284.9,343.879,-334.263,0,0
206545.225,351.229,-336.33,0,0
206805.55,357.984,-338.908,0,0
207065.875,363.865,-341.581,0,0
207326.2,368.937,-344.014,0,0
207586.525,373.586,-345.721,0,0
207846.85,378.2,-346.713,0,0
208107.175,383.193,-346.893,0,0
208367.5,388.851,-346.78,0,0
208627.825,395.057,-346.196,0,0
208888.15,402.744,-345.469,0,0
209148.475,411.753,-345.647,0,0
209408.8,421.424,-346.872,0,0
209669.125,431.346,-349.255,0,0
209929.45,441.579,-352.351,0,0
210189.775,452.553,-356.828,0,0
210450.1,463.693,-363.391,0,0
210710.425,473.558,-372.058,0,0
210970.75,481.398,-381.648,0,0
211231.075,487.988,-391.148,0,0
211491.4,493.818,-400.804,0,0
211751.725,498.774,-410.855,0,0
212012.05,502.697,-421.063,0,0
212272.375,505.446,-430.996,0,0
212532.7,507.801,-440.392,0,0
212793.025,510.042,-450.062,0,0
213053.35,511.118,-460.362,0,0
213313.675,510.596,-469.914,0,0
213574.0,509.841,-478.209,0,0
213834.325,509.391,-486.149,0,0
214094.65,508.819,-494.374,0,0
214354.975,507.443,-502.676,0,0
214615.3,505.341,-510.437,0,0
214875.625,502.823,-517.529,0,0
215135.95,500.082,-523.973,0,0
215396.275,497.479,-529.714,0,0
215656.6,495.202,-535.147,0,0
215916.925,493.281,-540.313,0,0
216177.25,491.897,-545.737,0,0
216437.575,490.562,-551.974,0,0
216697.9,488.578,-559.038,0,0
216958.225,485.26,-566.403,0,0
217218.55,480.633,-573.108,0,0
217478.875,475.479,-578.599,0,0
217739.2,470.556,-583.244,0,0
217999.525,465.775,-587.77,0,0
218259.85,460.694,-592.179,0,0
218520,455.236,-596.254,0,0
218780,449.463,-599.937,0,0
219041,443.142,-603.103,0,0
219301,436.429,-605.359,0,0
219561,429.796,-606.608,0,0
219822,423.41,-607.132,0,0
220082,417.234,-606.961,0,0
220342,411.322,-606.002,0,0
220603,406.022,-604.345,0,0
220863,401.373,-602.223,0,0
221123,397.34,-599.806,0,0
221384,393.885,-597.187,0,0
221644,390.978,-594.383,0,0
221904,388.584,-591.43,0,0
222165,386.962,-588.377,0,0
222425,385.973,-585.598,0,0
222685,385.335,-583.116,0,0
222946,384.925,-580.853,0,0
223206,384.738,-578.651,0,0
223466,384.927,-576.576,0,0
223727,385.396,-574.738,0,0
223987,386.029,-573.16,0,0
224247,386.649,-571.88,0,0
224508,387.077,-570.528,0,0
224768,387.58,-568.746,0,0
225028,388.625,-566.6,0,0
225289,390.414,-564.48,0,0
225549,392.977,-562.577,0,0
225809,396.258,-561.228,0,0
226070,399.906,-560.531,0,0
226330,403.813,-560.709,0,0
226590,407.613,-561.659,0,0
226851,410.993,-563.006,0,0
227111,414.278,-564.405,0,0
227371,417.827,-566.005,0,0
227632,421.625,-568.016,0,0
227892,425.554,-570.746,0,0
228152,429.402,-574.288,0,0
228413,432.83,-578.327,0,0
228673,436.013,-582.88,0,0
228933,438.72,-588.077,0,0
229193,440.732,-593.595,0,0
229454,442.151,-599.13,0,0
229714,443.394,-604.466,0,0
229974,444.717,-610.102,0,0
230235,445.79,-616.317,0,0
230495,446.31,-623.141,0,0
230755,445.916,-630.433,0,0
231016,444.566,-637.654,0,0
231276,442.336,-644.469,0,0
231536,439.687,-650.684,0,0
231797,437.088,-656.544,0,0
232057,434.64,-662.386,0,0
232317,431.99,-668.752,0,0
232578,428.54,-675.487,0,0
232838,424.217,-682.077,0,0
233098,419.413,-688.294,0,0
233359,414.249,-694.57,0,0
233619,407.984,-700.88,0,0
233879,400.499,-706.67,0,0
234140,392.34,-711.263,0,0
234400,383.843,-714.877,0,0
234660.3,375.073,-717.626,0,0
234920.625,365.999,-719.282,0,0
235180.95,356.943,-719.761,0,0
235441.275,348.495,-718.991,0,0
235701.6,340.752,-717.518,0,0
235961.925,333.85,-715.458,0,0
236222.25,327.757,-713.255,0,0
236482.575,322.417,-711.175,0,0
236742.9,317.394,-709.552,0,0
237003.225,312.269,-708.262,0,0
237263.55,306.673,-706.827,0,0
237523.875,300.971,-704.947,0,0
237784.2,295.306,-702.665,0,0
238044.525,289.592,-699.812,0,0
238304.85,284.051,-696.284,0,0
238565.175,278.872,-691.91,0,0
238825.5,274.574,-686.891,0,0
239085.825,271.442,-681.442,0,0
239346.15,269.443,-676.018,0,0
239606.475,268.579,-671.141,0,0
239866.8,268.555,-667.102,0,0
240127.125,268.896,-664.131,0,0
240387.45,269.211,-662.043,0,0
240647.775,269.145,-660.921,0,0
240908.1,268.328,-660.18,0,0
241168.425,266.884,-659.541,0,0
241428.75,265.008,-658.738,0,0
241689.075,262.806,-657.668,0,0
241949.4,260.311,-656.548,0,0
242209.725,257.482,-654.997,0,0
242470.05,254.459,-652.881,0,0
242730.375,251.641,-650.096,0,0
242990.7,249.295,-646.895,0,0
243251.025,247.353,-643.655,0,0
243511.35,245.412,-640.317,0,0
243771.675,243.624,-636.466,0,0
244032.0,242.61,-632.079,0,0
244292.325,242.439,-627.624,0,0
244552.65,243.128,-623.552,0,0
244812.975,244.451,-620.045,0,0
245073.3,246.013,-617.316,0,0
245333.625,247.642,-615.183,0,0
245593.95,249.101,-613.462,0,0
245854.275,250.513,-612.198,0,0
246114.6,251.536,-611.387,0,0
246374.925,252.208,-610.645,0,0
246635.25,252.647,-609.847,0,0
246895.575,252.929,-609.023,0,0
247155.9,253.094,-608.1,0,0
247416.225,253.203,-607.089,0,0
247676.55,253.413,-605.948,0,0
247936.875,253.727,-604.841,0,0
248197.2,254.063,-603.804,0,0
248457.525,254.367,-602.749,0,0
248717.85,254.742,-601.673,0,0
248978.175,255.288,-600.558,0,0
249238.5,255.968,-599.568,0,0
249498.825,256.763,-598.728,0,0
249759.15,257.602,-597.99,0,0
250019.475,258.436,-597.469,0,0
250279.8,259.223,-597.101,0,0
250540,259.946,-596.733,0,0
250800,260.645,-596.405,0,0
251061,261.481,-596.161,0,0
251321,262.296,-596.018,0,0
251581,263.175,-595.995,0,0
251842,264.152,-596.144,0,0
252102,265.118,-596.599,0,0
252362,265.906,-597.323,0,0
252623,266.539,-598.153,0,0
252883,266.994,-599.099,0,0
253143,267.371,-600.202,0,0
253404,267.546,-601.493,0,0
253664,267.485,-602.901,0,0
253924,267.102,-604.446,0,0
254185,266.312,-605.983,0,0
254445,265.154,-607.319,0,0
254705,263.826,-608.44,0,0
254966,262.399,-609.29,0,0
255226,260.888,-610.058,0,0
255486,259.207,-610.738,0,0
255747,257.413,-611.203,0,0
256007,255.557,-611.475,0,0
256267,253.656,-611.535,0,0
256528,251.724,-611.477,0,0
256788,249.782,-611.234,0,0
257048,247.728,-610.794,0,0
257309,245.728,-610.108,0,0
257569,243.752,-609.151,0,0
257829,241.945,-607.935,0,0
258090,240.299,-606.563,0,0
258350,238.858,-605.006,0,0
258610,237.69,-603.386,0,0
258871,236.716,-601.822,0,0
259131,235.868,-600.355,0,0
259391,235.039,-598.957,0,0
259651,234.146,-597.54,0,0
259912,233.142,-596.032,0,0
260172,232.199,-594.215,0,0
260432,231.428,-592.124,0,0
260693,230.927,-589.904,0,0
260953,230.706,-587.615,0,0
261213,230.74,-585.291,0,0
261474,231.076,-582.856,0,0
261734,231.759,-580.441,0,0
261994,232.846,-578.077,0,0
262255,234.297,-575.885,0,0
262515,236.128,-573.982,0,0
262775,238.259,-572.393,0,0
263036,240.623,-571.213,0,0
263296,243.126,-570.553,0,0
263556,245.559,-570.386,0,0
263817,247.89,-570.625,0,0
264077,249.996,-571.209,0,0
264337,251.825,-572.069,0,0
264598,253.437,-573.101,0,0
264858,254.771,-574.301,0,0
265118,255.707,-575.623,0,0
265379,256.316,-576.775,0,0
265639,256.786,-577.644,0,0
265899,257.459,-578.355,0,0
266160,258.116,-579.098,0,0
266420,258.947,-579.81,0,0
266680.25,259.926,-580.756,0,0
266940.575,260.873,-581.954,0,0
267200.9,261.675,-583.377,0,0
267461.225,262.316,-584.923,0,0
267721.55,262.751,-586.601,0,0
267981.875,262.944,-588.325,0,0
268242.2,262.901,-590.015,0,0
268502.525,262.656,-591.602,0,0
268762.85,262.251,-593.025,0,0
269023.175,261.749,-594.21,0,0
269283.5,261.314,-595.104,0,0
269543.825,261.113,-595.895,0,0
269804.15,261.178,-596.629,0,0
270064.475,261.56,-597.438,0,0
270324.8,262.107,-598.416,0,0
270585.125,262.783,-599.703,0,0
270845.45,263.488,-601.155,0,0
271105.775,264.302,-602.798,0,0
271366.1,265.322,-604.708,0,0
271626.425,266.564,-606.961,0,0
271886.75,268.043,-609.793,0,0
272147.075,269.497,-613.579,0,0
272407.4,270.387,-618.399,0,0
272667.725,270.427,-623.932,0,0
272928.05,269.447,-629.794,0,0
273188.375,267.505,-635.803,0,0
273448.7,264.609,-641.873,0,0
273709.025,260.596,-647.754,0,0
273969.35,255.576,-653.189,0,0
274229.675,249.751,-657.898,0,0
274490.0,243.358,-661.887,0,0
274750.325,236.546,-665.173,0,0
275010.65,229.216,-667.843,0,0
275270.975,221.446,-669.602,0,0
275531.3,213.496,-670.216,0,0
275791.625,205.687,-669.912,0,0
276051.95,198.162,-668.815,0,0
276312.275,190.938,-667.061,0,0
276572.6,183.993,-664.689,0,0
276832.925,177.38,-661.735,0,0
277093.25,171.142,-658.233,0,0
277353.575,165.377,-654.151,0,0
277613.9,160.205,-649.602,0,0
277874.225,155.742,-644.749,0,0
278134.55,151.934,-639.734,0,0
278394.875,148.759,-634.687,0,0
278655.2,146.182,-629.759,0,0
278915.525,144.058,-624.971,0,0
279175.85,142.243,-620.36,0,0
279436.175,140.75,-615.894,0,0
279696.5,139.508,-611.551,0,0
279956.825,138.511,-607.289,0,0
280217.15,137.965,-603.097,0,0
280477.475,137.68,-599.169,0,0
280737.8,137.734,-595.549,0,0
280998.125,137.912,-592.356,0,0
281258.45,138.084,-589.6,0,0
281518.775,138.077,-587.128,0,0
281779.1,137.851,-584.823,0,0
282039.425,137.406,-582.547,0,0
282299.75,136.79,-580.244,0,0
282560,136.031,-577.774,0,0
282820,135.22,-575.105,0,0
283081,134.47,-572.186,0,0
283341,133.92,-569.09,0,0
283601,133.595,-565.878,0,0
283862,133.51,-562.64,0,0
284122,133.675,-559.39,0,0
284382,134.098,-556.225,0,0
284643,134.723,-553.173,0,0
284903,135.533,-550.264,0,0
285163,136.466,-547.525,0,0
285424,137.5,-544.918,0,0
285684,138.646,-542.477,0,0
285944,139.866,-540.208,0,0
286205,141.157,-538.111,0,0
286465,142.454,-536.249,0,0
286725,143.729,-534.605,0,0
286986,144.854,-533.115,0,0
287246,145.896,-531.735,0,0
287506,146.743,-530.417,0,0
287767,147.469,-529.085,0,0
288027,148.094,-527.696,0,0
288287,148.628,-526.24,0,0
288548,149.143,-524.638,0,0
288808,149.721,-522.934,0,0
289068,150.389,-521.15,0,0
289329,151.146,-519.328,0,0
289589,152.034,-517.519,0,0
289849,152.95,-515.71,0,0
290109,153.968,-513.859,0,0
290370,155.103,-511.972,0,0
290630,156.448,-510.125,0,0
290890,157.962,-508.395,0,0
291151,159.575,-506.828,0,0
291411,161.224,-505.438,0,0
291671,162.884,-504.183,0,0
291932,164.483,-503.056,0,0
292192,166.006,-501.959,0,0
292452,167.556,-500.849,0,0
292713,169.123,-499.793,0,0
292973,170.712,-498.781,0,0
293233,172.303,-497.822,0,0
293494,173.898,-496.871,0,0
293754,175.524,-495.948,0,0
294014,177.164,-495.083,0,0
294275,178.806,-494.176,0,0
294535,180.485,-493.282,0,0
294795,182.245,-492.304,0,0
295056,184.167,-491.394,0,0
295316,186.204,-490.542,0,0
295576,188.32,-489.79,0,0
295837,190.498,-489.105,0,0
296097,192.776,-488.49,0,0
296357,195.169,-487.94,0,0
296618,197.676,-487.52,0,0
296878,200.315,-487.218,0,0
297138,203.077,-487.121,0,0
297399,205.907,-487.238,0,0
297659,208.747,-487.592,0,0
297919,211.554,-488.176,0,0
298180,214.263,-488.93,0,0
298440,216.895,-489.768,0,0
298700.2,219.529,-490.697,0,0
298960.525,222.187,-491.723,0,0
299220.85,224.747,-492.803,0,0
299481.175,227.461,-494.107,0,0
299741.5,230.273,-495.422,0,0
300001.825,233.04,-497.038,0,0
300262.15,235.858,-498.829,0,0
300522.475,238.674,-500.828,0,0
300782.8,241.599,-502.969,0,0
301043.125,244.563,-505.429,0,0
301303.45,247.547,-508.237,0,0
301563.775,250.599,-511.345,0,0
301824.1,253.544,-515.026,0,0
302084.425,256.389,-519.196,0,0
302344.75,259.025,-524.104,0,0
302605.075,261.009,-529.636,0,0
302865.4,262.249,-535.51,0,0
303125.725,262.719,-541.645,0,0
303386.05,262.35,-547.791,0,0
303646.375,261.217,-553.778,0,0
303906.7,259.461,-559.41,0,0
304167.025,257.246,-564.709,0,0
304427.35,254.64,-569.648,0,0
304687.675,251.694,-574.254,0,0
304948.0,248.493,-578.471,0,0
305208.325,245.107,-582.351,0,0
305468.65,241.558,-586.012,0,0
305728.975,237.79,-589.407,0,0
305989.3,233.786,-592.505,0,0
306249.625,229.592,-595.231,0,0
306509.95,225.228,-597.568,0,0
306770.275,220.838,-599.476,0,0
307030.6,216.445,-601.041,0,0
307290.925,212.101,-602.243,0,0
307551.25,207.832,-603.157,0,0
307811.575,203.673,-603.85,0,0
308071.9,199.593,-604.313,0,0
308332.225,195.524,-604.591,0,0
308592.55,191.507,-604.618,0,0
308852.875,187.588,-604.383,0,0
309113.2,183.773,-603.932,0,0
309373.525,180.098,-603.268,0,0
309633.85,176.596,-602.352,0,0
309894.175,173.319,-601.322,0,0
310154.5,170.264,-600.152,0,0
310414.825,167.363,-598.946,0,0
310675.15,164.659,-597.68,0,0
310935.475,162.13,-596.444,0,0
311195.8,159.724,-595.197,0,0
311456.125,157.386,-593.967,0,0
311716.45,155.11,-592.744,0,0
311976.775,152.927,-591.486,0,0
312237.1,150.78,-590.227,0,0
312497.425,148.716,-588.932,0,0
312757.75,146.712,-587.621,0,0
313018.075,144.754,-586.3,0,0
313278.4,142.847,-584.955,0,0
313538.725,140.962,-583.592,0,0
313799.05,139.12,-582.152,0,0
314059.375,137.304,-580.644,0,0
314319.7,135.58,-579.059,0,0
314580,133.951,-577.43,0,0
314840,132.416,-575.697,0,0
315101,131.065,-573.957,0,0
315361,129.829,-572.19,0,0
315621,128.721,-570.473,0,0
315882,127.755,-568.8,0,0
316142,126.873,-567.182,0,0
316402,126.081,-565.627,0,0
316663,125.345,-564.149,0,0
316923,124.647,-562.778,0,0
317183,123.956,-561.413,0,0
317444,123.281,-560.117,0,0
317704,122.611,-558.859,0,0
317964,121.959,-557.589,0,0
318225,121.31,-556.356,0,0
318485,120.717,-555.137,0,0
318745,120.101,-553.908,0,0
319006,119.564,-552.645,0,0
319266,119.102,-551.425,0,0
319526,118.711,-550.249,0,0
319787,118.362,-549.086,0,0
320047,118.025,-548.025,0,0
320307,117.732,-547.025,0,0
320567,117.465,-546.095,0,0
320828,117.177,-545.217,0,0
321088,116.902,-544.41,0,0
321348,116.613,-543.644,0,0
321609,116.28,-542.927,0,0
321869,115.943,-542.248,0,0
322129,115.554,-541.604,0,0
322390,115.15,-540.971,0,0
322650,114.71,-540.384,0,0
322910,114.213,-539.811,0,0
323171,113.684,-539.219,0,0
323431,113.098,-538.614,0,0
323691,112.498,-537.982,0,0
323952,111.869,-537.303,0,0
324212,111.24,-536.586,0,0
324472,110.664,-535.827,0,0
324733,110.084,-535.065,0,0
324993,109.572,-534.274,0,0
325253,109.088,-533.48,0,0
325514,108.674,-532.714,0,0
325774,108.284,-532.005,0,0
326034,107.888,-531.364,0,0
326295,107.471,-530.749,0,0
326555,107.059,-530.152,0,0
326815,106.626,-529.594,0,0
327076,106.175,-529.072,0,0
327336,105.685,-528.553,0,0
327596,105.16,-528.034,0,0
327857,104.616,-527.524,0,0
328117,104.046,-527.019,0,0
328377,103.457,-526.505,0,0
328638,102.839,-525.965,0,0
328898,102.222,-525.424,0,0
329158,101.596,-524.869,0,0
329419,100.966,-524.307,0,0
329679,100.331,-523.748,0,0
329939,99.6948,-523.194,0,0
330200,99.0429,-522.613,0,0
330460,98.4001,-522.046,0,0
330720.15,97.673,-521.5,0,0
330980.475,97.1437,-520.923,0,0
331240.8,96.4832,-520.411,0,0
331501.125,95.7513,-519.922,0,0
331761.45,94.9603,-519.4,0,0
332021.775,94.1976,-518.865,0,0
332282.1,93.449,-518.317,0,0
332542.425,92.6182,-517.791,0,0
332802.75,91.6945,-517.213,0,0
333063.075,90.7578,-516.579,0,0
333323.4,89.7772,-515.985,0,0
333583.725,88.8127,-515.317,0,0
333844.05,87.7744,-514.452,0,0
334104.375,86.872,-513.571,0,0
334364.7,85.8041,-512.659,0,0
334625.025,84.9049,-511.779,0,0
334885.35,84.0087,-510.841,0,0
335145.675,83.0107,-509.874,0,0
335406.0,82.1701,-508.816,0,0
335666.325,81.3097,-507.801,0,0
335926.65,80.3984,-506.733,0,0
336186.975,79.5352,-505.574,0,0
336447.3,78.6084,-504.427,0,0
336707.625,77.8549,-503.198,0,0
336967.95,77.1082,-501.986,0,0
337228.275,76.328,-500.701,0,0
337488.6,75.6978,-499.414,0,0
337748.925,75.0183,-498.151,0,0
338009.25,74.4479,-496.784,0,0
338269.575,73.9099,-495.467,0,0
338529.9,73.3328,-494.214,0,0
338790.225,72.8105,-492.877,0,0
339050.55,72.3384,-491.591,0,0
339310.875,71.9131,-490.254,0,0
339571.2,71.527,-488.911,0,0
339831.525,71.1044,-487.621,0,0
340091.85,70.7594,-486.355,0,0
340352.175,70.4123,-485.053,0,0
340612.5,70.0841,-483.725,0,0
340872.825,69.7649,-482.402,0,0
341133.15,69.4039,-481.059,0,0
341393.475,69.2413,-479.779,0,0
341653.8,69.0172,-478.458,0,0
341914.125,68.8297,-477.118,0,0
342174.45,68.6894,-475.81,0,0
342434.775,68.563,-474.425,0,0
342695.1,68.5041,-473.084,0,0
342955.425,68.4624,-471.803,0,0
343215.75,68.4951,-470.569,0,0
343476.075,68.5318,-469.327,0,0
343736.4,68.5878,-468.062,0,0
343996.725,68.6918,-466.857,0,0
344257.05,68.7956,-465.706,0,0
344517.375,68.9617,-464.575,0,0
344777.7,69.1017,-463.466,0,0
345038.025,69.2597,-462.436,0,0
345298.35,69.4564,-461.436,0,0
345558.675,69.6433,-460.467,0,0
345819.0,69.8438,-459.457,0,0
346079.325,69.984,-458.558,0,0
346339.65,70.1506,-457.721,0,0
346599.975,70.2847,-456.817,0,0
346860,70.4304,-456.014,0,0
347121,70.5365,-455.255,0,0
347381,70.5664,-454.475,0,0
347641,70.6384,-453.71,0,0
347902,70.555,-452.953,0,0
348162,70.5676,-452.158,0,0
348422,70.5117,-451.412,0,0
348683,70.3692,-450.584,0,0
348943,70.1809,-449.669,0,0
349203,70.11,-448.772,0,0
349464,70.0419,-447.873,0,0
349724,69.9558,-446.909,0,0
349984,69.8643,-445.936,0,0
350245,69.7985,-445.028,0,0
350505,69.7183,-444.064,0,0
350765,69.6333,-443.004,0,0
351025,69.5895,-441.893,0,0
351286,69.6215,-440.796,0,0
351546,69.7126,-439.666,0,0
351806,69.8492,-438.516,0,0
352067,70.0198,-437.355,0,0
352327,70.2641,-436.314,0,0
352587,70.5502,-435.213,0,0
352848,70.8624,-434.216,0,0
353108,71.2043,-433.202,0,0
353368,71.5354,-432.286,0,0
353629,71.9676,-431.385,0,0
353889,72.322,-430.569,0,0
354149,72.7425,-429.712,0,0
354410,73.1224,-428.908,0,0
354670,73.5249,-428.135,0,0
354930,73.9581,-427.387,0,0
355191,74.4392,-426.727,0,0
355451,74.9233,-426.098,0,0
355711,75.2744,-425.587,0,0
355972,75.6149,-425.141,0,0
356232,75.9261,-424.763,0,0
356492,76.0939,-424.364,0,0
356753,76.1998,-423.944,0,0
357013,76.244,-423.512,0,0
357273,76.2174,-423.028,0,0
357534,76.1513,-422.51,0,0
357794,76.0497,-421.944,0,0
358054,75.9536,-421.332,0,0
358315,75.8006,-420.654,0,0
358575,75.6471,-419.92,0,0
358835,75.5168,-419.1,0,0
359096,75.4309,-418.245,0,0
359356,75.2841,-417.302,0,0
359616,75.3436,-416.369,0,0
359877,75.3004,-415.421,0,0
360137,75.4283,-414.401,0,0
360397,75.5737,-413.37,0,0
360658,75.7612,-412.355,0,0
360918,76.0059,-411.319,0,0
361178,76.2764,-410.293,0,0
361438,76.6724,-409.315,0,0
361699,77.0721,-408.379,0,0
361959,77.4845,-407.495,0,0
362219,77.9131,-406.568,0,0
362480,78.3886,-405.784,0,0
362740.1,78.8632,-404.972,0,0
363000.425,79.3066,-404.209,0,0
363260.75,79.7706,-403.421,0,0
363521.075,80.2285,-402.666,0,0
363781.4,80.6955,-401.934,0,0
364041.725,81.1974,-401.173,0,0
364302.05,81.7399,-400.45,0,0
364562.375,82.305,-399.737,0,0
364822.7,82.9074,-399.075,0,0
365083.025,83.498,-398.486,0,0
365343.35,84.169,-397.951,0,0
365603.675,84.7634,-397.393,0,0
365864.0,85.3752,-397.039,0,0
366124.325,85.9426,-396.585,0,0
366384.65,86.4121,-396.263,0,0
366644.975,86.9271,-395.929,0,0
366905.3,87.3741,-395.55,0,0
367165.625,87.8091,-395.184,0,0
367425.95,88.2496,-394.835,0,0
367686.275,88.6774,-394.515,0,0
367946.6,89.1092,-394.153,0,0
368206.925,89.5236,-393.878,0,0
368467.25,89.9496,-393.602,0,0
368727.575,90.3747,-393.332,0,0
368987.9,90.7859,-393.169,0,0
369248.225,91.1654,-392.974,0,0
369508.55,91.5424,-392.851,0,0
369768.875,91.8178,-392.833,0,0
370029.2,92.0893,-392.811,0,0
370289.525,92.1907,-392.799,0,0
370549.85,92.2163,-392.835,0,0
370810.175,92.0881,-392.79,0,0
371070.5,91.9092,-392.642,0,0
371330.825,91.6328,-392.442,0,0
371591.15,91.3199,-392.136,0,0
371851.475,91.0027,-391.683,0,0
372111.8,90.7368,-391.121,0,0
372372.125,90.502,-390.508,0,0
372632.45,90.296,-389.773,0,0
372892.775,90.1796,-389.032,0,0
373153.1,90.1637,-388.292,0,0
373413.425,90.188,-387.415,0,0
373673.75,90.2486,-386.675,0,0
373934.075,90.3551,-385.871,0,0
374194.4,90.5187,-385.086,0,0
374454.725,90.7065,-384.315,0,0
374715.05,90.9337,-383.551,0,0
374975.375,91.1533,-382.778,0,0
375235.7,91.426,-382.019,0,0
375496.025,91.7436,-381.309,0,0
375756.35,92.1051,-380.599,0,0
376016.675,92.4433,-379.924,0,0
376277.0,92.7404,-379.351,0,0
376537.325,93.0637,-378.753,0,0
376797.65,93.3203,-378.122,0,0
377057.975,93.5639,-377.465,0,0
377318.3,93.8566,-376.786,0,0
377578.625,94.117,-376.076,0,0
377838.95,94.4217,-375.344,0,0
378099.275,94.7989,-374.581,0,0
378359.6,95.1974,-373.81,0,0
378619.925,95.6315,-373.072,0,0
378880,96.1371,-372.372,0,0
379141,96.6562,-371.684,0,0
379401,97.2165,-371.039,0,0
379661,97.7052,-370.394,0,0
379922,98.2992,-369.809,0,0
380182,98.8366,-369.272,0,0
380442,99.3616,-368.74,0,0
380703,99.9138,-368.249,0,0
380963,100.417,-367.694,0,0
381223,100.939,-367.221,0,0
381483,101.385,-366.693,0,0
381744,101.875,-366.158,0,0
382004,102.379,-365.582,0,0
382264,102.915,-365.01,0,0
382525,103.466,-364.426,0,0
382785,104.122,-363.856,0,0
383045,104.752,-363.338,0,0
383306,105.372,-362.865,0,0
383566,106.007,-362.393,0,0
383826,106.696,-361.955,0,0
384087,107.35,-361.53,0,0
384347,107.967,-361.155,0,0
384607,108.671,-360.769,0,0
384868,109.293,-360.467,0,0
385128,109.876,-360.138,0,0
385388,110.447,-359.797,0,0
385649,111.041,-359.48,0,0
385909,111.554,-359.099,0,0
386169,112.136,-358.731,0,0
386430,112.739,-358.358,0,0
386690,113.318,-357.947,0,0
386950,113.937,-357.621,0,0
387211,114.521,-357.287,0,0
387471,115.087,-356.904,0,0
387731,115.639,-356.535,0,0
387992,116.211,-356.119,0,0
388252,116.82,-355.644,0,0
388512,117.484,-355.1,0,0
388773,118.167,-354.588,0,0
389033,119.011,-354.077,0,0
389293,119.915,-353.6,0,0
389554,120.878,-353.173,0,0
389814,121.866,-352.859,0,0
390074,122.849,-352.62,0,0
390335,123.828,-352.473,0,0
390595,124.781,-352.359,0,0
390855,125.678,-352.296,0,0
391116,126.519,-352.219,0,0
391376,127.381,-352.177,0,0
391636,128.204,-352.099,0,0
391896,129.017,-352.015,0,0
392157,129.82,-351.92,0,0
392417,130.685,-351.85,0,0
392677,131.521,-351.772,0,0
392938,132.425,-351.731,0,0
393198,133.24,-351.684,0,0
393458,134.114,-351.628,0,0
393719,134.963,-351.564,0,0
393979,135.856,-351.488,0,0
394239,136.768,-351.411,0,0
394500,137.716,-351.331,0,0
394760.05,138.74,-351.257,0,0
395020.375,139.811,-351.215,0,0
395280.7,140.958,-351.168,0,0
395541.025,142.164,-351.16,0,0
395801.35,143.399,-351.238,0,0
396061.675,144.771,-351.366,0,0
396322.0,146.148,-351.557,0,0
396582.325,147.621,-351.873,0,0
396842.65,149.113,-352.32,0,0
397102.975,150.629,-352.894,0,0
397363.3,152.152,-353.598,0,0
397623.625,153.639,-354.472,0,0
397883.95,155.107,-355.46,0,0
398144.275,156.519,-356.559,0,0
398404.6,157.86,-357.835,0,0
398664.925,159.117,-359.184,0,0
398925.25,160.289,-360.666,0,0
399185.575,161.39,-362.279,0,0
399445.9,162.341,-364.047,0,0
399706.225,163.117,-365.886,0,0
399966.55,163.671,-367.824,0,0
400006.6,163.781,-368.133,0,0