File: Accelerated corrosion test data/2025-10-10_18-00-03/sample_4.csv
Frequency (Hz),Impedance (ohms),Phase (Radians),Temperature (C),Humidity (%)
10000.0,263.353,-11853.3,0,0
10260.325,259.932,-11555.9,0,0
10520.65,250.313,-11272.9,0,0
10780.975,244.76,-11002.1,0,0
11041.3,239.735,-10744.3,0,0
11301.625,234.42,-10501.6,0,0
11561.95,228.43,-10266,0,0
11822.275,224.329,-10041.4,0,0
12082.6,219.878,-9826.97,0,0
12342.925,215.296,-9620.65,0,0
12603.25,212.804,-9421.59,0,0
12863.575,208.173,-9234.87,0,0
13123.9,206.437,-9056.29,0,0
13384.225,199.369,-8878.29,0,0
13644.55,195.629,-8707.86,0,0
13904.875,192.866,-8543.18,0,0
14165.2,193.487,-8380.74,0,0
14425.525,198.344,-8234.03,0,0
14685.8,202.782,-8117.93,0,0
14946.175,182.616,-7962.98,0,0
15206.5,180.879,-7819.06,0,0
15466.825,186.518,-7677.92,0,0
15727.15,190.388,-7575.56,0,0
15987.5,188.208,-7461.64,0,0
16247.8,170.727,-7332.07,0,0
16508.125,184.97,-7204.25,0,0
16768.45,177.978,-7104.27,0,0
17028.775,172.278,-7017.02,0,0
17289.1,160.609,-6903.76,0,0
17549.425,158.512,-6799.74,0,0
17809.75,156.291,-6699.02,0,0
18070.075,152.477,-6600.26,0,0
18330.4,153.678,-6503.96,0,0
18590.725,152.755,-6415.98,0,0
18851.05,149.953,-6331.95,0,0
19111.375,145.34,-6242.96,0,0
19371.7,142.571,-6157.59,0,0
19632.025,141.851,-6073.58,0,0
19892.35,143.79,-5992.91,0,0
20152.675,143.423,-5916.13,0,0
20413.0,140.547,-5843.26,0,0
20673.3,140.386,-5768.33,0,0
20933.65,137.005,-5695.18,0,0
21193.975,139.599,-5620.64,0,0
21454.3,151.923,-5554.14,0,0
21714.625,145.35,-5498.97,0,0
21974.9,147.715,-5426.72,0,0
22235.275,148.639,-5381.48,0,0
22495.6,135.639,-5326.01,0,0
22755.925,128.28,-5260.58,0,0
23016.25,125.251,-5198.96,0,0
23276.6,122.597,-5139.15,0,0
23536.9,120.923,-5081.68,0,0
23797.225,118.879,-5024.66,0,0
24057.55,117.177,-4969.06,0,0
24317.875,116.015,-4914.34,0,0
24578.2,114.549,-4861.58,0,0
24838.525,113.981,-4809.52,0,0
25098.85,114.492,-4758.8,0,0
25359.175,112.905,-4711.73,0,0
25619.5,112.141,-4661.74,0,0
25879.8,110.951,-4617.65,0,0
26140.1,108.265,-4570.01,0,0
26400.5,107.818,-4523.06,0,0
26660.8,106.158,-4477.2,0,0
26921.1,106.482,-4433.31,0,0
27181.4,105.331,-4388.98,0,0
27441.8,105.498,-4343.66,0,0
27702.1,108.619,-4299.91,0,0
27962.4,115.015,-4257.79,0,0
28222.7,120.952,-4229.55,0,0
28483.1,113.821,-4195.15,0,0
28743.4,109.254,-4155.39,0,0
29003.7,112.569,-4112.72,0,0
29264,116.685,-4082.67,0,0
29524.4,111.804,-4051.04,0,0
29784.7,108.745,-4020.43,0,0
30045,106.963,-3982.55,0,0
30305.3,101.824,-3949.78,0,0
30565.7,99.438,-3914.71,0,0
30826,98.6627,-3879.27,0,0
31086.3,98.016,-3845.92,0,0
31346.6,98.5919,-3812.61,0,0
31607,97.1635,-3781.84,0,0
31867.3,97.3064,-3749.53,0,0
32127.6,99.3586,-3719.61,0,0
32387.9,98.0678,-3693.17,0,0
32648.3,96.7612,-3663.22,0,0
32908.6,95.0006,-3636.3,0,0
33168.9,92.4752,-3607.62,0,0
33429.2,89.8483,-3579.09,0,0
33689.6,88.4981,-3549.86,0,0
33949.9,87.3936,-3521.58,0,0
34210.2,87.3809,-3493.74,0,0
34470.5,86.2966,-3467.85,0,0
34730.9,84.9343,-3440.71,0,0
34991.2,84.6053,-3414.08,0,0
35251.5,84.0004,-3388.51,0,0
35511.8,83.1439,-3363.23,0,0
35772.2,82.5842,-3338.32,0,0
36032.5,81.5261,-3313.61,0,0
36292.8,81.0541,-3288.88,0,0
36553.1,80.5158,-3264.37,0,0
36813.5,80.7779,-3240.39,0,0
37073.8,80.5199,-3217.33,0,0
37334.1,79.768,-3195.12,0,0
37594.4,78.8613,-3172,0,0
37854.8,79.1058,-3149.65,0,0
38115.1,78.1858,-3127.81,0,0
38375.4,77.1442,-3105.32,0,0
38635.7,76.9648,-3083.29,0,0
38896.1,77.4089,-3061.87,0,0
39156.4,76.9027,-3041.23,0,0
39416.7,76.3201,-3020,0,0
39677,76.2312,-2998.83,0,0
39937.4,76.8525,-2977.49,0,0
40197.7,78.4643,-2957.26,0,0
40458,80.0186,-2938.64,0,0
40718.3,79.4147,-2921.07,0,0
40978.7,79.1276,-2901.71,0,0
41239,79.6441,-2883.68,0,0
41499.3,81.8484,-2866.31,0,0
41759.6,79.1307,-2850.48,0,0
42020,77.8582,-2832.17,0,0
42280.275,77.0518,-2812.85,0,0
42540.6,78.6954,-2795.51,0,0
42800.925,77.9625,-2780.99,0,0
43061.25,75.5324,-2763.2,0,0
43321.575,75.8991,-2746.25,0,0
43581.9,74.5433,-2729.94,0,0
43842.225,73.4502,-2712.15,0,0
44102.55,73.8176,-2696.04,0,0
44362.875,72.289,-2679.62,0,0
44623.2,72.321,-2662.78,0,0
44883.525,72.0572,-2647.25,0,0
45143.85,71.195,-2631.36,0,0
45404.175,70.4692,-2614.93,0,0
45664.5,71.1132,-2598.32,0,0
45924.825,72.6331,-2583.98,0,0
46185.15,71.6379,-2570.51,0,0
46445.475,70.2286,-2554.41,0,0
46705.8,71.3079,-2539.28,0,0
46966.125,71.307,-2525.37,0,0
47226.45,71.501,-2511.06,0,0
47486.775,71.4439,-2498.03,0,0
47747.1,69.9086,-2484.55,0,0
48007.425,69.3872,-2470.29,0,0
48267.75,68.491,-2457.18,0,0
48528.075,67.6962,-2443.15,0,0
48788.4,66.9685,-2429.26,0,0
49048.725,66.2152,-2415.56,0,0
49309.05,66.1652,-2401.4,0,0
49569.375,65.5715,-2388.57,0,0
49829.7,64.9904,-2374.83,0,0
50090.025,64.7474,-2361.58,0,0
50350.35,64.4819,-2348.15,0,0
50610.675,64.2581,-2335.22,0,0
50871.0,63.9978,-2322.33,0,0
51131.325,63.8509,-2309.23,0,0
51391.65,63.6754,-2296.53,0,0
51651.975,63.734,-2283.61,0,0
51912.3,63.8366,-2271.19,0,0
52172.625,64.1041,-2258.31,0,0
52432.95,64.2392,-2246.29,0,0
52693.275,64.3654,-2233.35,0,0
52953.6,65.4891,-2220.87,0,0
53213.925,66.436,-2209.04,0,0
53474.25,67.6919,-2197.14,0,0
53734.575,69.0252,-2185.45,0,0
53994.9,71.4686,-2174.24,0,0
54255.225,73.7548,-2164.54,0,0
54515.55,75.7507,-2155.97,0,0
54775.875,75.873,-2148.35,0,0
55036.2,74.4747,-2139.98,0,0
55296.525,73.453,-2130.25,0,0
55556.85,71.9933,-2121.47,0,0
55817.175,70.0705,-2111.25,0,0
56077.5,68.7215,-2100.99,0,0
56337.825,67.2019,-2090.22,0,0
56598.15,66.0301,-2079.05,0,0
56858.475,65.728,-2067.86,0,0
57118.8,65.5801,-2056.9,0,0
57379.125,66.0687,-2046.06,0,0
57639.45,66.3368,-2035.95,0,0
57899.775,66.5106,-2025.7,0,0
58160.1,66.714,-2015.41,0,0
58420.4,67.5224,-2005.3,0,0
58680.7,68.2074,-1996.38,0,0
58941.1,67.4785,-1985.99,0,0
59201.4,68.8076,-1975.19,0,0
59461.7,70.8896,-1965.16,0,0
59722,73.2672,-1956.45,0,0
59982.4,75.7618,-1948.69,0,0
60242.7,76.7427,-1941.76,0,0
60503,77.692,-1934.29,0,0
60763.3,79.7206,-1927.2,0,0
61023.7,80.4462,-1923.18,0,0
61284,78.4757,-1918.24,0,0
61544.3,74.718,-1912.2,0,0
61804.6,71.4906,-1902.88,0,0
62065,70.0237,-1894.08,0,0
62325.3,68.5319,-1885.87,0,0
62585.6,66.1385,-1877.13,0,0
62845.9,65.1928,-1866.7,0,0
63106.3,64.8342,-1857.99,0,0
63366.6,64.264,-1848.68,0,0
63626.9,64.3641,-1839.44,0,0
63887.2,64.6436,-1831.82,0,0
64147.6,63.551,-1823,0,0
64407.9,63.895,-1813.74,0,0
64668.2,64.5818,-1805.35,0,0
64928.5,65.123,-1797.3,0,0
65188.9,65.2953,-1789.46,0,0
65449.2,65.5476,-1781.64,0,0
65709.5,65.2465,-1773.51,0,0
65969.8,66.3894,-1764.83,0,0
66230.2,67.569,-1757.75,0,0
66490.5,68.0162,-1750.52,0,0
66750.8,68.8114,-1743.35,0,0
67011.1,69.4564,-1735.99,0,0
67271.5,70.3789,-1729.08,0,0
67531.8,71.6128,-1722.55,0,0
67792.1,72.4515,-1716.41,0,0
68052.4,73.1403,-1710.81,0,0
68312.8,73.3842,-1705.33,0,0
68573.1,73.6575,-1700.09,0,0
68833.4,73.031,-1695.47,0,0
69093.7,71.149,-1690.3,0,0
69354.1,69.2108,-1684.24,0,0
69614.4,67.1738,-1677.39,0,0
69874.7,66.2504,-1669.93,0,0
70135,65.51,-1663.17,0,0
70395.4,64.1238,-1656.08,0,0
70655.7,63.9236,-1647.93,0,0
70916,64.9528,-1641.55,0,0
71176.3,64.5794,-1635.72,0,0
71436.7,64.1704,-1629.73,0,0
71697,63.5711,-1623.93,0,0
71957.3,62.3277,-1618.14,0,0
72217.6,60.6231,-1611.64,0,0
72478,59.2372,-1604.47,0,0
72738.3,58.4048,-1597.27,0,0
72998.6,57.6539,-1589.94,0,0
73258.9,57.2136,-1582.38,0,0
73519.3,57.4761,-1574.95,0,0
73779.6,57.8148,-1568.05,0,0
74039.9,58.2033,-1561.26,0,0
74300.225,58.5654,-1554.98,0,0
74560.55,58.7485,-1548.23,0,0
74820.875,59.1354,-1541.81,0,0
75081.2,59.7644,-1535.37,0,0
75341.525,60.65,-1529.48,0,0
75601.85,61.0007,-1523.82,0,0
75862.175,61.284,-1517.99,0,0
76122.5,61.7148,-1512.11,0,0
76382.825,62.202,-1506.55,0,0
76643.15,62.3708,-1501.19,0,0
76903.475,62.1259,-1495.33,0,0
77163.8,62.922,-1489.05,0,0
77424.125,64.1331,-1483.78,0,0
77684.45,64.9462,-1479.08,0,0
77944.775,65.4331,-1474.68,0,0
78205.1,65.3741,-1470.29,0,0
78465.425,65.0947,-1465.78,0,0
78725.75,64.486,-1461.21,0,0
78986.075,63.7389,-1456.47,0,0
79246.4,62.8512,-1451.45,0,0
79506.725,62.0294,-1446.07,0,0
79767.05,61.4224,-1440.56,0,0
80027.375,61.0695,-1435.1,0,0
80287.7,60.705,-1429.62,0,0
80548.025,60.4986,-1424.25,0,0
80808.35,60.3615,-1418.87,0,0
81068.675,60.3663,-1413.68,0,0
81329.0,60.2944,-1408.61,0,0
81589.325,60.1375,-1403.66,0,0
81849.65,59.9013,-1398.67,0,0
82109.975,59.5949,-1393.69,0,0
82370.3,59.3768,-1388.62,0,0
82630.625,59.0634,-1383.55,0,0
82890.95,58.9418,-1378.56,0,0
83151.275,58.6219,-1373.68,0,0
83411.6,58.3602,-1368.63,0,0
83671.925,58.0781,-1363.63,0,0
83932.25,57.8959,-1358.67,0,0
84192.575,57.7223,-1353.7,0,0
84452.9,57.5649,-1348.87,0,0
84713.225,57.3825,-1343.91,0,0
84973.55,57.2573,-1339.04,0,0
85233.875,57.1033,-1334.2,0,0
85494.2,56.9582,-1329.42,0,0
85754.525,56.8503,-1324.75,0,0
86014.85,56.5754,-1319.93,0,0
86275.175,56.4561,-1315.15,0,0
86535.5,56.4702,-1310.47,0,0
86795.825,56.3283,-1305.98,0,0
87056.15,56.1018,-1301.4,0,0
87316.475,55.9216,-1296.8,0,0
87576.8,55.8106,-1292.24,0,0
87837.125,55.4771,-1287.82,0,0
88097.45,54.9209,-1283.41,0,0
88357.775,54.3174,-1278.71,0,0
88618.1,53.8655,-1273.76,0,0
88878.425,53.7374,-1268.81,0,0
89138.75,53.5988,-1264.05,0,0
89399.075,53.462,-1259.31,0,0
89659.4,53.48,-1254.4,0,0
89919.725,53.5906,-1249.8,0,0
90180,53.4067,-1245.32,0,0
90440.4,53.2655,-1240.69,0,0
90700.7,53.2881,-1236.12,0,0
90961,53.2033,-1231.59,0,0
91221.3,53.1402,-1226.86,0,0
91481.7,53.2803,-1222.23,0,0
91742,53.3571,-1217.63,0,0
92002.3,53.604,-1212.97,0,0
92262.6,53.931,-1208.56,0,0
92523,54.2784,-1204.2,0,0
92783.3,54.5433,-1200.21,0,0
93043.6,54.8173,-1196.22,0,0
93303.9,54.8234,-1192.29,0,0
93564.3,54.6658,-1188.27,0,0
93824.6,54.5361,-1184.28,0,0
94084.9,54.2964,-1180.25,0,0
94345.2,53.9487,-1176.18,0,0
94605.6,53.4867,-1171.87,0,0
94865.9,53.1738,-1167.42,0,0
95126.2,53.022,-1162.84,0,0
95386.5,52.8171,-1158.37,0,0
95646.9,52.8698,-1153.82,0,0
95907.2,52.9364,-1149.34,0,0
96167.5,53.1164,-1144.94,0,0
96427.8,53.2886,-1140.57,0,0
96688.2,53.4803,-1136.21,0,0
96948.5,53.6974,-1131.95,0,0
97208.8,53.872,-1127.67,0,0
97469.1,54.0673,-1123.43,0,0
97729.5,54.2348,-1119.15,0,0
97989.8,54.442,-1114.8,0,0
98250.1,54.801,-1110.45,0,0
98510.4,55.2029,-1106.23,0,0
98770.8,55.5765,-1102.01,0,0
99031.1,56.0267,-1097.68,0,0
99291.4,56.6894,-1093.47,0,0
99551.7,57.3585,-1089.48,0,0
99812.1,57.8234,-1085.57,0,0
100072,58.3243,-1081.4,0,0
100333,59.2671,-1077.2,0,0
100593,60.469,-1073.39,0,0
100853,61.5784,-1070.22,0,0
101114,62.1374,-1067.13,0,0
101374,62.8627,-1063.95,0,0
101634,63.4441,-1061.28,0,0
101895,63.387,-1058.88,0,0
102155,62.5633,-1056.17,0,0
102415,61.3972,-1052.87,0,0
102676,60.3041,-1048.97,0,0
102936,59.4208,-1044.62,0,0
103196,58.7447,-1040.01,0,0
103457,58.3869,-1035.21,0,0
103717,58.3357,-1030.17,0,0
103977,58.756,-1025.21,0,0
104238,59.4296,-1020.44,0,0
104498,60.1422,-1015.74,0,0
104758,61.0907,-1011.11,0,0
105019,62.2178,-1006.6,0,0
105279,63.4859,-1002.35,0,0
105539,64.7392,-998.125,0,0
105800,66.0263,-994.068,0,0
106060,67.3925,-990.111,0,0
106320.175,68.8273,-986.246,0,0
106580.5,70.2755,-982.532,0,0
106840.825,71.7458,-978.918,0,0
107101.15,73.1235,-975.502,0,0
107361.475,74.3745,-972.031,0,0
107621.8,75.6706,-968.505,0,0
107882.125,77.1448,-964.924,0,0
108142.45,78.7318,-961.442,0,0
108402.775,80.4196,-958.135,0,0
108663.1,82.2237,-954.939,0,0
108923.425,84.0198,-952.017,0,0
109183.75,85.8205,-949.179,0,0
109444.075,87.6282,-946.545,0,0
109704.4,89.2577,-944.186,0,0
109964.725,90.742,-941.889,0,0
110225.05,92.12,-939.509,0,0
110485.375,93.5482,-937.285,0,0
110745.7,94.7886,-935.176,0,0
111006.025,96.0028,-933.002,0,0
111266.35,97.1767,-930.844,0,0
111526.675,98.1862,-928.929,0,0
111787.0,99.1792,-926.725,0,0
112047.325,100.375,-924.804,0,0
112307.65,101.357,-922.742,0,0
112567.975,102.328,-921.014,0,0
112828.3,103.144,-919.199,0,0
113088.625,103.972,-917.376,0,0
113348.95,104.737,-915.665,0,0
113609.275,105.328,-913.947,0,0
113869.6,105.921,-912.265,0,0
114129.925,106.42,-910.604,0,0
114390.25,106.827,-908.881,0,0
114650.575,107.247,-907.201,0,0
114910.9,107.603,-905.502,0,0
115171.225,107.962,-903.946,0,0
115431.55,108.084,-902.431,0,0
115691.875,108.074,-900.844,0,0
115952.2,108.026,-899.172,0,0
116212.525,107.946,-897.509,0,0
116472.85,107.775,-895.831,0,0
116733.175,107.411,-894.091,0,0
116993.5,107.011,-892.196,0,0
117253.825,106.513,-890.201,0,0
117514.15,105.994,-888.062,0,0
117774.475,105.45,-885.756,0,0
118034.8,104.983,-883.178,0,0
118295.125,104.786,-880.473,0,0
118555.45,104.733,-877.833,0,0
118815.775,104.692,-875.02,0,0
119076.1,105.022,-872.05,0,0
119336.425,105.921,-868.994,0,0
119596.75,107.532,-866.511,0,0
119857.075,109.191,-865.045,0,0
120117.4,110.405,-864.224,0,0
120377.725,111.009,-863.933,0,0
120638.05,110.975,-863.748,0,0
120898.375,110.078,-863.506,0,0
121158.7,108.641,-862.701,0,0
121419.025,107.023,-861.238,0,0
121679.35,105.542,-859.371,0,0
121939.675,104.202,-857.3,0,0
122200.0,102.968,-854.988,0,0
122460,101.819,-852.558,0,0
122721,100.895,-849.951,0,0
122981,100.197,-847.406,0,0
123241,99.4901,-844.966,0,0
123502,98.7728,-842.458,0,0
123762,98.1231,-839.924,0,0
124022,97.5058,-837.434,0,0
124283,96.9191,-834.956,0,0
124543,96.3205,-832.392,0,0
124803,95.7742,-829.828,0,0
125064,95.3603,-827.232,0,0
125324,94.9822,-824.781,0,0
125584,94.5585,-822.406,0,0
125845,94.1154,-820.039,0,0
126105,93.7017,-817.721,0,0
126365,93.2125,-815.575,0,0
126626,92.4986,-813.474,0,0
126886,91.6301,-811.19,0,0
127146,90.7699,-808.72,0,0
127406,89.9002,-806.22,0,0
127667,89.1916,-803.825,0,0
127927,88.3677,-801.539,0,0
128187,87.3643,-799.211,0,0
128448,86.0826,-796.765,0,0
128708,84.8227,-794.034,0,0
128968,83.6211,-791.245,0,0
129229,82.302,-788.284,0,0
129489,81.0581,-785.177,0,0
129749,79.8803,-781.94,0,0
130010,78.7009,-778.579,0,0
130270,77.677,-775.012,0,0
130530,76.8585,-771.468,0,0
130791,76.0511,-767.879,0,0
131051,75.275,-764.279,0,0
131311,74.5869,-760.532,0,0
131572,74.0586,-756.782,0,0
131832,73.6648,-753.071,0,0
132092,73.2265,-749.425,0,0
132353,72.8311,-745.652,0,0
132613,72.5455,-741.843,0,0
132873,72.362,-738.032,0,0
133134,72.2852,-734.242,0,0
133394,72.1961,-730.532,0,0
133654,72.1551,-726.775,0,0
133915,72.166,-722.957,0,0
134175,72.2897,-719.17,0,0
134435,72.471,-715.431,0,0
134696,72.67,-711.708,0,0
134956,72.8636,-707.974,0,0
135216,73.1969,-704.195,0,0
135477,73.6219,-700.464,0,0
135737,74.0788,-696.757,0,0
135997,74.5932,-693.159,0,0
136258,75.1093,-689.583,0,0
136518,75.6239,-685.997,0,0
136778,76.2383,-682.474,0,0
137039,76.8625,-679.04,0,0
137299,77.425,-675.726,0,0
137559,77.8598,-672.398,0,0
137819,78.2446,-669.034,0,0
138080,78.5666,-665.579,0,0
138340.125,78.8896,-661.994,0,0
138600.45,79.311,-658.322,0,0
138860.775,79.7641,-654.634,0,0
139121.1,80.2355,-650.898,0,0
139381.425,80.8368,-647.079,0,0
139641.75,81.5549,-643.291,0,0
139902.075,82.2932,-639.511,0,0
140162.4,83.0708,-635.729,0,0
140422.725,83.9364,-631.922,0,0
140683.05,84.8597,-628.109,0,0
140943.375,85.8793,-624.303,0,0
141203.7,86.9256,-620.527,0,0
141464.025,88.0879,-616.793,0,0
141724.35,89.2399,-613.138,0,0
141984.675,90.3845,-609.495,0,0
142245.0,91.5387,-605.795,0,0
142505.325,92.7707,-602.12,0,0
142765.65,94.0213,-598.481,0,0
143025.975,95.2501,-594.826,0,0
143286.3,96.5858,-591.091,0,0
143546.625,97.9801,-587.429,0,0
143806.95,99.3637,-583.791,0,0
144067.275,100.75,-580.119,0,0
144327.6,102.215,-576.413,0,0
144587.925,103.752,-572.709,0,0
144848.25,105.308,-568.99,0,0
145108.575,106.951,-565.271,0,0
145368.9,108.606,-561.524,0,0
145629.225,110.369,-557.8,0,0
145889.55,112.112,-554.052,0,0
146149.875,114.046,-550.301,0,0
146410.2,116.047,-546.553,0,0
146670.525,118.137,-542.879,0,0
146930.85,120.261,-539.261,0,0
147191.175,122.414,-535.663,0,0
147451.5,124.609,-532.081,0,0
147711.825,126.849,-528.51,0,0
147972.15,129.101,-524.948,0,0
148232.475,131.394,-521.306,0,0
148492.8,133.857,-517.64,0,0
148753.125,136.405,-514.027,0,0
149013.45,139.062,-510.432,0,0
149273.775,141.774,-506.903,0,0
149534.1,144.513,-503.356,0,0
149794.425,147.367,-499.694,0,0
150054.75,150.464,-496.125,0,0
150315.075,153.655,-492.689,0,0
150575.4,156.891,-489.256,0,0
150835.725,160.259,-485.83,0,0
151096.05,163.795,-482.363,0,0
151356.375,167.664,-479.042,0,0
151616.7,171.69,-475.996,0,0
151877.025,175.726,-473.173,0,0
152137.35,179.732,-470.365,0,0
152397.675,184.047,-467.535,0,0
152658.0,188.718,-465.102,0,0
152918.325,193.35,-463.159,0,0
153178.65,197.824,-461.41,0,0
153438.975,202.334,-459.825,0,0
153699.3,206.894,-458.569,0,0
153959.625,211.28,-457.694,0,0
154219.95,215.365,-457.015,0,0
154480,219.308,-456.506,0,0
154741,222.831,-456.189,0,0
155001,225.825,-455.744,0,0
155261,228.918,-454.657,0,0
155522,232.371,-453.548,0,0
155782,236.021,-452.818,0,0
156042,239.546,-452.287,0,0
156303,242.786,-451.917,0,0
156563,245.903,-451.66,0,0
156823,248.632,-451.394,0,0
157084,251.157,-450.71,0,0
157344,253.86,-449.789,0,0
157604,256.563,-448.791,0,0
157864,259.372,-447.56,0,0
158125,262.533,-446.096,0,0
158385,266.221,-444.811,0,0
158645,270.028,-443.93,0,0
158906,273.78,-443.05,0,0
159166,278.095,-442.121,0,0
159426,282.742,-441.982,0,0
159687,287.166,-442.319,0,0
159947,291.593,-443.101,0,0
160207,295.802,-444.476,0,0
160468,299.446,-446.261,0,0
160728,302.627,-448.364,0,0
160988,305.128,-450.678,0,0
161249,306.804,-452.742,0,0
161509,308.011,-454.362,0,0
161769,308.969,-455.415,0,0
162030,309.995,-456.103,0,0
162290,311.11,-456.535,0,0
162550,312.208,-456.841,0,0
162811,313.148,-457.071,0,0
163071,314.004,-456.822,0,0
163331,315.095,-456.23,0,0
163592,316.25,-455.588,0,0
163852,317.678,-454.604,0,0
164112,319.277,-453.344,0,0
164373,321.271,-452.053,0,0
164633,323.669,-450.805,0,0
164893,326.273,-449.755,0,0
165154,328.878,-448.777,0,0
165414,331.621,-447.752,0,0
165674,334.525,-446.625,0,0
165935,337.773,-445.281,0,0
166195,341.536,-444.043,0,0
166455,345.77,-443.013,0,0
166716,350.557,-442.18,0,0
166976,355.894,-441.876,0,0
167236,361.679,-442.272,0,0
167497,367.545,-443.475,0,0
167757,373.478,-445.407,0,0
168017,379.352,-448.111,0,0
168277,384.916,-451.854,0,0
168538,389.755,-456.219,0,0
168798,394.075,-460.804,0,0
169058,398.189,-465.706,0,0
169319,401.885,-471.296,0,0
169579,404.727,-477.325,0,0
169839,407.011,-483.207,0,0
170100,409.385,-489.45,0,0
170360.075,411.154,-496.738,0,0
170620.4,411.591,-504.672,0,0
170880.725,410.64,-512.629,0,0
171141.05,408.282,-520.249,0,0
171401.375,404.872,-527.09,0,0
171661.7,400.866,-533.174,0,0
171922.025,396.345,-538.733,0,0
172182.35,391.16,-543.716,0,0
172442.675,385.435,-547.877,0,0
172703.0,379.396,-551.28,0,0
172963.325,372.988,-554.019,0,0
173223.65,366.253,-555.856,0,0
173483.975,359.537,-556.703,0,0
173744.3,352.802,-556.742,0,0
174004.625,346.37,-555.833,0,0
174264.95,340.335,-554.416,0,0
174525.275,334.498,-552.448,0,0
174785.6,329.084,-549.848,0,0
175045.925,324.05,-546.928,0,0
175306.25,319.325,-543.663,0,0
175566.575,314.84,-539.934,0,0
175826.9,310.904,-535.667,0,0
176087.225,307.527,-531.199,0,0
176347.55,304.65,-526.606,0,0
176607.875,302.241,-521.898,0,0
176868.2,300.246,-517.14,0,0
177128.525,298.679,-512.39,0,0
177388.85,297.489,-507.655,0,0
177649.175,296.673,-503.015,0,0
177909.5,296.227,-498.474,0,0
178169.825,295.989,-494.239,0,0
178430.15,295.811,-490.151,0,0
178690.475,295.673,-486.068,0,0
178950.8,295.691,-481.939,0,0
179211.125,295.918,-477.832,0,0
179471.45,296.337,-473.767,0,0
179731.775,297.005,-469.809,0,0
179992.1,297.797,-466.067,0,0
180252.425,298.659,-462.509,0,0
180512.75,299.472,-459.063,0,0
180773.075,300.231,-455.633,0,0
181033.4,301.043,-452.243,0,0
181293.725,301.899,-448.845,0,0
181554.05,302.788,-445.551,0,0
181814.375,303.611,-442.293,0,0
182074.7,304.332,-439.053,0,0
182335.025,304.952,-435.706,0,0
182595.35,305.561,-432.217,0,0
182855.675,306.19,-428.576,0,0
183116.0,306.868,-424.79,0,0
183376.325,307.602,-420.883,0,0
183636.65,308.424,-416.799,0,0
183896.975,309.371,-412.55,0,0
184157.3,310.464,-408.177,0,0
184417.625,311.72,-403.679,0,0
184677.95,313.177,-399.082,0,0
184938.275,314.779,-394.43,0,0
185198.6,316.512,-389.68,0,0
185458.925,318.464,-384.822,0,0
185719.25,320.619,-379.888,0,0
185979.575,322.982,-374.889,0,0
186239.9,325.53,-369.841,0,0
186500,328.248,-364.776,0,0
186761,331.246,-359.591,0,0
187021,334.476,-354.43,0,0
187281,337.853,-349.276,0,0
187542,341.524,-344.071,0,0
187802,345.341,-338.764,0,0
188062,349.45,-333.503,0,0
188322,353.844,-328.082,0,0
188583,358.488,-322.703,0,0
188843,363.405,-317.405,0,0
189103,368.741,-312.026,0,0
189364,374.275,-306.751,0,0
189624,380.139,-301.452,0,0
189884,386.385,-296.198,0,0
190145,393.004,-291.044,0,0
190405,400.077,-286.046,0,0
190665,407.486,-281.272,0,0
190926,415.217,-276.736,0,0
191186,423.22,-272.399,0,0
191446,431.541,-268.203,0,0
191707,440.223,-264.235,0,0
191967,449.351,-260.574,0,0
192227,458.691,-257.275,0,0
192488,468.273,-254.274,0,0
192748,478.234,-251.588,0,0
193008,488.375,-249.382,0,0
193269,498.763,-247.46,0,0
193529,509.265,-246.043,0,0
193789,519.927,-245.024,0,0
194050,530.757,-244.244,0,0
194310,541.67,-243.92,0,0
194570,552.667,-243.965,0,0
194831,563.761,-244.335,0,0
195091,574.963,-245.059,0,0
195351,586.195,-246.113,0,0
195612,597.513,-247.368,0,0
195872,609.043,-248.881,0,0
196132,620.86,-250.704,0,0
196393,632.907,-252.97,0,0
196653,645.15,-255.68,0,0
196913,657.63,-258.739,0,0
197174,670.446,-262.242,0,0
197434,683.655,-266.443,0,0
197694,697.087,-271.459,0,0
197955,710.657,-277.302,0,0
198215,724.221,-283.948,0,0
198475,737.829,-291.329,0,0
198735,751.516,-299.702,0,0
198996,765.122,-309.171,0,0
199256,778.539,-319.741,0,0
199516,791.348,-331.555,0,0
199777,803.416,-344.392,0,0
200037,814.725,-358.063,0,0
200297,825.209,-372.448,0,0
200558,834.812,-387.647,0,0
200818,843.45,-403.473,0,0
201078,850.94,-420.053,0,0
201339,857.175,-436.84,0,0
201599,862.229,-453.808,0,0
201859,866.15,-470.904,0,0
202120,868.897,-487.787,0,0
202380.025,870.896,-504.417,0,0
202640.35,871.855,-520.867,0,0
202900.675,871.606,-536.939,0,0
203161.0,870.833,-552.087,0,0
203421.325,870.071,-566.913,0,0
203681.65,869.058,-581.846,0,0
203941.975,867.371,-596.916,0,0
204202.3,864.654,-611.776,0,0
204462.625,861.301,-626.1,0,0
204722.95,857.389,-639.933,0,0
204983.275,853.284,-653.229,0,0
205243.6,848.721,-666.623,0,0
205503.925,843.355,-679.451,0,0
205764.25,837.654,-691.384,0,0
206024.575,832.142,-702.805,0,0
206284.9,826.729,-714.07,0,0
206545.225,821.326,-725.285,0,0
206805.55,815.715,-736.661,0,0
207065.875,810.028,-748.172,0,0
207326.2,803.684,-760.242,0,0
207586.525,796.247,-772.487,0,0
207846.85,787.552,-784.426,0,0
208107.175,777.612,-795.575,0,0
208367.5,766.831,-805.681,0,0
208627.825,755.714,-814.604,0,0
208888.15,744.225,-822.572,0,0
209148.475,732.441,-829.355,0,0
209408.8,720.798,-835.018,0,0
209669.125,709.447,-839.699,0,0
209929.45,698.534,-843.859,0,0
210189.775,687.862,-847.256,0,0
210450.1,677.417,-850.148,0,0
210710.425,667.241,-852.5,0,0
210970.75,657.279,-854.4,0,0
211231.075,647.696,-855.57,0,0
211491.4,638.571,-856.307,0,0
211751.725,629.759,-856.627,0,0
212012.05,621.343,-856.57,0,0
212272.375,613.482,-855.988,0,0
212532.7,606.418,-855.182,0,0
212793.025,599.906,-854.352,0,0
213053.35,593.692,-853.818,0,0
213313.675,587.639,-853.199,0,0
213574.0,581.888,-852.206,0,0
213834.325,576.619,-851.1,0,0
214094.65,571.849,-849.865,0,0
214354.975,567.77,-848.581,0,0
214615.3,564.393,-847.384,0,0
214875.625,561.542,-846.981,0,0
215135.95,559.093,-847.11,0,0
215396.275,556.617,-847.855,0,0
215656.6,554.021,-849.171,0,0
215916.925,551.17,-850.852,0,0
216177.25,548.037,-852.962,0,0
216437.575,544.455,-855.172,0,0
216697.9,540.206,-857.392,0,0
216958.225,535.674,-859.172,0,0
217218.55,531.173,-860.532,0,0
217478.875,526.874,-861.612,0,0
217739.2,522.707,-862.815,0,0
217999.525,518.586,-864.025,0,0
218259.85,514.482,-865.193,0,0
218520,510.396,-866.468,0,0
218780,506.243,-867.66,0,0
219041,502.171,-868.813,0,0
219301,498.229,-869.924,0,0
219561,494.313,-871.305,0,0
219822,490.158,-872.835,0,0
220082,486.011,-874.438,0,0
220342,481.451,-875.946,0,0
220603,476.823,-877.363,0,0
220863,471.921,-878.681,0,0
221123,467.081,-879.7,0,0
221384,462.235,-880.572,0,0
221644,457.497,-881.47,0,0
221904,452.581,-882.342,0,0
222165,447.623,-882.998,0,0
222425,442.652,-883.457,0,0
222685,437.805,-883.773,0,0
222946,433.049,-883.974,0,0
223206,428.361,-884.311,0,0
223466,423.646,-884.596,0,0
223727,418.883,-884.811,0,0
223987,414.183,-885.024,0,0
224247,409.502,-885.056,0,0
224508,404.911,-885.377,0,0
224768,400.2,-885.724,0,0
225028,395.241,-886.082,0,0
225289,390.233,-886.282,0,0
225549,384.982,-886.574,0,0
225809,379.503,-886.612,0,0
226070,373.963,-886.555,0,0
226330,368.176,-886.25,0,0
226590,362.379,-885.568,0,0
226851,356.512,-884.676,0,0
227111,350.771,-883.511,0,0
227371,345.003,-882.126,0,0
227632,339.334,-880.541,0,0
227892,333.665,-878.851,0,0
228152,327.88,-876.906,0,0
228413,322.197,-874.573,0,0
228673,316.63,-871.938,0,0
228933,311.267,-868.993,0,0
229193,306.319,-865.844,0,0
229454,301.411,-862.457,0,0
229714,296.848,-858.972,0,0
229974,292.493,-855.389,0,0
230235,288.572,-851.864,0,0
230495,284.712,-848.27,0,0
230755,281.007,-844.577,0,0
231016,277.614,-840.816,0,0
231276,274.399,-837.167,0,0
231536,271.414,-833.579,0,0
231797,268.528,-829.917,0,0
232057,265.822,-826.327,0,0
232317,263.215,-822.767,0,0
232578,260.76,-819.303,0,0
232838,258.364,-815.802,0,0
233098,256.098,-812.246,0,0
233359,254.02,-808.73,0,0
233619,252.17,-805.266,0,0
233879,250.374,-801.895,0,0
234140,248.724,-798.589,0,0
234400,247.108,-795.365,0,0
234660.3,245.552,-792.239,0,0
234920.625,244.098,-788.954,0,0
235180.95,242.792,-785.861,0,0
235441.275,241.69,-782.846,0,0
235701.6,240.632,-780.005,0,0
235961.925,239.552,-777.315,0,0
236222.25,238.335,-774.667,0,0
236482.575,237.134,-771.947,0,0
236742.9,235.979,-769.229,0,0
237003.225,234.844,-766.43,0,0
237263.55,233.861,-763.623,0,0
237523.875,232.945,-760.792,0,0
237784.2,232.192,-757.925,0,0
238044.525,231.602,-755.123,0,0
238304.85,231.234,-752.428,0,0
238565.175,230.995,-749.864,0,0
238825.5,230.837,-747.57,0,0
239085.825,230.622,-745.428,0,0
239346.15,230.422,-743.386,0,0
239606.475,230.292,-741.433,0,0
239866.8,230.16,-739.577,0,0
240127.125,229.888,-737.95,0,0
240387.45,229.69,-736.348,0,0
240647.775,229.388,-734.874,0,0
240908.1,228.99,-733.355,0,0
241168.425,228.571,-732.018,0,0
241428.75,228.195,-730.676,0,0
241689.075,227.7,-729.457,0,0
241949.4,227.132,-728.18,0,0
242209.725,226.534,-727.013,0,0
242470.05,225.872,-725.94,0,0
242730.375,225.077,-724.806,0,0
242990.7,224.17,-723.716,0,0
243251.025,223.245,-722.585,0,0
243511.35,222.329,-721.41,0,0
243771.675,221.289,-720.297,0,0
244032.0,220.17,-719.211,0,0
244292.325,218.91,-717.999,0,0
244552.65,217.578,-716.697,0,0
244812.975,216.204,-715.268,0,0
245073.3,214.822,-713.719,0,0
245333.625,213.369,-712.049,0,0
245593.95,212.158,-710.238,0,0
245854.275,210.85,-708.41,0,0
246114.6,209.757,-706.408,0,0
246374.925,208.646,-704.502,0,0
246635.25,207.618,-702.483,0,0
246895.575,206.713,-700.386,0,0
247155.9,205.833,-698.219,0,0
247416.225,205.184,-696.073,0,0
247676.55,204.753,-694.002,0,0
247936.875,204.385,-692.158,0,0
248197.2,203.959,-690.474,0,0
248457.525,203.605,-688.735,0,0
248717.85,203.095,-687.175,0,0
248978.175,202.553,-685.599,0,0
249238.5,201.903,-683.973,0,0
249498.825,201.336,-682.372,0,0
249759.15,200.702,-680.77,0,0
250019.475,200.193,-679.182,0,0
250279.8,199.555,-677.583,0,0
250540,198.944,-676.036,0,0
250800,198.307,-674.526,0,0
251061,197.629,-673.028,0,0
251321,196.878,-671.544,0,0
251581,196.085,-670.04,0,0
251842,195.206,-668.573,0,0
252102,194.204,-667.059,0,0
252362,193.079,-665.465,0,0
252623,191.812,-663.756,0,0
252883,190.479,-661.854,0,0
253143,189.118,-659.692,0,0
253404,187.755,-657.335,0,0
253664,186.488,-654.726,0,0
253924,185.413,-651.95,0,0
254185,184.491,-649.039,0,0
254445,183.77,-646.124,0,0
254705,183.083,-643.076,0,0
254966,182.525,-640.01,0,0
255226,182.085,-636.862,0,0
255486,181.725,-633.691,0,0
255747,181.384,-630.304,0,0
256007,181.253,-626.725,0,0
256267,181.403,-622.957,0,0
256528,181.884,-619.182,0,0
256788,182.654,-615.484,0,0
257048,183.556,-611.851,0,0
257309,184.607,-608.201,0,0
257569,185.908,-604.483,0,0
257829,187.503,-600.786,0,0
258090,189.363,-597.22,0,0
258350,191.486,-593.784,0,0
258610,193.731,-590.499,0,0
258871,196.178,-587.226,0,0
259131,198.861,-584.054,0,0
259391,201.883,-581.036,0,0
259651,205.137,-578.249,0,0
259912,208.566,-575.691,0,0
260172,212.133,-573.446,0,0
260432,215.87,-571.39,0,0
260693,219.763,-569.542,0,0
260953,223.802,-567.994,0,0
261213,227.974,-566.868,0,0
261474,232.141,-566.08,0,0
261734,236.219,-565.574,0,0
261994,240.255,-565.339,0,0
262255,244.193,-565.281,0,0
262515,248.103,-565.369,0,0
262775,252.055,-565.539,0,0
263036,256.167,-565.969,0,0
263296,260.33,-566.709,0,0
263556,264.521,-567.81,0,0
263817,268.732,-569.24,0,0
264077,272.767,-571.094,0,0
264337,276.79,-573.273,0,0
264598,280.468,-576.252,0,0
264858,283.673,-579.08,0,0
265118,286.788,-582.12,0,0
265379,289.564,-585.331,0,0
265639,292.195,-588.652,0,0
265899,294.678,-592.179,0,0
266160,296.96,-596.015,0,0
266420,298.88,-600.155,0,0
266680.25,300.326,-604.551,0,0
266940.575,301.285,-608.878,0,0
267200.9,301.911,-613.182,0,0
267461.225,302.217,-617.467,0,0
267721.55,302.212,-621.755,0,0
267981.875,301.792,-625.971,0,0
268242.2,301.219,-629.962,0,0
268502.525,300.513,-633.928,0,0
268762.85,299.624,-638.052,0,0
269023.175,298.188,-642.278,0,0
269283.5,296.251,-646.302,0,0
269543.825,293.823,-650.16,0,0
269804.15,290.879,-653.538,0,0
270064.475,287.739,-656.232,0,0
270324.8,284.589,-658.388,0,0
270585.125,281.595,-660.119,0,0
270845.45,278.745,-661.44,0,0
271105.775,276.199,-662.481,0,0
271366.1,274.065,-663.42,0,0
271626.425,272.279,-664.473,0,0
271886.75,270.531,-665.72,0,0
272147.075,268.76,-667.067,0,0
272407.4,267.012,-668.577,0,0
272667.725,265.153,-670.12,0,0
272928.05,263.167,-671.73,0,0
273188.375,261.077,-673.373,0,0
273448.7,258.894,-674.994,0,0
273709.025,256.595,-676.654,0,0
273969.35,254.09,-678.414,0,0
274229.675,251.352,-680.169,0,0
274490.0,248.395,-681.811,0,0
274750.325,245.15,-683.342,0,0
275010.65,241.673,-684.766,0,0
275270.975,237.934,-685.987,0,0
275531.3,233.875,-686.851,0,0
275791.625,229.685,-687.383,0,0
276051.95,225.39,-687.483,0,0
276312.275,221.129,-687.235,0,0
276572.6,216.847,-686.637,0,0
276832.925,212.647,-685.67,0,0
277093.25,208.464,-684.324,0,0
277353.575,204.436,-682.598,0,0
277613.9,200.69,-680.485,0,0
277874.225,197.212,-678.124,0,0
278134.55,194.018,-675.517,0,0
278394.875,191.097,-672.714,0,0
278655.2,188.506,-669.657,0,0
278915.525,186.322,-666.392,0,0
279175.85,184.657,-663.054,0,0
279436.175,183.517,-659.825,0,0
279696.5,182.749,-656.766,0,0
279956.825,182.353,-654.013,0,0
280217.15,182.192,-651.536,0,0
280477.475,182.092,-649.466,0,0
280737.8,182.001,-647.667,0,0
280998.125,181.825,-646.03,0,0
281258.45,181.642,-644.493,0,0
281518.775,181.437,-643.146,0,0
281779.1,181.103,-641.894,0,0
282039.425,180.627,-640.66,0,0
282299.75,180.045,-639.293,0,0
282560,179.518,-637.748,0,0
282820,179.212,-636.055,0,0
283081,179.209,-634.447,0,0
283341,179.46,-633.028,0,0
283601,179.79,-631.918,0,0
283862,180.086,-631.074,0,0
284122,180.289,-630.486,0,0
284382,180.332,-630.017,0,0
284643,180.217,-629.666,0,0
284903,179.928,-629.337,0,0
285163,179.518,-629.037,0,0
285424,178.961,-628.743,0,0
285684,178.285,-628.435,0,0
285944,177.485,-628.083,0,0
286205,176.531,-627.794,0,0
286465,175.263,-627.38,0,0
286725,173.723,-626.621,0,0
286986,172.229,-625.533,0,0
287246,170.836,-624.182,0,0
287506,169.572,-622.658,0,0
287767,168.383,-620.976,0,0
288027,167.29,-619.135,0,0
288287,166.253,-617.027,0,0
288548,165.445,-614.691,0,0
288808,164.92,-612.085,0,0
289068,164.764,-609.358,0,0
289329,165.005,-606.526,0,0
289589,165.708,-603.758,0,0
289849,166.844,-601.106,0,0
290109,168.329,-598.706,0,0
290370,170.168,-596.551,0,0
290630,172.265,-594.711,0,0
290890,174.566,-593.238,0,0
291151,177.051,-592.143,0,0
291411,179.616,-591.466,0,0
291671,182.227,-591.182,0,0
291932,184.798,-591.305,0,0
292192,187.263,-591.799,0,0
292452,189.63,-592.62,0,0
292713,191.886,-593.842,0,0
292973,193.925,-595.39,0,0
293233,195.718,-597.251,0,0
293494,197.157,-599.43,0,0
293754,198.252,-601.769,0,0
294014,198.988,-604.232,0,0
294275,199.39,-606.808,0,0
294535,199.451,-609.478,0,0
294795,199.093,-612.171,0,0
295056,198.355,-614.866,0,0
295316,197.217,-617.394,0,0
295576,195.739,-619.713,0,0
295837,194.007,-621.851,0,0
296097,192.03,-623.734,0,0
296357,189.831,-625.377,0,0
296618,187.46,-626.717,0,0
296878,185.005,-627.73,0,0
297138,182.544,-628.405,0,0
297399,180.177,-628.83,0,0
297659,177.868,-629.036,0,0
297919,175.653,-629.107,0,0
298180,173.529,-629.028,0,0
298440,171.548,-628.846,0,0
298700.2,169.645,-628.594,0,0
298960.525,167.817,-628.322,0,0
299220.85,166.009,-628.001,0,0
299481.175,164.267,-627.641,0,0
299741.5,162.567,-627.227,0,0
300001.825,160.889,-626.819,0,0
300262.15,159.25,-626.37,0,0
300522.475,157.594,-625.912,0,0
300782.8,155.943,-625.404,0,0
301043.125,154.317,-624.864,0,0
301303.45,152.64,-624.245,0,0
301563.775,150.963,-623.554,0,0
301824.1,149.336,-622.742,0,0
302084.425,147.768,-621.849,0,0
302344.75,146.305,-620.916,0,0
302605.075,144.935,-619.931,0,0
302865.4,143.624,-619,0,0
303125.725,142.359,-618.083,0,0
303386.05,141.066,-617.179,0,0
303646.375,139.775,-616.244,0,0
303906.7,138.504,-615.251,0,0
304167.025,137.248,-614.188,0,0
304427.35,136.05,-613.118,0,0
304687.675,134.878,-611.997,0,0
304948.0,133.789,-610.825,0,0
305208.325,132.735,-609.6,0,0
305468.65,131.753,-608.387,0,0
305728.975,130.84,-607.16,0,0
305989.3,129.99,-605.945,0,0
306249.625,129.165,-604.708,0,0
306509.95,128.426,-603.44,0,0
306770.275,127.772,-602.162,0,0
307030.6,127.214,-600.909,0,0
307290.925,126.756,-599.725,0,0
307551.25,126.339,-598.599,0,0
307811.575,125.992,-597.533,0,0
308071.9,125.646,-596.536,0,0
308332.225,125.351,-595.624,0,0
308592.55,125.073,-594.778,0,0
308852.875,124.763,-594.032,0,0
309113.2,124.437,-593.345,0,0
309373.525,124.078,-592.733,0,0
309633.85,123.615,-592.156,0,0
309894.175,123.133,-591.595,0,0
310154.5,122.62,-591.026,0,0
310414.825,121.994,-590.484,0,0
310675.15,121.323,-589.913,0,0
310935.475,120.605,-589.312,0,0
311195.8,119.852,-588.592,0,0
311456.125,119.121,-587.863,0,0
311716.45,118.397,-587.076,0,0
311976.775,117.688,-586.249,0,0
312237.1,117.038,-585.423,0,0
312497.425,116.38,-584.569,0,0
312757.75,115.734,-583.701,0,0
313018.075,115.1,-582.811,0,0
313278.4,114.5,-581.864,0,0
313538.725,113.938,-580.909,0,0
313799.05,113.453,-579.927,0,0
314059.375,113.033,-578.941,0,0
314319.7,112.664,-578.008,0,0
314580,112.293,-577.129,0,0
314840,112.029,-576.244,0,0
315101,111.838,-575.37,0,0
315361,111.524,-574.643,0,0
315621,111.353,-573.901,0,0
315882,111.138,-573.216,0,0
316142,110.87,-572.521,0,0
316402,110.624,-571.953,0,0
316663,110.383,-571.364,0,0
316923,110.18,-570.769,0,0
317183,109.907,-570.224,0,0
317444,109.747,-569.842,0,0
317704,109.485,-569.357,0,0
317964,109.082,-569.01,0,0
318225,108.787,-568.636,0,0
318485,108.498,-568.31,0,0
318745,108.007,-567.988,0,0
319006,107.62,-567.709,0,0
319266,107.223,-567.511,0,0
319526,106.642,-567.282,0,0
319787,106.053,-567.199,0,0
320047,105.445,-567.015,0,0
320307,104.637,-566.789,0,0
320567,103.844,-566.735,0,0
320828,102.923,-566.492,0,0
321088,101.914,-566.372,0,0
321348,100.881,-566.118,0,0
321609,99.7444,-565.797,0,0
321869,98.4671,-565.458,0,0
322129,97.1806,-565.041,0,0
322390,95.7701,-564.456,0,0
322650,94.2435,-563.751,0,0
322910,92.859,-562.916,0,0
323171,91.3889,-561.784,0,0
323431,90.0481,-560.599,0,0
323691,88.7527,-559.323,0,0
323952,87.616,-557.86,0,0
324212,86.5761,-556.455,0,0
324472,85.752,-554.966,0,0
324733,84.8837,-553.422,0,0
324993,84.1376,-551.969,0,0
325253,83.5491,-550.567,0,0
325514,83.028,-549.152,0,0
325774,82.4296,-547.853,0,0
326034,82.0094,-546.503,0,0
326295,81.4967,-545.211,0,0
326555,80.992,-543.969,0,0
326815,80.4705,-542.649,0,0
327076,79.9908,-541.304,0,0
327336,79.5103,-540.031,0,0
327596,79.0759,-538.677,0,0
327857,78.6415,-537.361,0,0
328117,78.1979,-535.938,0,0
328377,77.8005,-534.531,0,0
328638,77.516,-533.12,0,0
328898,77.3201,-531.612,0,0
329158,77.1249,-530.134,0,0
329419,77.0463,-528.7,0,0
329679,77.0431,-527.224,0,0
329939,77.1253,-525.814,0,0
330200,77.244,-524.413,0,0
330460,77.3541,-523.127,0,0
330720.15,77.7058,-521.886,0,0
330980.475,77.9447,-520.713,0,0
331240.8,78.2656,-519.643,0,0
331501.125,78.6153,-518.744,0,0
331761.45,78.9357,-517.772,0,0
332021.775,79.2452,-516.949,0,0
332282.1,79.4767,-516.121,0,0
332542.425,79.7182,-515.426,0,0
332802.75,79.8694,-514.795,0,0
333063.075,80.0111,-514.166,0,0
333323.4,80.0826,-513.557,0,0
333583.725,80.1207,-513.041,0,0
333844.05,80.0652,-512.498,0,0
334104.375,79.998,-511.915,0,0
334364.7,79.8175,-511.333,0,0
334625.025,79.644,-510.849,0,0
334885.35,79.3872,-510.207,0,0
335145.675,79.1113,-509.54,0,0
335406.0,78.8083,-508.838,0,0
335666.325,78.4647,-508.097,0,0
335926.65,78.0563,-507.44,0,0
336186.975,77.6879,-506.589,0,0
336447.3,77.2655,-505.798,0,0
336707.625,76.8019,-504.793,0,0
336967.95,76.3621,-503.768,0,0
337228.275,75.9969,-502.716,0,0
337488.6,75.6893,-501.573,0,0
337748.925,75.4172,-500.344,0,0
338009.25,75.2408,-499.091,0,0
338269.575,75.1359,-497.87,0,0
338529.9,75.0944,-496.627,0,0
338790.225,75.013,-495.354,0,0
339050.55,74.9904,-494.087,0,0
339310.875,75.0644,-492.814,0,0
339571.2,75.1974,-491.564,0,0
339831.525,75.3933,-490.26,0,0
340091.85,75.6851,-488.989,0,0
340352.175,75.9684,-487.707,0,0
340612.5,76.3903,-486.48,0,0
340872.825,76.8591,-485.219,0,0
341133.15,77.4146,-484.079,0,0
341393.475,78.0898,-482.938,0,0
341653.8,78.7349,-481.831,0,0
341914.125,79.502,-480.859,0,0
342174.45,80.3702,-479.937,0,0
342434.775,81.2364,-479.133,0,0
342695.1,82.1658,-478.453,0,0
342955.425,83.0936,-477.896,0,0
343215.75,84.0456,-477.486,0,0
343476.075,84.8644,-477.218,0,0
343736.4,85.6909,-477.021,0,0
343996.725,86.3826,-476.903,0,0
344257.05,87.1228,-476.855,0,0
344517.375,87.6725,-476.833,0,0
344777.7,88.174,-476.893,0,0
345038.025,88.5374,-477.035,0,0
345298.35,88.8651,-477.136,0,0
345558.675,89.1083,-477.271,0,0
345819.0,89.2439,-477.395,0,0
346079.325,89.3518,-477.536,0,0
346339.65,89.4093,-477.629,0,0
346599.975,89.3192,-477.748,0,0
346860,89.2102,-477.775,0,0
347121,89.045,-477.841,0,0
347381,88.8363,-477.832,0,0
347641,88.5629,-477.798,0,0
347902,88.297,-477.668,0,0
348162,88.0051,-477.618,0,0
348422,87.6892,-477.387,0,0
348683,87.3453,-477.311,0,0
348943,86.8887,-477.091,0,0
349203,86.5035,-476.827,0,0
349464,86.1358,-476.531,0,0
349724,85.6982,-476.192,0,0
349984,85.2514,-475.845,0,0
350245,84.7781,-475.349,0,0
350505,84.385,-474.88,0,0
350765,83.9275,-474.347,0,0
351025,83.6014,-473.832,0,0
351286,83.1975,-473.273,0,0
351546,82.8083,-472.653,0,0
351806,82.4897,-472.06,0,0
352067,82.138,-471.473,0,0
352327,81.7732,-470.683,0,0
352587,81.5093,-469.982,0,0
352848,81.1928,-469.248,0,0
353108,81.0303,-468.472,0,0
353368,80.8345,-467.678,0,0
353629,80.7207,-466.907,0,0
353889,80.6617,-466.074,0,0
354149,80.6153,-465.284,0,0
354410,80.7084,-464.517,0,0
354670,80.7829,-463.864,0,0
354930,80.9417,-463.28,0,0
355191,81.0743,-462.686,0,0
355451,81.1482,-462.192,0,0
355711,81.1803,-461.717,0,0
355972,81.2084,-461.326,0,0
356232,81.2534,-460.837,0,0
356492,81.2092,-460.462,0,0
356753,81.1251,-460.068,0,0
357013,80.9779,-459.68,0,0
357273,80.8232,-459.316,0,0
357534,80.6343,-458.855,0,0
357794,80.3977,-458.431,0,0
358054,80.189,-457.923,0,0
358315,79.8683,-457.493,0,0
358575,79.5454,-456.926,0,0
358835,79.1794,-456.362,0,0
359096,78.9053,-455.676,0,0
359356,78.5592,-454.973,0,0
359616,78.2775,-454.146,0,0
359877,78.0368,-453.301,0,0
360137,77.9322,-452.448,0,0
360397,77.7969,-451.585,0,0
360658,77.7284,-450.742,0,0
360918,77.6533,-449.892,0,0
361178,77.6803,-449.046,0,0
361438,77.7093,-448.167,0,0
361699,77.7479,-447.301,0,0
361959,77.9234,-446.437,0,0
362219,78.0286,-445.672,0,0
362480,78.2476,-444.886,0,0
362740.1,78.5127,-444.122,0,0
363000.425,78.6991,-443.457,0,0
363260.75,78.9664,-442.768,0,0
363521.075,79.1544,-442.197,0,0
363781.4,79.3289,-441.597,0,0
364041.725,79.4884,-441.033,0,0
364302.05,79.6417,-440.462,0,0
364562.375,79.6777,-439.979,0,0
364822.7,79.7868,-439.384,0,0
365083.025,79.7882,-438.818,0,0
365343.35,79.8036,-438.18,0,0
365603.675,79.7911,-437.487,0,0
365864.0,79.75,-436.801,0,0
366124.325,79.7996,-436.029,0,0
366384.65,79.8676,-435.145,0,0
366644.975,79.9604,-434.313,0,0
366905.3,80.1016,-433.381,0,0
367165.625,80.2627,-432.469,0,0
367425.95,80.5711,-431.518,0,0
367686.275,80.9204,-430.592,0,0
367946.6,81.2878,-429.683,0,0
368206.925,81.7495,-428.724,0,0
368467.25,82.2685,-427.816,0,0
368727.575,82.7846,-426.956,0,0
368987.9,83.4932,-426.07,0,0
369248.225,84.2088,-425.178,0,0
369508.55,85.066,-424.429,0,0
369768.875,85.9442,-423.738,0,0
370029.2,86.8388,-423.127,0,0
370289.525,87.8091,-422.595,0,0
370549.85,88.7858,-422.13,0,0
370810.175,89.7617,-421.699,0,0
371070.5,90.8074,-421.399,0,0
371330.825,91.8848,-421.178,0,0
371591.15,92.9355,-421.068,0,0
371851.475,94.0424,-421.122,0,0
372111.8,95.0508,-421.244,0,0
372372.125,96.0523,-421.489,0,0
372632.45,96.9791,-421.809,0,0
372892.775,97.8816,-422.265,0,0
373153.1,98.7013,-422.826,0,0
373413.425,99.3356,-423.443,0,0
373673.75,99.8258,-424.171,0,0
373934.075,100.219,-424.865,0,0
374194.4,100.541,-425.569,0,0
374454.725,100.681,-426.291,0,0
374715.05,100.756,-426.981,0,0
374975.375,100.671,-427.638,0,0
375235.7,100.571,-428.127,0,0
375496.025,100.382,-428.639,0,0
375756.35,100.163,-429.031,0,0
376016.675,99.8759,-429.389,0,0
376277.0,99.6189,-429.677,0,0
376537.325,99.3229,-429.899,0,0
376797.65,99.0955,-430.085,0,0
377057.975,98.7834,-430.162,0,0
377318.3,98.5834,-430.275,0,0
377578.625,98.4332,-430.39,0,0
377838.95,98.2729,-430.476,0,0
378099.275,98.0914,-430.608,0,0
378359.6,97.8976,-430.78,0,0
378619.925,97.6899,-430.971,0,0
378880,97.458,-431.165,0,0
379141,97.1605,-431.335,0,0
379401,96.807,-431.395,0,0
379661,96.4181,-431.496,0,0
379922,96.0514,-431.496,0,0
380182,95.6335,-431.482,0,0
380442,95.3623,-431.383,0,0
380703,95.0214,-431.317,0,0
380963,94.7167,-431.253,0,0
381223,94.3822,-431.201,0,0
381483,94.0819,-430.988,0,0
381744,93.7565,-430.775,0,0
382004,93.5774,-430.558,0,0
382264,93.4856,-430.311,0,0
382525,93.4225,-430.043,0,0
382785,93.5338,-429.98,0,0
383045,93.6888,-429.934,0,0
383306,93.8706,-430.11,0,0
383566,93.9149,-430.389,0,0
383826,93.9708,-430.808,0,0
384087,93.8521,-431.332,0,0
384347,93.6564,-431.953,0,0
384607,93.1662,-432.508,0,0
384868,92.525,-433.103,0,0
385128,91.8525,-433.597,0,0
385388,90.9981,-434.085,0,0
385649,90.0537,-434.445,0,0
385909,88.9847,-434.723,0,0
386169,87.8509,-434.853,0,0
386430,86.6295,-434.827,0,0
386690,85.3664,-434.678,0,0
386950,84.2196,-434.333,0,0
387211,83.0198,-433.892,0,0
387471,81.9035,-433.227,0,0
387731,80.8682,-432.547,0,0
387992,79.9677,-431.689,0,0
388252,79.1185,-430.793,0,0
388512,78.3981,-429.835,0,0
388773,77.821,-428.84,0,0
389033,77.3869,-427.802,0,0
389293,77.0889,-426.829,0,0
389554,76.9124,-425.882,0,0
389814,76.8742,-424.945,0,0
390074,76.936,-424.133,0,0
390335,77.0734,-423.525,0,0
390595,77.2988,-422.941,0,0
390855,77.4643,-422.523,0,0
391116,77.6745,-422.277,0,0
391376,77.7935,-422.085,0,0
391636,77.8793,-422.035,0,0
391896,77.8715,-422.115,0,0
392157,77.7685,-422.272,0,0
392417,77.4754,-422.467,0,0
392677,76.9894,-422.692,0,0
392938,76.4326,-422.893,0,0
393198,75.6669,-422.997,0,0
393458,74.8676,-422.991,0,0
393719,74.0154,-422.9,0,0
393979,72.9861,-422.651,0,0
394239,72.096,-422.339,0,0
394500,71.1112,-421.861,0,0
394760.05,70.1632,-421.338,0,0
395020.375,69.2351,-420.705,0,0
395280.7,68.4051,-419.988,0,0
395541.025,67.5931,-419.227,0,0
395801.35,66.7803,-418.431,0,0
396061.675,66.0695,-417.533,0,0
396322.0,65.4035,-416.607,0,0
396582.325,64.8023,-415.688,0,0
396842.65,64.2805,-414.766,0,0
397102.975,63.7738,-413.795,0,0
397363.3,63.3147,-412.89,0,0
397623.625,62.9013,-411.939,0,0
397883.95,62.5311,-410.974,0,0
398144.275,62.1419,-410.047,0,0
398404.6,61.7858,-409.066,0,0
398664.925,61.48,-408.163,0,0
398925.25,61.1493,-407.192,0,0
399185.575,60.8461,-406.26,0,0
399445.9,60.603,-405.243,0,0
399706.225,60.3645,-404.279,0,0
399966.55,60.1286,-403.258,0,0
400006.6,60.186,-403.121,0,0