File: Accelerated corrosion test data/2025-10-10_18-00-03/sample_3.csv
Frequency (Hz),Impedance (ohms),Phase (Radians),Temperature (C),Humidity (%)
10000.0,249.96,-11784.3,0,0
10260.325,243.594,-11487.2,0,0
10520.65,238.716,-11204.9,0,0
10780.975,234.144,-10934.3,0,0
11041.3,228.237,-10682.7,0,0
11301.625,222.499,-10438,0,0
11561.95,217.779,-10204.3,0,0
11822.275,213.878,-9980.87,0,0
12082.6,210.943,-9767.68,0,0
12342.925,208.718,-9561.39,0,0
12603.25,201.484,-9367.82,0,0
12863.575,198.436,-9178.13,0,0
13123.9,198.438,-8994.68,0,0
13384.225,191.688,-8826.79,0,0
13644.55,189.293,-8658.73,0,0
13904.875,184.551,-8495.29,0,0
14165.2,184.353,-8338.93,0,0
14425.525,180.113,-8189.02,0,0
14685.8,177.659,-8043.63,0,0
14946.175,175.821,-7906.3,0,0
15206.5,172.568,-7765.72,0,0
15466.825,178.713,-7627.06,0,0
15727.15,194.1,-7525.07,0,0
15987.5,173.027,-7412.27,0,0
16247.8,166.458,-7283.03,0,0
16508.125,161,-7171.13,0,0
16768.45,165.507,-7050.5,0,0
17028.775,156.355,-6953,0,0
17289.1,159.789,-6839.26,0,0
17549.425,155.739,-6747.9,0,0
17809.75,155.587,-6643.14,0,0
18070.075,161.914,-6556.12,0,0
18330.4,150.056,-6461.76,0,0
18590.725,147.748,-6371.11,0,0
18851.05,144.168,-6281.13,0,0
19111.375,145.568,-6191.55,0,0
19371.7,144.694,-6108.41,0,0
19632.025,145.615,-6025.07,0,0
19892.35,146.088,-5944.34,0,0
20152.675,148.899,-5869.34,0,0
20413.0,158.057,-5792.07,0,0
20673.3,163.227,-5723.11,0,0
20933.65,161.124,-5672.3,0,0
21193.975,160.156,-5604.4,0,0
21454.3,145.294,-5545.89,0,0
21714.625,137.812,-5470.44,0,0
21974.9,140.496,-5404.26,0,0
22235.275,138.542,-5346.24,0,0
22495.6,136.261,-5284.04,0,0
22755.925,128.516,-5224.28,0,0
23016.25,127.461,-5164.99,0,0
23276.6,127.438,-5103.32,0,0
23536.9,128.279,-5058.01,0,0
23797.225,120.7,-4998.66,0,0
24057.55,118.387,-4941.54,0,0
24317.875,117.998,-4885.78,0,0
24578.2,116.203,-4836.54,0,0
24838.525,116.646,-4782.4,0,0
25098.85,115.844,-4736.65,0,0
25359.175,113.217,-4686.51,0,0
25619.5,113.059,-4638.87,0,0
25879.8,110.155,-4591.76,0,0
26140.1,107.952,-4544.7,0,0
26400.5,107.238,-4498.35,0,0
26660.8,107.337,-4452.81,0,0
26921.1,107.748,-4408.43,0,0
27181.4,107.842,-4368.19,0,0
27441.8,107.052,-4324.37,0,0
27702.1,107.193,-4285.27,0,0
27962.4,105.136,-4245,0,0
28222.7,103.572,-4202.34,0,0
28483.1,109.841,-4159.45,0,0
28743.4,112.089,-4124.98,0,0
29003.7,115.049,-4094.62,0,0
29264,107.855,-4062.01,0,0
29524.4,108.31,-4024.67,0,0
29784.7,103.458,-3990.21,0,0
30045,101.752,-3956.26,0,0
30305.3,100.135,-3919.53,0,0
30565.7,101.346,-3885.26,0,0
30826,100.521,-3853.19,0,0
31086.3,101.966,-3820.14,0,0
31346.6,98.4068,-3790.3,0,0
31607,97.0853,-3756.25,0,0
31867.3,97.7484,-3722.13,0,0
32127.6,100.775,-3689.03,0,0
32387.9,108.796,-3660.41,0,0
32648.3,111.264,-3642.42,0,0
32908.6,103.778,-3618.52,0,0
33168.9,100.651,-3591.13,0,0
33429.2,99.0425,-3563.82,0,0
33689.6,92.9553,-3537.02,0,0
33949.9,90.5627,-3506.85,0,0
34210.2,90.12,-3478.77,0,0
34470.5,89.5472,-3452.57,0,0
34730.9,87.4997,-3426.44,0,0
34991.2,85.9601,-3400.04,0,0
35251.5,85.2654,-3373.96,0,0
35511.8,84.6728,-3348.59,0,0
35772.2,83.619,-3323.47,0,0
36032.5,82.7875,-3298.68,0,0
36292.8,82.1632,-3274.34,0,0
36553.1,81.9867,-3250.53,0,0
36813.5,81.1939,-3227.36,0,0
37073.8,80.5991,-3203.99,0,0
37334.1,79.8242,-3180.9,0,0
37594.4,79.4056,-3158.36,0,0
37854.8,79.1421,-3136.12,0,0
38115.1,78.4884,-3114.38,0,0
38375.4,77.8961,-3092.73,0,0
38635.7,77.5972,-3071.29,0,0
38896.1,77.2445,-3050.05,0,0
39156.4,76.7501,-3029.31,0,0
39416.7,76.5428,-3009.05,0,0
39677,75.9518,-2988.92,0,0
39937.4,75.3047,-2968.91,0,0
40197.7,74.8626,-2948.94,0,0
40458,74.8491,-2929.32,0,0
40718.3,74.1531,-2910.14,0,0
40978.7,73.7189,-2891.09,0,0
41239,73.9674,-2871.62,0,0
41499.3,73.8125,-2853.65,0,0
41759.6,73.7964,-2835.08,0,0
42020,73.5841,-2817.52,0,0
42280.275,73.2485,-2799.76,0,0
42540.6,72.8134,-2782.06,0,0
42800.925,72.741,-2764.62,0,0
43061.25,72.3191,-2747.95,0,0
43321.575,71.4959,-2730.47,0,0
43581.9,71.617,-2713.4,0,0
43842.225,71.2551,-2696.61,0,0
44102.55,71.6165,-2680.22,0,0
44362.875,72.0505,-2664.87,0,0
44623.2,71.0021,-2648.59,0,0
44883.525,70.7125,-2632.76,0,0
45143.85,70.5419,-2616.98,0,0
45404.175,70.3096,-2601.76,0,0
45664.5,69.8273,-2585.86,0,0
45924.825,70.4794,-2570.95,0,0
46185.15,70.1008,-2556.57,0,0
46445.475,69.3766,-2541.36,0,0
46705.8,69.3996,-2526.38,0,0
46966.125,69.6936,-2511.9,0,0
47226.45,69.3166,-2497.42,0,0
47486.775,69.1705,-2483.33,0,0
47747.1,69.6548,-2468.94,0,0
48007.425,70.0628,-2455.8,0,0
48267.75,70.2813,-2442.87,0,0
48528.075,69.2364,-2429.73,0,0
48788.4,68.9312,-2416.57,0,0
49048.725,68.2075,-2403.51,0,0
49309.05,67.6021,-2390.07,0,0
49569.375,67.5112,-2376.74,0,0
49829.7,67.3837,-2363.97,0,0
50090.025,66.9548,-2351.31,0,0
50350.35,66.2321,-2338.45,0,0
50610.675,66.056,-2325.43,0,0
50871.0,65.9279,-2312.77,0,0
51131.325,65.9221,-2300.4,0,0
51391.65,65.6349,-2288.13,0,0
51651.975,65.805,-2275.76,0,0
51912.3,65.8695,-2263.68,0,0
52172.625,65.7874,-2251.81,0,0
52432.95,65.5917,-2239.67,0,0
52693.275,65.8129,-2227.79,0,0
52953.6,66.1811,-2216.05,0,0
53213.925,66.789,-2204.28,0,0
53474.25,67.7236,-2193.51,0,0
53734.575,67.8181,-2182.83,0,0
53994.9,68.0412,-2172.01,0,0
54255.225,69.0617,-2161.1,0,0
54515.55,69.9073,-2152.07,0,0
54775.875,69.2585,-2142.77,0,0
55036.2,68.4552,-2133.13,0,0
55296.525,67.6717,-2123.49,0,0
55556.85,66.3309,-2113.73,0,0
55817.175,64.79,-2103.16,0,0
56077.5,63.9925,-2092.65,0,0
56337.825,63.1324,-2082.16,0,0
56598.15,62.186,-2071.69,0,0
56858.475,61.3899,-2060.9,0,0
57118.8,61.0011,-2050.15,0,0
57379.125,60.8884,-2039.64,0,0
57639.45,60.8075,-2029.18,0,0
57899.775,60.8884,-2019.04,0,0
58160.1,60.8522,-2009.09,0,0
58420.4,60.7563,-1999.14,0,0
58680.7,60.7828,-1989.13,0,0
58941.1,60.9932,-1979.33,0,0
59201.4,60.9886,-1969.51,0,0
59461.7,61.4959,-1959.82,0,0
59722,61.6715,-1950.37,0,0
59982.4,61.9038,-1940.98,0,0
60242.7,62.2123,-1931.81,0,0
60503,62.3831,-1922.48,0,0
60763.3,62.7332,-1913.18,0,0
61023.7,63.06,-1904.13,0,0
61284,63.6287,-1895.15,0,0
61544.3,64.0405,-1886.06,0,0
61804.6,64.5787,-1877.46,0,0
62065,64.8613,-1868.57,0,0
62325.3,65.4162,-1859.68,0,0
62585.6,65.9333,-1851.11,0,0
62845.9,66.4468,-1842.04,0,0
63106.3,67.5982,-1833.33,0,0
63366.6,68.4561,-1825.13,0,0
63626.9,69.5585,-1816.13,0,0
63887.2,71.0626,-1807.91,0,0
64147.6,72.513,-1799.21,0,0
64407.9,74.7413,-1791.08,0,0
64668.2,77.2841,-1783.2,0,0
64928.5,80.2289,-1775.92,0,0
65188.9,84.0569,-1769.72,0,0
65449.2,86.7526,-1765.52,0,0
65709.5,88.7993,-1761.03,0,0
65969.8,91.4993,-1757.97,0,0
66230.2,91.1486,-1758.32,0,0
66490.5,85.4005,-1755.73,0,0
66750.8,80.4213,-1749.28,0,0
67011.1,77.6455,-1740.32,0,0
67271.5,75.775,-1732.57,0,0
67531.8,74.488,-1724.14,0,0
67792.1,74.7635,-1715.99,0,0
68052.4,74.7067,-1708.32,0,0
68312.8,75.6459,-1701.26,0,0
68573.1,75.8971,-1695.14,0,0
68833.4,75.8896,-1688.76,0,0
69093.7,76.4884,-1682.26,0,0
69354.1,76.7465,-1676.85,0,0
69614.4,76.4067,-1671.57,0,0
69874.7,75.5462,-1665.98,0,0
70135,74.5882,-1660.19,0,0
70395.4,73.8606,-1654.31,0,0
70655.7,72.6443,-1648.34,0,0
70916,71.4289,-1642,0,0
71176.3,70.3807,-1635.55,0,0
71436.7,69.5782,-1628.83,0,0
71697,68.8545,-1622.01,0,0
71957.3,68.9084,-1615.05,0,0
72217.6,68.9697,-1608.85,0,0
72478,69.0416,-1602.8,0,0
72738.3,69.0375,-1597,0,0
72998.6,68.8416,-1591.51,0,0
73258.9,68.2267,-1585.87,0,0
73519.3,67.7648,-1580.1,0,0
73779.6,67.3988,-1574.43,0,0
74039.9,66.8222,-1568.95,0,0
74300.225,66.0254,-1563.27,0,0
74560.55,65.3534,-1557.55,0,0
74820.875,64.5664,-1551.85,0,0
75081.2,63.8623,-1546.18,0,0
75341.525,63.0965,-1540.36,0,0
75601.85,62.3567,-1534.58,0,0
75862.175,61.5677,-1528.7,0,0
76122.5,60.9422,-1522.87,0,0
76382.825,60.3342,-1516.92,0,0
76643.15,59.7391,-1511.07,0,0
76903.475,59.2852,-1505.25,0,0
77163.8,58.7861,-1499.45,0,0
77424.125,58.3581,-1493.74,0,0
77684.45,57.8953,-1488,0,0
77944.775,57.3261,-1482.35,0,0
78205.1,56.8654,-1476.63,0,0
78465.425,56.3985,-1470.9,0,0
78725.75,56.0449,-1465.15,0,0
78986.075,55.6252,-1459.54,0,0
79246.4,55.2926,-1453.89,0,0
79506.725,54.9106,-1448.29,0,0
79767.05,54.5964,-1442.67,0,0
80027.375,54.421,-1437.07,0,0
80287.7,54.206,-1431.56,0,0
80548.025,53.9291,-1426.05,0,0
80808.35,53.7528,-1420.6,0,0
81068.675,53.4703,-1415.17,0,0
81329.0,53.3361,-1409.78,0,0
81589.325,53.1903,-1404.39,0,0
81849.65,53.0193,-1398.96,0,0
82109.975,52.9116,-1393.73,0,0
82370.3,52.7963,-1388.48,0,0
82630.625,52.666,-1383.11,0,0
82890.95,52.6139,-1378,0,0
83151.275,52.4678,-1372.77,0,0
83411.6,52.461,-1367.57,0,0
83671.925,52.339,-1362.43,0,0
83932.25,52.389,-1357.35,0,0
84192.575,52.3069,-1352.34,0,0
84452.9,52.2791,-1347.25,0,0
84713.225,52.2361,-1342.27,0,0
84973.55,52.2895,-1337.17,0,0
85233.875,52.2361,-1332.25,0,0
85494.2,52.2622,-1327.28,0,0
85754.525,52.3791,-1322.37,0,0
86014.85,52.3523,-1317.46,0,0
86275.175,52.3208,-1312.66,0,0
86535.5,52.4204,-1307.85,0,0
86795.825,52.4411,-1303.04,0,0
87056.15,52.467,-1298.14,0,0
87316.475,52.5592,-1293.36,0,0
87576.8,52.6866,-1288.53,0,0
87837.125,52.849,-1283.85,0,0
88097.45,52.9585,-1279.05,0,0
88357.775,53.0987,-1274.45,0,0
88618.1,53.2673,-1269.68,0,0
88878.425,53.5495,-1264.93,0,0
89138.75,53.8503,-1260.14,0,0
89399.075,54.425,-1255.39,0,0
89659.4,54.8505,-1250.96,0,0
89919.725,55.4356,-1246.52,0,0
90180,55.8566,-1242.17,0,0
90440.4,56.2897,-1237.9,0,0
90700.7,56.7255,-1233.68,0,0
90961,57.0818,-1229.42,0,0
91221.3,57.4706,-1225.23,0,0
91481.7,58.0297,-1221.05,0,0
91742,58.6228,-1217.02,0,0
92002.3,59.0146,-1213.08,0,0
92262.6,59.6442,-1209,0,0
92523,60.3578,-1205.09,0,0
92783.3,60.9511,-1201.56,0,0
93043.6,61.4183,-1197.9,0,0
93303.9,62.0912,-1194.24,0,0
93564.3,62.8156,-1190.99,0,0
93824.6,63.3129,-1188.02,0,0
94084.9,63.6686,-1185.38,0,0
94345.2,63.3403,-1182.76,0,0
94605.6,62.8742,-1179.77,0,0
94865.9,62.419,-1177.04,0,0
95126.2,61.1709,-1174.35,0,0
95386.5,59.5813,-1170.72,0,0
95646.9,58.3724,-1166.32,0,0
95907.2,57.7398,-1162.07,0,0
96167.5,57.0621,-1157.89,0,0
96427.8,56.6666,-1153.41,0,0
96688.2,56.5542,-1149.1,0,0
96948.5,56.5415,-1145.05,0,0
97208.8,56.3828,-1141.02,0,0
97469.1,56.4073,-1137.02,0,0
97729.5,56.3742,-1133.13,0,0
97989.8,56.3176,-1129.24,0,0
98250.1,56.2202,-1125.39,0,0
98510.4,56.1958,-1121.48,0,0
98770.8,56.2521,-1117.73,0,0
99031.1,56.1987,-1114.05,0,0
99291.4,56.0077,-1110.33,0,0
99551.7,55.7582,-1106.53,0,0
99812.1,55.6207,-1102.64,0,0
100072,55.5334,-1098.77,0,0
100333,55.4001,-1094.87,0,0
100593,55.252,-1091.03,0,0
100853,55.1223,-1086.98,0,0
101114,55.1326,-1082.91,0,0
101374,55.236,-1078.89,0,0
101634,55.3687,-1074.8,0,0
101895,55.6682,-1070.72,0,0
102155,55.9593,-1066.69,0,0
102415,56.3942,-1062.51,0,0
102676,57.2332,-1058.39,0,0
102936,58.2393,-1054.75,0,0
103196,59.1016,-1051.43,0,0
103457,59.6787,-1048.14,0,0
103717,60.3193,-1044.75,0,0
103977,61.0191,-1041.39,0,0
104238,62.0187,-1038.15,0,0
104498,63.0102,-1035.47,0,0
104758,63.5417,-1033.18,0,0
105019,63.5906,-1030.7,0,0
105279,63.488,-1027.93,0,0
105539,63.5432,-1025.14,0,0
105800,63.5207,-1022.52,0,0
106060,63.3122,-1019.84,0,0
106320.175,62.8772,-1017.05,0,0
106580.5,62.4873,-1014.13,0,0
106840.825,62.0745,-1011.16,0,0
107101.15,61.4311,-1008.09,0,0
107361.475,60.899,-1004.76,0,0
107621.8,60.4502,-1001.43,0,0
107882.125,60.036,-997.982,0,0
108142.45,59.6476,-994.546,0,0
108402.775,59.2316,-991,0,0
108663.1,58.9492,-987.456,0,0
108923.425,58.6637,-983.758,0,0
109183.75,58.4742,-979.974,0,0
109444.075,58.4684,-976.127,0,0
109704.4,58.686,-972.466,0,0
109964.725,58.6642,-968.893,0,0
110225.05,58.7182,-965.221,0,0
110485.375,58.9995,-961.352,0,0
110745.7,59.4578,-957.557,0,0
111006.025,59.9739,-953.957,0,0
111266.35,60.7372,-950.589,0,0
111526.675,60.9712,-947.404,0,0
111787.0,61.494,-944.046,0,0
112047.325,62.0868,-940.742,0,0
112307.65,62.5883,-937.616,0,0
112567.975,62.9703,-934.469,0,0
112828.3,63.2599,-931.38,0,0
113088.625,63.5802,-928.197,0,0
113348.95,63.9706,-924.962,0,0
113609.275,64.3094,-921.82,0,0
113869.6,64.5063,-918.701,0,0
114129.925,64.8513,-915.468,0,0
114390.25,65.2026,-912.255,0,0
114650.575,65.3816,-908.869,0,0
114910.9,65.7834,-905.413,0,0
115171.225,66.2988,-901.958,0,0
115431.55,66.9967,-898.567,0,0
115691.875,67.7202,-895.379,0,0
115952.2,68.3417,-892.167,0,0
116212.525,68.9113,-888.817,0,0
116472.85,69.7078,-885.382,0,0
116733.175,70.7615,-882.047,0,0
116993.5,71.793,-878.999,0,0
117253.825,72.7169,-875.98,0,0
117514.15,73.6015,-872.776,0,0
117774.475,74.8679,-869.384,0,0
118034.8,76.5896,-866.339,0,0
118295.125,78.313,-863.813,0,0
118555.45,79.8812,-861.706,0,0
118815.775,80.9042,-859.696,0,0
119076.1,81.7658,-857.307,0,0
119336.425,83.0636,-854.673,0,0
119596.75,84.9304,-852.456,0,0
119857.075,86.6072,-850.971,0,0
120117.4,87.9517,-849.885,0,0
120377.725,88.7699,-849.089,0,0
120638.05,88.9907,-848.2,0,0
120898.375,88.9146,-847.091,0,0
121158.7,88.5934,-845.817,0,0
121419.025,87.9671,-844.334,0,0
121679.35,87.1164,-842.368,0,0
121939.675,86.3712,-839.883,0,0
122200.0,86.0754,-837.148,0,0
122460,86.071,-834.435,0,0
122721,86.1609,-831.888,0,0
122981,86.2761,-829.281,0,0
123241,86.6702,-826.712,0,0
123502,87.0449,-824.389,0,0
123762,87.3161,-822.153,0,0
124022,87.5613,-819.831,0,0
124283,87.8821,-817.592,0,0
124543,88.1661,-815.401,0,0
124803,88.4148,-813.236,0,0
125064,88.737,-811.084,0,0
125324,88.9756,-809.109,0,0
125584,89.1709,-807.035,0,0
125845,89.3628,-805.057,0,0
126105,89.495,-803.237,0,0
126365,89.4278,-801.374,0,0
126626,89.2168,-799.471,0,0
126886,89,-797.493,0,0
127146,88.7001,-795.402,0,0
127406,88.448,-793.254,0,0
127667,88.1249,-791.131,0,0
127927,87.7662,-788.862,0,0
128187,87.4934,-786.691,0,0
128448,87.0418,-784.458,0,0
128708,86.4613,-782.032,0,0
128968,86.0207,-779.376,0,0
129229,85.7696,-776.676,0,0
129489,85.6117,-774.035,0,0
129749,85.3847,-771.363,0,0
130010,85.2734,-768.586,0,0
130270,85.3416,-765.698,0,0
130530,85.6661,-762.966,0,0
130791,86.1212,-760.535,0,0
131051,86.3988,-758.324,0,0
131311,86.5364,-756.162,0,0
131572,86.5248,-754.029,0,0
131832,86.4044,-751.842,0,0
132092,86.2336,-749.598,0,0
132353,85.996,-747.279,0,0
132613,85.8048,-744.786,0,0
132873,85.7672,-742.338,0,0
133134,85.6708,-740,0,0
133394,85.542,-737.66,0,0
133654,85.3737,-735.364,0,0
133915,85.0304,-733.045,0,0
134175,84.6637,-730.523,0,0
134435,84.3342,-727.941,0,0
134696,84.1554,-725.463,0,0
134956,83.7729,-722.931,0,0
135216,83.4235,-720.209,0,0
135477,83.2723,-717.426,0,0
135737,83.0199,-714.8,0,0
135997,82.7818,-712.167,0,0
136258,82.3709,-709.427,0,0
136518,81.9952,-706.467,0,0
136778,81.7722,-703.314,0,0
137039,81.8204,-700.169,0,0
137299,81.9754,-697.141,0,0
137559,82.2545,-694.222,0,0
137819,82.4638,-691.428,0,0
138080,82.5976,-688.66,0,0
138340.125,82.8265,-685.779,0,0
138600.45,83.2853,-683.131,0,0
138860.775,83.4828,-680.753,0,0
139121.1,83.456,-678.33,0,0
139381.425,83.2904,-675.787,0,0
139641.75,83.0062,-673.111,0,0
139902.075,82.7805,-670.263,0,0
140162.4,82.6158,-667.312,0,0
140422.725,82.6488,-664.256,0,0
140683.05,82.7849,-661.406,0,0
140943.375,82.7698,-658.692,0,0
141203.7,82.6247,-655.879,0,0
141464.025,82.4232,-652.984,0,0
141724.35,82.1643,-649.992,0,0
141984.675,81.9307,-646.8,0,0
142245.0,81.8819,-643.515,0,0
142505.325,81.8617,-640.327,0,0
142765.65,81.7945,-637.111,0,0
143025.975,81.7786,-633.743,0,0
143286.3,81.7779,-630.353,0,0
143546.625,81.8346,-626.957,0,0
143806.95,81.9715,-623.47,0,0
144067.275,82.1343,-619.996,0,0
144327.6,82.3297,-616.452,0,0
144587.925,82.5677,-612.838,0,0
144848.25,82.9233,-609.183,0,0
145108.575,83.3485,-605.537,0,0
145368.9,83.8068,-601.946,0,0
145629.225,84.2399,-598.323,0,0
145889.55,84.6575,-594.638,0,0
146149.875,85.1496,-590.795,0,0
146410.2,85.8307,-586.936,0,0
146670.525,86.543,-583.177,0,0
146930.85,87.2224,-579.352,0,0
147191.175,87.9872,-575.437,0,0
147451.5,88.7871,-571.5,0,0
147711.825,89.6708,-567.405,0,0
147972.15,90.795,-563.281,0,0
148232.475,92.0992,-559.26,0,0
148492.8,93.3904,-555.339,0,0
148753.125,94.6542,-551.389,0,0
149013.45,95.9922,-547.325,0,0
149273.775,97.453,-543.177,0,0
149534.1,99.0787,-538.925,0,0
149794.425,100.999,-534.665,0,0
150054.75,103.193,-530.56,0,0
150315.075,105.47,-526.613,0,0
150575.4,107.905,-522.784,0,0
150835.725,110.455,-519.152,0,0
151096.05,113.031,-515.734,0,0
151356.375,115.586,-512.429,0,0
151616.7,118.143,-509.252,0,0
151877.025,120.679,-506.191,0,0
152137.35,123.229,-503.171,0,0
152397.675,125.826,-500.312,0,0
152658.0,128.378,-497.614,0,0
152918.325,130.846,-494.971,0,0
153178.65,133.345,-492.538,0,0
153438.975,135.526,-490.289,0,0
153699.3,137.468,-487.829,0,0
153959.625,139.492,-485.269,0,0
154219.95,141.561,-482.829,0,0
154480,143.413,-480.529,0,0
154741,144.823,-478.272,0,0
155001,145.829,-475.518,0,0
155261,147.01,-472.004,0,0
155522,148.801,-468.055,0,0
155782,151.266,-464.412,0,0
156042,153.739,-461.316,0,0
156303,155.888,-458.237,0,0
156563,157.882,-454.877,0,0
156823,160.034,-451.044,0,0
157084,163.032,-447.027,0,0
157344,166.605,-443.465,0,0
157604,170.47,-440.712,0,0
157864,173.879,-438.651,0,0
158125,176.888,-436.589,0,0
158385,179.774,-435.071,0,0
158645,181.596,-433.833,0,0
158906,182.454,-431.947,0,0
159166,183.035,-429.026,0,0
159426,183.794,-425.272,0,0
159687,184.574,-421.192,0,0
159947,185.398,-415.857,0,0
160207,187.655,-409.508,0,0
160468,191.032,-403.552,0,0
160728,195.12,-397.566,0,0
160988,200.266,-392.407,0,0
161249,204.76,-388.245,0,0
161509,208.737,-383.233,0,0
161769,213.769,-377.45,0,0
162030,220.15,-372.184,0,0
162290,226.544,-367.722,0,0
162550,233.116,-363.328,0,0
162811,240.068,-359.436,0,0
163071,246.965,-355.473,0,0
163331,254.428,-351.371,0,0
163592,262.663,-347.615,0,0
163852,271.457,-344.334,0,0
164112,280.791,-341.656,0,0
164373,290.298,-339.87,0,0
164633,299.917,-338.233,0,0
164893,310.584,-336.746,0,0
165154,322.611,-336.87,0,0
165414,334.086,-339.756,0,0
165674,343.702,-343.221,0,0
165935,352.976,-346.139,0,0
166195,363.008,-349.834,0,0
166455,372.84,-354.85,0,0
166716,381.974,-361.167,0,0
166976,389.738,-368.451,0,0
167236,396.309,-376.058,0,0
167497,401.706,-383.522,0,0
167757,406.082,-390.496,0,0
168017,410.756,-396.953,0,0
168277,415.505,-404.278,0,0
168538,419.176,-412.167,0,0
168798,421.909,-419.862,0,0
169058,424.313,-427.647,0,0
169319,426.396,-435.94,0,0
169579,426.942,-445.218,0,0
169839,425.152,-454.218,0,0
170100,421.507,-461.215,0,0
170360.075,417.928,-466.129,0,0
170620.4,414.815,-470.047,0,0
170880.725,411.808,-473.499,0,0
171141.05,408.727,-476.151,0,0
171401.375,405.72,-477.809,0,0
171661.7,403.621,-478.455,0,0
171922.025,402.51,-479.219,0,0
172182.35,401.381,-480.145,0,0
172442.675,400.282,-480.39,0,0
172703.0,399.866,-479.982,0,0
172963.325,400.83,-479.115,0,0
173223.65,403.682,-479.313,0,0
173483.975,406.531,-481.693,0,0
173744.3,407.999,-484.917,0,0
174004.625,408.523,-487.696,0,0
174264.95,409.311,-489.505,0,0
174525.275,411.535,-492.21,0,0
174785.6,412.931,-496.599,0,0
175045.925,413.037,-501.064,0,0
175306.25,412.402,-505.375,0,0
175566.575,411.312,-509.064,0,0
175826.9,410.195,-512.573,0,0
176087.225,409.102,-516.125,0,0
176347.55,407.708,-519.851,0,0
176607.875,405.947,-523.599,0,0
176868.2,403.935,-527.803,0,0
177128.525,400.49,-532.485,0,0
177388.85,395.34,-535.897,0,0
177649.175,390.223,-537.569,0,0
177909.5,385.606,-538.832,0,0
178169.825,380.413,-539.761,0,0
178430.15,374.893,-539.226,0,0
178690.475,370.092,-537.424,0,0
178950.8,366.285,-534.95,0,0
179211.125,363.363,-532.288,0,0
179471.45,360.946,-529.676,0,0
179731.775,359.051,-526.712,0,0
179992.1,358.119,-523.47,0,0
180252.425,358.271,-520.937,0,0
180512.75,358.407,-519.196,0,0
180773.075,358.567,-517.595,0,0
181033.4,358.982,-516.065,0,0
181293.725,359.91,-514.903,0,0
181554.05,361.096,-514.41,0,0
181814.375,362.467,-514.872,0,0
182074.7,363.109,-516.793,0,0
182335.025,362.197,-518.885,0,0
182595.35,360.171,-520.307,0,0
182855.675,357.922,-520.823,0,0
183116.0,355.867,-521.028,0,0
183376.325,353.762,-521.362,0,0
183636.65,351.13,-521.623,0,0
183896.975,347.85,-521.492,0,0
184157.3,344.238,-520.408,0,0
184417.625,341.064,-518.416,0,0
184677.95,338.377,-516.368,0,0
184938.275,335.589,-514.218,0,0
185198.6,332.792,-511.499,0,0
185458.925,330.266,-508.453,0,0
185719.25,327.862,-505.083,0,0
185979.575,325.693,-501.222,0,0
186239.9,323.851,-496.811,0,0
186500,322.708,-491.961,0,0
186761,322.295,-486.849,0,0
187021,322.874,-482.19,0,0
187281,323.767,-477.884,0,0
187542,324.648,-473.851,0,0
187802,326.006,-469.767,0,0
188062,327.876,-466.159,0,0
188322,329.877,-463.027,0,0
188583,331.758,-460.483,0,0
188843,333.158,-458.277,0,0
189103,333.94,-456.033,0,0
189364,334.495,-453.03,0,0
189624,335.657,-449.447,0,0
189884,337.594,-445.94,0,0
190145,339.88,-442.985,0,0
190405,341.804,-440.514,0,0
190665,343.63,-438.029,0,0
190926,345.44,-435.528,0,0
191186,347.281,-433.012,0,0
191446,349.122,-430.437,0,0
191707,350.811,-427.863,0,0
191967,352.56,-424.992,0,0
192227,354.649,-422.213,0,0
192488,356.591,-419.6,0,0
192748,358.096,-416.521,0,0
193008,359.945,-412.781,0,0
193269,362.499,-408.667,0,0
193529,365.648,-404.448,0,0
193789,369.527,-400.514,0,0
194050,373.55,-396.894,0,0
194310,378.106,-393.166,0,0
194570,383.153,-389.574,0,0
194831,388.912,-386.347,0,0
195091,395.421,-383.749,0,0
195351,402.228,-382.112,0,0
195612,409.19,-381.39,0,0
195872,415.994,-381.46,0,0
196132,422.772,-382.288,0,0
196393,429.104,-383.935,0,0
196653,434.726,-386.574,0,0
196913,439.228,-389.948,0,0
197174,442.411,-393.188,0,0
197434,444.377,-395.509,0,0
197694,446.213,-396.742,0,0
197955,448.655,-397.321,0,0
198215,451.646,-398.138,0,0
198475,454.506,-399.374,0,0
198735,457.001,-400.915,0,0
198996,458.722,-402.188,0,0
199256,460.376,-402.526,0,0
199516,462.937,-402.446,0,0
199777,466.082,-403.252,0,0
200037,468.45,-404.997,0,0
200297,469.61,-406.608,0,0
200558,469.929,-407.092,0,0
200818,470.274,-406.351,0,0
201078,471.434,-404.565,0,0
201339,473.412,-402.524,0,0
201599,476.124,-400.507,0,0
201859,479.327,-398.559,0,0
202120,482.882,-396.652,0,0
202380.025,486.884,-394.691,0,0
202640.35,491.662,-392.871,0,0
202900.675,497.004,-391.543,0,0
203161.0,502.7,-390.709,0,0
203421.325,508.681,-390.365,0,0
203681.65,514.911,-390.581,0,0
203941.975,521.105,-391.488,0,0
204202.3,527.242,-392.794,0,0
204462.625,533.462,-394.795,0,0
204722.95,539.231,-397.407,0,0
204983.275,544.62,-400.243,0,0
205243.6,549.778,-403.303,0,0
205503.925,554.574,-406.983,0,0
205764.25,558.652,-411.098,0,0
206024.575,561.641,-415.31,0,0
206284.9,563.275,-419.004,0,0
206545.225,564.506,-421.214,0,0
206805.55,566.044,-422.372,0,0
207065.875,568.084,-422.498,0,0
207326.2,571.233,-421.85,0,0
207586.525,575.809,-421.293,0,0
207846.85,581.271,-421.455,0,0
208107.175,586.991,-422.275,0,0
208367.5,593.049,-423.439,0,0
208627.825,599.471,-425.161,0,0
208888.15,606.034,-427.487,0,0
209148.475,612.627,-430.277,0,0
209408.8,619.288,-433.615,0,0
209669.125,625.866,-437.419,0,0
209929.45,632.491,-441.745,0,0
210189.775,638.908,-446.551,0,0
210450.1,644.995,-451.923,0,0
210710.425,650.965,-457.513,0,0
210970.75,656.724,-463.548,0,0
211231.075,662.103,-469.992,0,0
211491.4,667.08,-476.713,0,0
211751.725,671.66,-483.546,0,0
212012.05,675.952,-490.363,0,0
212272.375,680.076,-497.275,0,0
212532.7,684.12,-504.353,0,0
212793.025,687.958,-511.517,0,0
213053.35,691.927,-518.827,0,0
213313.675,695.739,-526.723,0,0
213574.0,699.082,-535.112,0,0
213834.325,701.777,-543.64,0,0
214094.65,704.009,-552.036,0,0
214354.975,705.967,-560.214,0,0
214615.3,708.015,-568.375,0,0
214875.625,710.245,-576.742,0,0
215135.95,712.357,-585.73,0,0
215396.275,713.838,-595.258,0,0
215656.6,714.786,-605.122,0,0
215916.925,714.825,-614.888,0,0
216177.25,714.436,-624.397,0,0
216437.575,713.867,-633.997,0,0
216697.9,712.762,-643.523,0,0
216958.225,711.097,-653.373,0,0
217218.55,708.429,-662.913,0,0
217478.875,705.413,-671.579,0,0
217739.2,702.441,-679.675,0,0
217999.525,699.66,-687.63,0,0
218259.85,696.728,-695.894,0,0
218520,693.451,-704.187,0,0
218780,689.382,-712.116,0,0
219041,685.108,-719.252,0,0
219301,681.202,-725.846,0,0
219561,677.728,-732.458,0,0
219822,674.537,-739.352,0,0
220082,671.41,-746.607,0,0
220342,667.75,-754.636,0,0
220603,663.222,-762.697,0,0
220863,658.163,-770.519,0,0
221123,652.729,-777.895,0,0
221384,646.991,-785.157,0,0
221644,641.05,-792.196,0,0
221904,634.913,-799.363,0,0
222165,627.772,-806.586,0,0
222425,619.855,-813.071,0,0
222685,611.71,-818.979,0,0
222946,603.008,-824.538,0,0
223206,593.701,-829.264,0,0
223466,583.836,-832.99,0,0
223727,574.013,-835.259,0,0
223987,564.643,-836.297,0,0
224247,556.057,-836.447,0,0
224508,548.303,-835.982,0,0
224768,541.449,-835.122,0,0
225028,535.218,-833.875,0,0
225289,529.827,-832.668,0,0
225549,525.645,-831.552,0,0
225809,522.109,-830.761,0,0
226070,519.347,-830.761,0,0
226330,516.795,-831.644,0,0
226590,513.887,-833.164,0,0
226851,510.797,-834.995,0,0
227111,507.562,-837.279,0,0
227371,504.054,-839.853,0,0
227632,500.096,-842.722,0,0
227892,495.484,-845.596,0,0
228152,490.541,-848.368,0,0
228413,485.28,-850.824,0,0
228673,479.682,-853.196,0,0
228933,473.836,-855.021,0,0
229193,467.94,-856.453,0,0
229454,462.132,-857.669,0,0
229714,456.447,-858.678,0,0
229974,450.718,-859.488,0,0
230235,445.093,-860.107,0,0
230495,439.641,-860.729,0,0
230755,434.022,-861.248,0,0
231016,428.222,-861.535,0,0
231276,422.637,-861.407,0,0
231536,417.281,-861.253,0,0
231797,412.007,-860.965,0,0
232057,406.821,-860.598,0,0
232317,401.725,-860.18,0,0
232578,396.714,-859.733,0,0
232838,391.812,-859.208,0,0
233098,386.891,-858.762,0,0
233359,381.875,-858.104,0,0
233619,377.068,-857.375,0,0
233879,372.397,-856.527,0,0
234140,367.688,-855.87,0,0
234400,362.917,-855.039,0,0
234660.3,358.173,-854.035,0,0
234920.625,353.775,-853.112,0,0
235180.95,349.254,-852.087,0,0
235441.275,344.65,-851.347,0,0
235701.6,339.939,-850.605,0,0
235961.925,335.102,-849.657,0,0
236222.25,330.12,-848.574,0,0
236482.575,325.125,-847.167,0,0
236742.9,320.175,-845.537,0,0
237003.225,315.345,-843.914,0,0
237263.55,310.66,-842.2,0,0
237523.875,305.819,-840.47,0,0
237784.2,300.863,-838.443,0,0
238044.525,295.848,-836.237,0,0
238304.85,290.931,-833.714,0,0
238565.175,286.064,-830.887,0,0
238825.5,281.445,-827.711,0,0
239085.825,276.967,-824.419,0,0
239346.15,272.878,-820.774,0,0
239606.475,269.081,-817.098,0,0
239866.8,265.639,-813.308,0,0
240127.125,262.494,-809.786,0,0
240387.45,259.569,-806.089,0,0
240647.775,256.73,-802.631,0,0
240908.1,253.878,-799.242,0,0
241168.425,251.265,-795.71,0,0
241428.75,248.661,-792.13,0,0
241689.075,246.129,-788.46,0,0
241949.4,243.913,-784.579,0,0
242209.725,242.063,-780.726,0,0
242470.05,240.572,-776.993,0,0
242730.375,239.257,-773.61,0,0
242990.7,238.014,-770.354,0,0
243251.025,236.867,-767.152,0,0
243511.35,235.697,-764.079,0,0
243771.675,234.8,-761.097,0,0
244032.0,233.922,-758.318,0,0
244292.325,233.047,-755.648,0,0
244552.65,232.182,-753.171,0,0
244812.975,231.381,-750.659,0,0
245073.3,230.531,-748.372,0,0
245333.625,229.538,-746.142,0,0
245593.95,228.558,-744.01,0,0
245854.275,227.401,-741.794,0,0
246114.6,226.433,-739.564,0,0
246374.925,225.393,-737.255,0,0
246635.25,224.37,-734.969,0,0
246895.575,223.457,-732.6,0,0
247155.9,222.551,-730.358,0,0
247416.225,221.69,-728.111,0,0
247676.55,220.904,-725.878,0,0
247936.875,220.017,-723.566,0,0
248197.2,219.274,-721.169,0,0
248457.525,218.738,-718.68,0,0
248717.85,218.324,-716.299,0,0
248978.175,218.244,-714.124,0,0
249238.5,218.219,-712.163,0,0
249498.825,218.304,-710.439,0,0
249759.15,218.246,-708.946,0,0
250019.475,218.059,-707.592,0,0
250279.8,217.789,-706.452,0,0
250540,217.341,-705.464,0,0
250800,216.546,-704.515,0,0
251061,215.695,-703.557,0,0
251321,214.465,-702.547,0,0
251581,213.225,-701.322,0,0
251842,211.863,-700.037,0,0
252102,210.355,-698.643,0,0
252362,208.742,-697.092,0,0
252623,207.008,-695.281,0,0
252883,205.274,-693.212,0,0
253143,203.533,-690.873,0,0
253404,201.964,-688.258,0,0
253664,200.59,-685.477,0,0
253924,199.391,-682.466,0,0
254185,198.469,-679.372,0,0
254445,197.71,-676.193,0,0
254705,197.173,-672.992,0,0
254966,196.821,-669.705,0,0
255226,196.664,-666.378,0,0
255486,196.746,-663.019,0,0
255747,197.072,-659.582,0,0
256007,197.73,-656.187,0,0
256267,198.74,-652.769,0,0
256528,200.135,-649.587,0,0
256788,201.864,-646.684,0,0
257048,203.832,-644.179,0,0
257309,205.72,-642.067,0,0
257569,207.681,-640.178,0,0
257829,209.508,-638.624,0,0
258090,211.152,-637.156,0,0
258350,212.652,-635.696,0,0
258610,214.14,-634.197,0,0
258871,215.714,-632.564,0,0
259131,217.449,-630.839,0,0
259391,219.545,-629.11,0,0
259651,222.078,-627.527,0,0
259912,225.008,-626.348,0,0
260172,228.053,-625.638,0,0
260432,231.159,-625.475,0,0
260693,234.208,-625.702,0,0
260953,237.228,-626.306,0,0
261213,240.228,-627.37,0,0
261474,243.047,-629.006,0,0
261734,245.53,-631.204,0,0
261994,247.501,-633.67,0,0
262255,249.022,-636.382,0,0
262515,250.079,-639.3,0,0
262775,250.58,-642.308,0,0
263036,250.63,-645.256,0,0
263296,250.233,-648.104,0,0
263556,249.528,-650.808,0,0
263817,248.536,-653.403,0,0
264077,247.289,-655.962,0,0
264337,245.57,-658.397,0,0
264598,243.437,-660.672,0,0
264858,241.045,-662.6,0,0
265118,238.458,-664.062,0,0
265379,235.713,-665.308,0,0
265639,232.884,-666.249,0,0
265899,229.927,-666.767,0,0
266160,227.008,-667.049,0,0
266420,224.028,-667.045,0,0
266680.25,221.052,-666.729,0,0
266940.575,218.166,-666.019,0,0
267200.9,215.472,-665.073,0,0
267461.225,212.85,-663.924,0,0
267721.55,210.423,-662.576,0,0
267981.875,208.151,-660.992,0,0
268242.2,206.086,-659.271,0,0
268502.525,204.262,-657.43,0,0
268762.85,202.657,-655.522,0,0
269023.175,201.345,-653.521,0,0
269283.5,200.173,-651.686,0,0
269543.825,199.165,-649.953,0,0
269804.15,198.155,-648.235,0,0
270064.475,197.194,-646.463,0,0
270324.8,196.264,-644.621,0,0
270585.125,195.485,-642.659,0,0
270845.45,194.883,-640.675,0,0
271105.775,194.554,-638.692,0,0
271366.1,194.41,-636.811,0,0
271626.425,194.39,-635.164,0,0
271886.75,194.397,-633.53,0,0
272147.075,194.461,-632.039,0,0
272407.4,194.683,-630.708,0,0
272667.725,194.782,-629.623,0,0
272928.05,194.702,-628.527,0,0
273188.375,194.373,-627.376,0,0
273448.7,194.075,-626.036,0,0
273709.025,193.923,-624.53,0,0
273969.35,193.818,-622.872,0,0
274229.675,193.916,-621.178,0,0
274490.0,194.221,-619.466,0,0
274750.325,194.689,-617.756,0,0
275010.65,195.34,-616.093,0,0
275270.975,196.234,-614.574,0,0
275531.3,197.329,-613.061,0,0
275791.625,198.616,-611.755,0,0
276051.95,200.073,-610.683,0,0
276312.275,201.627,-609.837,0,0
276572.6,203.266,-609.245,0,0
276832.925,204.967,-608.881,0,0
277093.25,206.686,-608.878,0,0
277353.575,208.331,-609.176,0,0
277613.9,209.8,-609.713,0,0
277874.225,211.134,-610.455,0,0
278134.55,212.35,-611.309,0,0
278394.875,213.457,-612.359,0,0
278655.2,214.382,-613.645,0,0
278915.525,215.092,-615.123,0,0
279175.85,215.538,-616.662,0,0
279436.175,215.668,-618.257,0,0
279696.5,215.621,-619.948,0,0
279956.825,215.27,-621.587,0,0
280217.15,214.709,-623.206,0,0
280477.475,213.923,-624.785,0,0
280737.8,212.833,-626.187,0,0
280998.125,211.649,-627.448,0,0
281258.45,210.352,-628.557,0,0
281518.775,208.994,-629.538,0,0
281779.1,207.518,-630.492,0,0
282039.425,205.902,-631.334,0,0
282299.75,204.153,-631.971,0,0
282560,202.373,-632.44,0,0
282820,200.561,-632.743,0,0
283081,198.713,-632.899,0,0
283341,196.904,-632.935,0,0
283601,195.031,-632.854,0,0
283862,193.259,-632.621,0,0
284122,191.422,-632.316,0,0
284382,189.599,-631.892,0,0
284643,187.787,-631.292,0,0
284903,186.064,-630.62,0,0
285163,184.391,-629.774,0,0
285424,182.754,-628.852,0,0
285684,181.195,-627.792,0,0
285944,179.751,-626.609,0,0
286205,178.373,-625.358,0,0
286465,177.137,-624.003,0,0
286725,176.053,-622.634,0,0
286986,175.036,-621.17,0,0
287246,174.181,-619.642,0,0
287506,173.543,-618.082,0,0
287767,173.174,-616.49,0,0
288027,172.955,-615.074,0,0
288287,172.878,-613.824,0,0
288548,172.843,-612.718,0,0
288808,172.879,-611.757,0,0
289068,172.919,-610.933,0,0
289329,172.919,-610.251,0,0
289589,172.883,-609.67,0,0
289849,172.726,-609.185,0,0
290109,172.492,-608.658,0,0
290370,172.231,-608.14,0,0
290630,171.973,-607.612,0,0
290890,171.703,-607.133,0,0
291151,171.388,-606.731,0,0
291411,170.985,-606.319,0,0
291671,170.517,-605.89,0,0
291932,169.933,-605.389,0,0
292192,169.311,-604.796,0,0
292452,168.697,-604.069,0,0
292713,168.095,-603.187,0,0
292973,167.612,-602.182,0,0
293233,167.29,-601.112,0,0
293494,167.163,-600.014,0,0
293754,167.181,-598.917,0,0
294014,167.389,-597.923,0,0
294275,167.706,-596.979,0,0
294535,168.149,-596.213,0,0
294795,168.7,-595.578,0,0
295056,169.307,-595.122,0,0
295316,169.95,-594.832,0,0
295576,170.602,-594.723,0,0
295837,171.197,-594.807,0,0
296097,171.717,-595.093,0,0
296357,172.093,-595.504,0,0
296618,172.362,-596.025,0,0
296878,172.498,-596.613,0,0
297138,172.482,-597.278,0,0
297399,172.338,-597.999,0,0
297659,172.047,-598.745,0,0
297919,171.619,-599.52,0,0
298180,171.012,-600.263,0,0
298440,170.266,-600.945,0,0
298700.2,169.405,-601.546,0,0
298960.525,168.477,-602.073,0,0
299220.85,167.499,-602.549,0,0
299481.175,166.427,-602.952,0,0
299741.5,165.321,-603.282,0,0
300001.825,164.159,-603.545,0,0
300262.15,162.971,-603.745,0,0
300522.475,161.747,-603.911,0,0
300782.8,160.478,-603.99,0,0
301043.125,159.181,-603.988,0,0
301303.45,157.849,-603.947,0,0
301563.775,156.501,-603.844,0,0
301824.1,155.119,-603.65,0,0
302084.425,153.735,-603.353,0,0
302344.75,152.356,-602.965,0,0
302605.075,150.992,-602.512,0,0
302865.4,149.691,-601.997,0,0
303125.725,148.436,-601.439,0,0
303386.05,147.194,-600.837,0,0
303646.375,145.961,-600.224,0,0
303906.7,144.745,-599.579,0,0
304167.025,143.534,-598.855,0,0
304427.35,142.337,-598.094,0,0
304687.675,141.185,-597.283,0,0
304948.0,140.056,-596.405,0,0
305208.325,139.002,-595.472,0,0
305468.65,137.98,-594.49,0,0
305728.975,137.02,-593.506,0,0
305989.3,136.106,-592.497,0,0
306249.625,135.254,-591.425,0,0
306509.95,134.491,-590.322,0,0
306770.275,133.824,-589.243,0,0
307030.6,133.243,-588.182,0,0
307290.925,132.75,-587.162,0,0
307551.25,132.297,-586.219,0,0
307811.575,131.886,-585.302,0,0
308071.9,131.53,-584.461,0,0
308332.225,131.173,-583.696,0,0
308592.55,130.817,-582.993,0,0
308852.875,130.436,-582.364,0,0
309113.2,130.026,-581.782,0,0
309373.525,129.59,-581.24,0,0
309633.85,129.109,-580.714,0,0
309894.175,128.555,-580.228,0,0
310154.5,127.978,-579.744,0,0
310414.825,127.357,-579.263,0,0
310675.15,126.677,-578.778,0,0
310935.475,125.924,-578.249,0,0
311195.8,125.172,-577.701,0,0
311456.125,124.375,-577.155,0,0
311716.45,123.511,-576.574,0,0
311976.775,122.61,-575.927,0,0
312237.1,121.671,-575.204,0,0
312497.425,120.723,-574.39,0,0
312757.75,119.756,-573.497,0,0
313018.075,118.834,-572.523,0,0
313278.4,117.946,-571.449,0,0
313538.725,117.121,-570.304,0,0
313799.05,116.376,-569.115,0,0
314059.375,115.678,-567.884,0,0
314319.7,115.036,-566.617,0,0
314580,114.468,-565.288,0,0
314840,114,-563.947,0,0
315101,113.621,-562.501,0,0
315361,113.393,-561.163,0,0
315621,113.207,-559.758,0,0
315882,113.187,-558.44,0,0
316142,113.378,-557.15,0,0
316402,113.447,-556.102,0,0
316663,113.652,-555.007,0,0
316923,113.934,-554.082,0,0
317183,114.2,-553.215,0,0
317444,114.402,-552.492,0,0
317704,114.613,-551.858,0,0
317964,114.7,-551.259,0,0
318225,114.838,-550.666,0,0
318485,114.924,-550.16,0,0
318745,114.968,-549.571,0,0
319006,114.875,-549.001,0,0
319266,114.875,-548.526,0,0
319526,114.874,-548.01,0,0
319787,114.79,-547.406,0,0
320047,114.737,-546.85,0,0
320307,114.687,-546.274,0,0
320567,114.734,-545.741,0,0
320828,114.734,-545.188,0,0
321088,114.708,-544.62,0,0
321348,114.863,-543.995,0,0
321609,115.03,-543.515,0,0
321869,115.187,-543.122,0,0
322129,115.449,-542.677,0,0
322390,115.687,-542.461,0,0
322650,115.965,-542.261,0,0
322910,116.068,-542.207,0,0
323171,116.231,-542.229,0,0
323431,116.239,-542.266,0,0
323691,116.162,-542.359,0,0
323952,116.087,-542.644,0,0
324212,115.833,-542.802,0,0
324472,115.542,-542.96,0,0
324733,115.204,-543.069,0,0
324993,114.787,-543.278,0,0
325253,114.267,-543.377,0,0
325514,113.664,-543.522,0,0
325774,113.026,-543.623,0,0
326034,112.331,-543.731,0,0
326295,111.598,-543.716,0,0
326555,110.838,-543.586,0,0
326815,109.984,-543.562,0,0
327076,109.153,-543.44,0,0
327336,108.223,-543.244,0,0
327596,107.319,-543.021,0,0
327857,106.435,-542.72,0,0
328117,105.49,-542.329,0,0
328377,104.652,-541.922,0,0
328638,103.777,-541.567,0,0
328898,102.917,-541.057,0,0
329158,102.054,-540.496,0,0
329419,101.246,-540.038,0,0
329679,100.462,-539.441,0,0
329939,99.5956,-538.91,0,0
330200,98.7403,-538.401,0,0
330460,97.9725,-537.833,0,0
330720.15,97.1526,-537.244,0,0
330980.475,96.3195,-536.73,0,0
331240.8,95.4934,-536.112,0,0
331501.125,94.6734,-535.429,0,0
331761.45,93.7502,-534.804,0,0
332021.775,92.9237,-534.142,0,0
332282.1,92.0197,-533.442,0,0
332542.425,91.1678,-532.693,0,0
332802.75,90.3265,-531.876,0,0
333063.075,89.39,-531.022,0,0
333323.4,88.5549,-530.285,0,0
333583.725,87.7013,-529.353,0,0
333844.05,86.8462,-528.449,0,0
334104.375,85.9587,-527.463,0,0
334364.7,85.1242,-526.377,0,0
334625.025,84.3495,-525.346,0,0
334885.35,83.5513,-524.142,0,0
335145.675,82.9799,-523.059,0,0
335406.0,82.2273,-521.853,0,0
335666.325,81.6188,-520.722,0,0
335926.65,81.0311,-519.518,0,0
336186.975,80.4606,-518.238,0,0
336447.3,80.0196,-517.066,0,0
336707.625,79.5676,-515.857,0,0
336967.95,79.1209,-514.691,0,0
337228.275,78.6415,-513.475,0,0
337488.6,78.3426,-512.191,0,0
337748.925,77.9331,-510.961,0,0
338009.25,77.5869,-509.782,0,0
338269.575,77.3538,-508.44,0,0
338529.9,77.0375,-507.215,0,0
338790.225,76.7866,-505.898,0,0
339050.55,76.5909,-504.632,0,0
339310.875,76.428,-503.26,0,0
339571.2,76.3028,-501.944,0,0
339831.525,76.3172,-500.578,0,0
340091.85,76.2819,-499.233,0,0
340352.175,76.4498,-497.885,0,0
340612.5,76.678,-496.59,0,0
340872.825,76.9539,-495.311,0,0
341133.15,77.2854,-494.056,0,0
341393.475,77.6379,-492.898,0,0
341653.8,78.1155,-491.83,0,0
341914.125,78.6374,-490.843,0,0
342174.45,79.1543,-489.926,0,0
342434.775,79.7007,-489.059,0,0
342695.1,80.1917,-488.321,0,0
342955.425,80.6615,-487.735,0,0
343215.75,81.1631,-487.17,0,0
343476.075,81.6672,-486.603,0,0
343736.4,82.0499,-486.204,0,0
343996.725,82.4285,-485.778,0,0
344257.05,82.7549,-485.413,0,0
344517.375,82.9501,-485.076,0,0
344777.7,83.1511,-484.816,0,0
345038.025,83.1935,-484.53,0,0
345298.35,83.2769,-484.261,0,0
345558.675,83.2465,-483.899,0,0
345819.0,83.1715,-483.517,0,0
346079.325,83.1295,-483.114,0,0
346339.65,82.9684,-482.715,0,0
346599.975,82.9356,-482.258,0,0
346860,82.8494,-481.8,0,0
347121,82.7306,-481.32,0,0
347381,82.6074,-480.783,0,0
347641,82.4593,-480.279,0,0
347902,82.3111,-479.772,0,0
348162,82.182,-479.241,0,0
348422,82.0263,-478.694,0,0
348683,81.9107,-477.992,0,0
348943,81.7474,-477.348,0,0
349203,81.7004,-476.669,0,0
349464,81.6655,-475.926,0,0
349724,81.5887,-475.161,0,0
349984,81.6442,-474.484,0,0
350245,81.8101,-473.736,0,0
350505,81.9712,-473.062,0,0
350765,82.1251,-472.394,0,0
351025,82.4207,-471.76,0,0
351286,82.7472,-471.104,0,0
351546,83.0912,-470.675,0,0
351806,83.5097,-470.303,0,0
352067,83.7961,-470.004,0,0
352327,84.1286,-469.829,0,0
352587,84.3336,-469.71,0,0
352848,84.4517,-469.681,0,0
353108,84.4903,-469.652,0,0
353368,84.4446,-469.563,0,0
353629,84.2932,-469.557,0,0
353889,84.0595,-469.411,0,0
354149,83.7552,-469.388,0,0
354410,83.4206,-469.127,0,0
354670,83.0713,-468.892,0,0
354930,82.677,-468.571,0,0
355191,82.2935,-468.269,0,0
355451,81.991,-467.835,0,0
355711,81.6498,-467.433,0,0
355972,81.2628,-466.941,0,0
356232,80.9282,-466.455,0,0
356492,80.6109,-465.936,0,0
356753,80.3058,-465.413,0,0
357013,79.9621,-464.919,0,0
357273,79.6651,-464.337,0,0
357534,79.2953,-463.722,0,0
357794,78.949,-463.055,0,0
358054,78.7102,-462.381,0,0
358315,78.4484,-461.671,0,0
358575,78.263,-460.917,0,0
358835,78.089,-460.166,0,0
359096,78.0379,-459.462,0,0
359356,77.9213,-458.67,0,0
359616,77.8305,-458.052,0,0
359877,77.907,-457.311,0,0
360137,77.8933,-456.655,0,0
360397,77.9324,-456.02,0,0
360658,77.9794,-455.467,0,0
360918,77.9481,-454.948,0,0
361178,77.9845,-454.355,0,0
361438,77.9756,-453.793,0,0
361699,77.9734,-453.268,0,0
361959,77.8977,-452.689,0,0
362219,77.8462,-452.092,0,0
362480,77.8148,-451.514,0,0
362740.1,77.8425,-450.892,0,0
363000.425,77.9009,-450.224,0,0
363260.75,77.8744,-449.599,0,0
363521.075,78.0353,-448.975,0,0
363781.4,78.1561,-448.289,0,0
364041.725,78.3801,-447.664,0,0
364302.05,78.6799,-447.118,0,0
364562.375,78.9936,-446.63,0,0
364822.7,79.3769,-446.234,0,0
365083.025,79.6963,-445.931,0,0
365343.35,80.0461,-445.715,0,0
365603.675,80.2662,-445.64,0,0
365864.0,80.4923,-445.624,0,0
366124.325,80.4853,-445.602,0,0
366384.65,80.4145,-445.659,0,0
366644.975,80.318,-445.616,0,0
366905.3,80.0746,-445.573,0,0
367165.625,79.8015,-445.559,0,0
367425.95,79.3631,-445.405,0,0
367686.275,78.9423,-445.226,0,0
367946.6,78.4965,-445.003,0,0
368206.925,77.9472,-444.609,0,0
368467.25,77.4222,-444.205,0,0
368727.575,76.8588,-443.581,0,0
368987.9,76.4003,-442.929,0,0
369248.225,75.9142,-442.134,0,0
369508.55,75.5578,-441.238,0,0
369768.875,75.3785,-440.312,0,0
370029.2,75.3194,-439.35,0,0
370289.525,75.3626,-438.442,0,0
370549.85,75.5937,-437.561,0,0
370810.175,75.8579,-436.754,0,0
371070.5,76.254,-436.17,0,0
371330.825,76.6277,-435.578,0,0
371591.15,77.0304,-435.209,0,0
371851.475,77.394,-434.941,0,0
372111.8,77.6829,-434.788,0,0
372372.125,77.8563,-434.726,0,0
372632.45,77.9686,-434.707,0,0
372892.775,77.9427,-434.709,0,0
373153.1,77.7424,-434.68,0,0
373413.425,77.5037,-434.592,0,0
373673.75,77.2064,-434.478,0,0
373934.075,76.784,-434.247,0,0
374194.4,76.3783,-433.94,0,0
374454.725,75.97,-433.533,0,0
374715.05,75.5446,-433.09,0,0
374975.375,75.1676,-432.591,0,0
375235.7,74.8055,-432.068,0,0
375496.025,74.4536,-431.488,0,0
375756.35,74.1116,-430.833,0,0
376016.675,73.8385,-430.111,0,0
376277.0,73.5594,-429.364,0,0
376537.325,73.4045,-428.57,0,0
376797.65,73.2661,-427.843,0,0
377057.975,73.2613,-427.07,0,0
377318.3,73.2711,-426.312,0,0
377578.625,73.2954,-425.566,0,0
377838.95,73.3576,-424.891,0,0
378099.275,73.5172,-424.233,0,0
378359.6,73.5899,-423.625,0,0
378619.925,73.7744,-422.978,0,0
378880,73.9405,-422.424,0,0
379141,74.139,-421.851,0,0
379401,74.3612,-421.312,0,0
379661,74.623,-420.867,0,0
379922,74.7867,-420.481,0,0
380182,75.0078,-420.158,0,0
380442,75.1797,-419.81,0,0
380703,75.3092,-419.51,0,0
380963,75.4386,-419.204,0,0
381223,75.5014,-418.974,0,0
381483,75.5277,-418.685,0,0
381744,75.5678,-418.424,0,0
382004,75.5314,-418.081,0,0
382264,75.5739,-417.807,0,0
382525,75.5994,-417.514,0,0
382785,75.5919,-417.273,0,0
383045,75.5337,-417.022,0,0
383306,75.5189,-416.804,0,0
383566,75.3821,-416.571,0,0
383826,75.2633,-416.291,0,0
384087,75.1699,-416.014,0,0
384347,75.0246,-415.768,0,0
384607,74.8132,-415.532,0,0
384868,74.5638,-415.252,0,0
385128,74.3238,-414.874,0,0
385388,74.1069,-414.497,0,0
385649,73.8108,-414.097,0,0
385909,73.5435,-413.648,0,0
386169,73.3235,-413.206,0,0
386430,73.0659,-412.737,0,0
386690,72.8092,-412.234,0,0
386950,72.5609,-411.693,0,0
387211,72.3153,-411.206,0,0
387471,72.0947,-410.623,0,0
387731,71.8866,-410.079,0,0
387992,71.6566,-409.493,0,0
388252,71.4254,-408.852,0,0
388512,71.2129,-408.149,0,0
388773,71.0162,-407.488,0,0
389033,70.8559,-406.797,0,0
389293,70.6941,-406.028,0,0
389554,70.5899,-405.244,0,0
389814,70.5596,-404.39,0,0
390074,70.4725,-403.597,0,0
390335,70.585,-402.817,0,0
390595,70.6494,-401.974,0,0
390855,70.7698,-401.171,0,0
391116,70.938,-400.314,0,0
391376,71.1335,-399.552,0,0
391636,71.3979,-398.763,0,0
391896,71.691,-398.01,0,0
392157,72.0499,-397.236,0,0
392417,72.4447,-396.509,0,0
392677,72.8785,-395.844,0,0
392938,73.3657,-395.239,0,0
393198,73.8651,-394.711,0,0
393458,74.3621,-394.192,0,0
393719,74.8825,-393.751,0,0
393979,75.3666,-393.358,0,0
394239,75.8966,-393.026,0,0
394500,76.4152,-392.714,0,0
394760.05,76.8875,-392.447,0,0
395020.375,77.3401,-392.265,0,0
395280.7,77.7976,-392.076,0,0
395541.025,78.2307,-391.952,0,0
395801.35,78.6249,-391.86,0,0
396061.675,79.0203,-391.783,0,0
396322.0,79.3565,-391.748,0,0
396582.325,79.7139,-391.717,0,0
396842.65,80.0112,-391.743,0,0
397102.975,80.2704,-391.816,0,0
397363.3,80.546,-391.921,0,0
397623.625,80.7097,-392.021,0,0
397883.95,80.8208,-392.179,0,0
398144.275,80.8964,-392.301,0,0
398404.6,80.8795,-392.447,0,0
398664.925,80.8493,-392.604,0,0
398925.25,80.7281,-392.678,0,0
399185.575,80.6137,-392.764,0,0
399445.9,80.4374,-392.813,0,0
399706.225,80.2782,-392.818,0,0
399966.55,80.0583,-392.759,0,0
400006.6,79.9964,-392.746,0,0