File: Accelerated corrosion test data/2025-10-10_18-00-03/sample_2.csv
Frequency (Hz),Impedance (ohms),Phase (Radians),Temperature (C),Humidity (%)
10000.0,233.623,-11392.7,0,0
10260.325,228.363,-11105.7,0,0
10520.65,222.361,-10832.8,0,0
10780.975,217.322,-10573.5,0,0
11041.3,212.247,-10326.8,0,0
11301.625,207.949,-10090.4,0,0
11561.95,203.932,-9863.77,0,0
11822.275,202.591,-9655.05,0,0
12082.6,197.111,-9445.7,0,0
12342.925,191.088,-9249.76,0,0
12603.25,186.852,-9058.97,0,0
12863.575,183.528,-8875.63,0,0
13123.9,180.931,-8703.3,0,0
13384.225,176.523,-8533.44,0,0
13644.55,173.694,-8368.47,0,0
13904.875,187.896,-8215.15,0,0
14165.2,168.039,-8070.38,0,0
14425.525,164.268,-7921.48,0,0
14685.8,166.508,-7776.58,0,0
14946.175,163.09,-7648.63,0,0
15206.5,167.455,-7526.29,0,0
15466.825,163.173,-7391.45,0,0
15727.15,154.347,-7280.33,0,0
15987.5,150.62,-7159.24,0,0
16247.8,150.796,-7044.94,0,0
16508.125,145.588,-6935.58,0,0
16768.45,143.381,-6827.58,0,0
17028.775,141.834,-6724,0,0
17289.1,140.4,-6623.66,0,0
17549.425,137.133,-6524.51,0,0
17809.75,134.651,-6429.46,0,0
18070.075,132.931,-6336.88,0,0
18330.4,131.38,-6246.99,0,0
18590.725,130.63,-6158.59,0,0
18851.05,129.043,-6073.14,0,0
19111.375,130.367,-5991.1,0,0
19371.7,130.07,-5913.7,0,0
19632.025,125.073,-5836.52,0,0
19892.35,122.418,-5758.87,0,0
20152.675,120.685,-5683.36,0,0
20413.0,120.062,-5609.75,0,0
20673.3,119.093,-5537.33,0,0
20933.65,119.586,-5466.35,0,0
21193.975,124.349,-5398.97,0,0
21454.3,131.105,-5336.25,0,0
21714.625,128.674,-5281.01,0,0
21974.9,122.263,-5216.68,0,0
22235.275,120.434,-5162.66,0,0
22495.6,116.126,-5102.17,0,0
22755.925,113.023,-5041.39,0,0
23016.25,113.664,-4986.12,0,0
23276.6,114.002,-4931.36,0,0
23536.9,109.959,-4876.89,0,0
23797.225,108.338,-4822.84,0,0
24057.55,107.644,-4771.53,0,0
24317.875,104.27,-4721.23,0,0
24578.2,102.729,-4670.51,0,0
24838.525,101.26,-4620.69,0,0
25098.85,100.206,-4571.88,0,0
25359.175,98.9021,-4524.95,0,0
25619.5,98.6659,-4478.57,0,0
25879.8,97.1823,-4432.22,0,0
26140.1,97.2929,-4387.97,0,0
26400.5,96.7859,-4344.43,0,0
26660.8,97.0069,-4302.79,0,0
26921.1,96.1996,-4260.54,0,0
27181.4,94.5412,-4221.39,0,0
27441.8,93.5725,-4180.98,0,0
27702.1,91.5439,-4140.69,0,0
27962.4,90.9781,-4100.97,0,0
28222.7,91.2022,-4062.15,0,0
28483.1,90.5746,-4024.93,0,0
28743.4,89.9625,-3987.92,0,0
29003.7,90.8095,-3950.65,0,0
29264,91.0697,-3914.51,0,0
29524.4,93.8978,-3879.11,0,0
29784.7,97.2419,-3849.66,0,0
30045,93.3909,-3818.46,0,0
30305.3,94.8222,-3785.43,0,0
30565.7,91.6149,-3757.72,0,0
30826,88.6861,-3725.3,0,0
31086.3,87.4093,-3693.45,0,0
31346.6,85.6177,-3662.13,0,0
31607,85.6539,-3631.25,0,0
31867.3,84.0862,-3602.39,0,0
32127.6,82.8717,-3571.8,0,0
32387.9,82.9279,-3541.5,0,0
32648.3,83.9588,-3513.58,0,0
32908.6,83.4679,-3487.69,0,0
33168.9,82.4984,-3460.55,0,0
33429.2,80.4084,-3433.43,0,0
33689.6,80.2574,-3406.61,0,0
33949.9,79.5175,-3380.67,0,0
34210.2,77.9213,-3355.02,0,0
34470.5,77.1055,-3328.97,0,0
34730.9,76.2094,-3303.19,0,0
34991.2,75.9765,-3278.19,0,0
35251.5,75.4182,-3253.7,0,0
35511.8,74.7629,-3229.48,0,0
35772.2,74.4925,-3205.72,0,0
36032.5,73.7662,-3182.28,0,0
36292.8,73.1155,-3159.03,0,0
36553.1,72.6102,-3136.21,0,0
36813.5,72.2584,-3113.62,0,0
37073.8,71.8902,-3091.34,0,0
37334.1,71.4715,-3069.02,0,0
37594.4,71.3241,-3047.77,0,0
37854.8,70.8942,-3026.22,0,0
38115.1,70.5594,-3005.91,0,0
38375.4,69.9012,-2985.07,0,0
38635.7,69.5631,-2964.38,0,0
38896.1,69.308,-2944.08,0,0
39156.4,68.6757,-2924.41,0,0
39416.7,68.3007,-2904.7,0,0
39677,67.9785,-2885.12,0,0
39937.4,67.6105,-2865.94,0,0
40197.7,67.2053,-2846.92,0,0
40458,66.5929,-2828.16,0,0
40718.3,66.7679,-2809.33,0,0
40978.7,66.5209,-2791.32,0,0
41239,66.085,-2773.08,0,0
41499.3,66.1885,-2755.54,0,0
41759.6,65.1568,-2738.04,0,0
42020,65.6336,-2720.64,0,0
42280.275,65.6286,-2703.75,0,0
42540.6,64.9133,-2687.07,0,0
42800.925,64.5316,-2670.3,0,0
43061.25,64.3738,-2653.85,0,0
43321.575,63.983,-2637.24,0,0
43581.9,63.9377,-2621.09,0,0
43842.225,63.6443,-2605.32,0,0
44102.55,63.3806,-2589.33,0,0
44362.875,63.2986,-2573.88,0,0
44623.2,62.9622,-2558.6,0,0
44883.525,62.3049,-2543.29,0,0
45143.85,62.3405,-2527.73,0,0
45404.175,62.454,-2512.9,0,0
45664.5,62.2673,-2498.45,0,0
45924.825,61.9008,-2483.64,0,0
46185.15,62.3033,-2469.56,0,0
46445.475,61.7102,-2455.64,0,0
46705.8,61.2522,-2441.43,0,0
46966.125,61.2568,-2427,0,0
47226.45,61.1788,-2413.07,0,0
47486.775,61.5632,-2399.8,0,0
47747.1,60.9736,-2386.59,0,0
48007.425,60.9664,-2372.68,0,0
48267.75,61.4183,-2359.25,0,0
48528.075,61.9535,-2347.16,0,0
48788.4,61.3812,-2335.03,0,0
49048.725,60.9048,-2322.65,0,0
49309.05,60.4265,-2310.35,0,0
49569.375,59.781,-2297.94,0,0
49829.7,59.2219,-2285.53,0,0
50090.025,58.7574,-2273.02,0,0
50350.35,58.3021,-2260.82,0,0
50610.675,57.983,-2248.45,0,0
50871.0,58.1463,-2236.36,0,0
51131.325,57.8554,-2224.98,0,0
51391.65,57.6013,-2213.43,0,0
51651.975,56.9759,-2201.69,0,0
51912.3,56.6628,-2190.31,0,0
52172.625,56.1988,-2178.65,0,0
52432.95,56.0278,-2167.31,0,0
52693.275,55.7852,-2156.02,0,0
52953.6,55.4687,-2144.75,0,0
53213.925,55.3115,-2133.66,0,0
53474.25,55.2813,-2122.75,0,0
53734.575,55.0063,-2111.81,0,0
53994.9,54.7968,-2101,0,0
54255.225,54.6568,-2090.35,0,0
54515.55,54.6382,-2079.68,0,0
54775.875,54.605,-2069.26,0,0
55036.2,54.5192,-2058.92,0,0
55296.525,54.3792,-2048.63,0,0
55556.85,54.3338,-2038.44,0,0
55817.175,54.3149,-2028.33,0,0
56077.5,54.2411,-2018.4,0,0
56337.825,54.2745,-2008.51,0,0
56598.15,54.0784,-1998.58,0,0
56858.475,54.1503,-1988.7,0,0
57118.8,54.2752,-1979.15,0,0
57379.125,54.2741,-1969.71,0,0
57639.45,54.2683,-1960.18,0,0
57899.775,54.2807,-1950.75,0,0
58160.1,54.4531,-1941.61,0,0
58420.4,54.317,-1932.39,0,0
58680.7,54.4016,-1923.09,0,0
58941.1,54.4374,-1913.85,0,0
59201.4,54.6084,-1904.81,0,0
59461.7,54.849,-1895.79,0,0
59722,55.279,-1886.89,0,0
59982.4,55.7355,-1877.98,0,0
60242.7,56.5448,-1869.78,0,0
60503,56.6416,-1861.84,0,0
60763.3,56.5519,-1853.49,0,0
61023.7,56.8148,-1844.87,0,0
61284,57.7003,-1836.7,0,0
61544.3,58.4053,-1829.1,0,0
61804.6,58.9927,-1821.7,0,0
62065,59.1051,-1815.11,0,0
62325.3,58.1964,-1807.98,0,0
62585.6,58.0167,-1800.24,0,0
62845.9,57.8017,-1793.11,0,0
63106.3,57.1998,-1786.33,0,0
63366.6,55.9582,-1778.75,0,0
63626.9,55.3184,-1770.98,0,0
63887.2,54.5831,-1763.38,0,0
64147.6,54.0467,-1755.61,0,0
64407.9,53.4903,-1748.14,0,0
64668.2,53.1264,-1740.36,0,0
64928.5,52.7151,-1733.11,0,0
65188.9,51.7089,-1725.6,0,0
65449.2,50.8581,-1717.44,0,0
65709.5,50.7235,-1709.13,0,0
65969.8,50.9439,-1701.4,0,0
66230.2,51.1355,-1693.82,0,0
66490.5,51.2586,-1686.29,0,0
66750.8,51.3356,-1679.19,0,0
67011.1,51.209,-1671.7,0,0
67271.5,51.5333,-1664.13,0,0
67531.8,52.2253,-1657,0,0
67792.1,52.6102,-1650.1,0,0
68052.4,53.2947,-1643.28,0,0
68312.8,53.7844,-1637.01,0,0
68573.1,53.7869,-1630.49,0,0
68833.4,54.1507,-1623.68,0,0
69093.7,54.996,-1617.29,0,0
69354.1,55.4455,-1611.64,0,0
69614.4,55.6469,-1605.59,0,0
69874.7,56.2327,-1600.05,0,0
70135,55.9575,-1594.96,0,0
70395.4,55.4368,-1589.65,0,0
70655.7,54.5064,-1584.21,0,0
70916,53.4549,-1578.23,0,0
71176.3,52.7687,-1572,0,0
71436.7,52.0726,-1566.06,0,0
71697,51.4849,-1560.15,0,0
71957.3,50.6208,-1554.45,0,0
72217.6,49.2047,-1548.36,0,0
72478,48.1567,-1541.64,0,0
72738.3,47.4208,-1535.04,0,0
72998.6,46.8637,-1528.25,0,0
73258.9,46.6354,-1521.79,0,0
73519.3,46.1783,-1515.48,0,0
73779.6,45.5562,-1508.97,0,0
74039.9,45.3991,-1502.29,0,0
74300.225,45.3438,-1495.63,0,0
74560.55,45.4166,-1489.36,0,0
74820.875,45.3519,-1482.93,0,0
75081.2,45.4986,-1476.64,0,0
75341.525,45.7372,-1470.4,0,0
75601.85,46.0446,-1464.26,0,0
75862.175,46.2827,-1458.26,0,0
76122.5,46.6917,-1452.21,0,0
76382.825,47.1927,-1446.36,0,0
76643.15,47.6063,-1440.57,0,0
76903.475,48.0837,-1434.81,0,0
77163.8,48.5715,-1429.13,0,0
77424.125,49.2723,-1423.48,0,0
77684.45,49.9341,-1418.13,0,0
77944.775,50.6429,-1412.81,0,0
78205.1,51.472,-1407.78,0,0
78465.425,52.2236,-1402.97,0,0
78725.75,52.7734,-1398.45,0,0
78986.075,53.2598,-1393.88,0,0
79246.4,53.5543,-1389.67,0,0
79506.725,53.6916,-1385.34,0,0
79767.05,53.4797,-1381.34,0,0
80027.375,52.9511,-1377.06,0,0
80287.7,52.0756,-1372.55,0,0
80548.025,51.3759,-1367.61,0,0
80808.35,50.7326,-1362.7,0,0
81068.675,50.2789,-1357.57,0,0
81329.0,49.8521,-1352.55,0,0
81589.325,49.5046,-1347.44,0,0
81849.65,49.1239,-1342.4,0,0
82109.975,48.8823,-1337.25,0,0
82370.3,48.6449,-1332.15,0,0
82630.625,48.4606,-1327.05,0,0
82890.95,48.3896,-1321.81,0,0
83151.275,48.4022,-1316.74,0,0
83411.6,48.5688,-1311.71,0,0
83671.925,48.7286,-1306.8,0,0
83932.25,48.9129,-1301.91,0,0
84192.575,49.1439,-1297.15,0,0
84452.9,49.3374,-1292.39,0,0
84713.225,49.4614,-1287.85,0,0
84973.55,49.5213,-1283.12,0,0
85233.875,49.5601,-1278.39,0,0
85494.2,49.8514,-1273.64,0,0
85754.525,50.3199,-1269.03,0,0
86014.85,50.6033,-1264.73,0,0
86275.175,50.8139,-1260.37,0,0
86535.5,50.9403,-1256.17,0,0
86795.825,51.0095,-1251.8,0,0
87056.15,51.1189,-1247.39,0,0
87316.475,51.3694,-1243.01,0,0
87576.8,51.6717,-1239.09,0,0
87837.125,51.5975,-1234.98,0,0
88097.45,51.5544,-1230.73,0,0
88357.775,51.6081,-1226.34,0,0
88618.1,51.7789,-1222.44,0,0
88878.425,51.2628,-1218.36,0,0
89138.75,51.1681,-1213.6,0,0
89399.075,51.5009,-1209.26,0,0
89659.4,51.7161,-1204.83,0,0
89919.725,52.2616,-1200.81,0,0
90180,52.4844,-1197.07,0,0
90440.4,52.2049,-1193.25,0,0
90700.7,51.9257,-1189.09,0,0
90961,51.7661,-1184.52,0,0
91221.3,52.3156,-1180.01,0,0
91481.7,52.8495,-1176.17,0,0
91742,52.9705,-1172.3,0,0
92002.3,53.0871,-1168.04,0,0
92262.6,53.5738,-1163.8,0,0
92523,54.2875,-1159.91,0,0
92783.3,54.736,-1156.36,0,0
93043.6,55.1814,-1152.55,0,0
93303.9,55.7195,-1148.99,0,0
93564.3,56.0668,-1145.78,0,0
93824.6,56.2843,-1142.38,0,0
94084.9,56.5117,-1139.37,0,0
94345.2,56.1674,-1136.08,0,0
94605.6,55.6236,-1132.43,0,0
94865.9,55.7458,-1128.62,0,0
95126.2,55.8106,-1125.29,0,0
95386.5,55.3157,-1121.79,0,0
95646.9,54.8242,-1117.68,0,0
95907.2,54.9044,-1113.27,0,0
96167.5,55.6634,-1109.04,0,0
96427.8,56.7035,-1105.49,0,0
96688.2,57.3087,-1102.51,0,0
96948.5,57.6715,-1099.26,0,0
97208.8,58.2696,-1096.07,0,0
97469.1,58.8728,-1093.39,0,0
97729.5,58.9141,-1090.98,0,0
97989.8,58.7508,-1088.26,0,0
98250.1,58.3449,-1085.53,0,0
98510.4,58.0764,-1082.53,0,0
98770.8,57.9433,-1079.85,0,0
99031.1,57.3987,-1077.34,0,0
99291.4,56.4773,-1074.79,0,0
99551.7,55.1728,-1071.85,0,0
99812.1,53.7876,-1068.32,0,0
100072,52.8722,-1064.35,0,0
100333,52.3493,-1060.47,0,0
100593,52.1416,-1056.95,0,0
100853,51.5722,-1053.71,0,0
101114,50.7513,-1050.32,0,0
101374,49.8539,-1046.74,0,0
101634,48.8523,-1042.93,0,0
101895,48.0527,-1038.77,0,0
102155,47.4884,-1034.51,0,0
102415,47.2529,-1030.3,0,0
102676,47.0005,-1026.3,0,0
102936,46.6066,-1022.16,0,0
103196,46.4805,-1017.94,0,0
103457,46.4597,-1013.75,0,0
103717,46.374,-1009.5,0,0
103977,46.6267,-1005.04,0,0
104238,47.1566,-1000.71,0,0
104498,47.9043,-996.528,0,0
104758,48.8009,-992.575,0,0
105019,49.7409,-988.908,0,0
105279,50.5197,-985.392,0,0
105539,51.3405,-981.824,0,0
105800,52.3341,-978.274,0,0
106060,53.5542,-974.997,0,0
106320.175,54.6671,-972.156,0,0
106580.5,55.655,-969.365,0,0
106840.825,56.6242,-966.9,0,0
107101.15,57.1968,-964.688,0,0
107361.475,57.522,-962.332,0,0
107621.8,57.8064,-960.015,0,0
107882.125,57.9769,-957.757,0,0
108142.45,57.8188,-955.7,0,0
108402.775,57.2181,-953.336,0,0
108663.1,56.7353,-950.548,0,0
108923.425,56.3863,-947.857,0,0
109183.75,55.8374,-945.223,0,0
109444.075,55.1344,-942.245,0,0
109704.4,54.5427,-939.162,0,0
109964.725,53.9397,-936.075,0,0
110225.05,53.2975,-932.732,0,0
110485.375,52.9002,-929.259,0,0
110745.7,52.4022,-925.614,0,0
111006.025,52.3196,-922.019,0,0
111266.35,52.23,-918.424,0,0
111526.675,52.3178,-915.003,0,0
111787.0,52.1516,-911.422,0,0
112047.325,52.3083,-907.909,0,0
112307.65,52.4307,-904.513,0,0
112567.975,52.6138,-901.099,0,0
112828.3,52.7379,-897.565,0,0
113088.625,53.0255,-894.106,0,0
113348.95,53.3481,-890.663,0,0
113609.275,53.7504,-887.238,0,0
113869.6,54.1582,-883.925,0,0
114129.925,54.5316,-880.59,0,0
114390.25,55.0483,-877.249,0,0
114650.575,55.539,-873.942,0,0
114910.9,56.0736,-870.693,0,0
115171.225,56.7198,-867.459,0,0
115431.55,57.4022,-864.264,0,0
115691.875,58.0466,-861.154,0,0
115952.2,58.681,-858.145,0,0
116212.525,59.4107,-855.076,0,0
116472.85,60.1372,-852.064,0,0
116733.175,60.9924,-849.172,0,0
116993.5,61.7356,-846.389,0,0
117253.825,62.47,-843.635,0,0
117514.15,63.1671,-840.873,0,0
117774.475,63.9518,-838.121,0,0
118034.8,64.8718,-835.505,0,0
118295.125,65.6857,-833.105,0,0
118555.45,66.3527,-830.77,0,0
118815.775,66.9742,-828.304,0,0
119076.1,67.7446,-825.978,0,0
119336.425,68.3081,-823.872,0,0
119596.75,68.7122,-821.682,0,0
119857.075,69.3901,-819.514,0,0
120117.4,69.746,-817.495,0,0
120377.725,69.9939,-815.516,0,0
120638.05,70.1123,-813.595,0,0
120898.375,69.9887,-811.596,0,0
121158.7,69.7683,-809.442,0,0
121419.025,69.5302,-807.103,0,0
121679.35,69.3364,-804.717,0,0
121939.675,69.1603,-802.28,0,0
122200.0,68.9113,-799.855,0,0
122460,68.636,-797.284,0,0
122721,68.3857,-794.6,0,0
122981,68.238,-791.894,0,0
123241,68.0788,-789.211,0,0
123502,67.9308,-786.489,0,0
123762,67.7957,-783.743,0,0
124022,67.6304,-780.937,0,0
124283,67.4844,-778.047,0,0
124543,67.3918,-775.136,0,0
124803,67.3444,-772.164,0,0
125064,67.3221,-769.186,0,0
125324,67.3901,-766.113,0,0
125584,67.5189,-763.073,0,0
125845,67.7164,-760.063,0,0
126105,67.9464,-756.998,0,0
126365,68.2505,-753.942,0,0
126626,68.5511,-750.942,0,0
126886,68.9102,-747.935,0,0
127146,69.3383,-745.003,0,0
127406,69.846,-741.924,0,0
127667,70.447,-739.035,0,0
127927,71.05,-736.267,0,0
128187,71.5789,-733.535,0,0
128448,72.1296,-730.787,0,0
128708,72.673,-728.045,0,0
128968,73.2372,-725.382,0,0
129229,73.7875,-722.759,0,0
129489,74.2723,-720.228,0,0
129749,74.6539,-717.673,0,0
130010,75.026,-715,0,0
130270,75.5283,-712.318,0,0
130530,75.9883,-709.753,0,0
130791,76.4435,-707.13,0,0
131051,76.8933,-704.544,0,0
131311,77.3417,-702.027,0,0
131572,77.706,-699.52,0,0
131832,78.0148,-696.975,0,0
132092,78.3034,-694.469,0,0
132353,78.5085,-691.901,0,0
132613,78.6282,-689.214,0,0
132873,78.8325,-686.461,0,0
133134,79.0788,-683.578,0,0
133394,79.3881,-680.717,0,0
133654,79.7669,-677.858,0,0
133915,80.1851,-675.057,0,0
134175,80.5718,-672.274,0,0
134435,80.8725,-669.467,0,0
134696,81.1272,-666.528,0,0
134956,81.4848,-663.536,0,0
135216,81.9505,-660.544,0,0
135477,82.3902,-657.497,0,0
135737,82.9609,-654.439,0,0
135997,83.5475,-651.397,0,0
136258,84.1513,-648.357,0,0
136518,84.8553,-645.368,0,0
136778,85.4896,-642.458,0,0
137039,86.0714,-639.469,0,0
137299,86.6947,-636.374,0,0
137559,87.4284,-633.281,0,0
137819,88.251,-630.239,0,0
138080,89.0842,-627.303,0,0
138340.125,89.8104,-624.398,0,0
138600.45,90.4661,-621.381,0,0
138860.775,91.1249,-618.321,0,0
139121.1,91.8439,-615.147,0,0
139381.425,92.6081,-611.987,0,0
139641.75,93.4226,-608.839,0,0
139902.075,94.1446,-605.622,0,0
140162.4,94.803,-602.279,0,0
140422.725,95.538,-598.685,0,0
140683.05,96.5487,-594.926,0,0
140943.375,97.7713,-591.198,0,0
141203.7,99.112,-587.489,0,0
141464.025,100.599,-583.719,0,0
141724.35,102.3,-580.021,0,0
141984.675,104.146,-576.389,0,0
142245.0,106.15,-572.842,0,0
142505.325,108.243,-569.423,0,0
142765.65,110.408,-566.038,0,0
143025.975,112.798,-562.758,0,0
143286.3,115.202,-559.811,0,0
143546.625,117.455,-556.966,0,0
143806.95,119.672,-554.065,0,0
144067.275,121.981,-551.192,0,0
144327.6,124.302,-548.387,0,0
144587.925,126.563,-545.683,0,0
144848.25,128.764,-542.844,0,0
145108.575,131.156,-539.882,0,0
145368.9,133.721,-537.056,0,0
145629.225,136.321,-534.355,0,0
145889.55,138.951,-531.704,0,0
146149.875,141.555,-529.111,0,0
146410.2,144.17,-526.436,0,0
146670.525,146.928,-523.681,0,0
146930.85,149.882,-520.969,0,0
147191.175,152.933,-518.334,0,0
147451.5,156.177,-515.692,0,0
147711.825,159.667,-513.239,0,0
147972.15,163.163,-511.012,0,0
148232.475,166.597,-508.775,0,0
148492.8,170.275,-506.435,0,0
148753.125,174.257,-504.216,0,0
149013.45,178.484,-502.14,0,0
149273.775,183.08,-500.185,0,0
149534.1,188.151,-498.702,0,0
149794.425,193.458,-497.795,0,0
150054.75,198.735,-497.611,0,0
150315.075,203.891,-497.802,0,0
150575.4,209.166,-498.531,0,0
150835.725,214.36,-500.082,0,0
151096.05,218.979,-502.498,0,0
151356.375,222.714,-505.205,0,0
151616.7,226.069,-507.927,0,0
151877.025,229.106,-511.14,0,0
152137.35,231.166,-514.748,0,0
152397.675,232.329,-518.025,0,0
152658.0,233.041,-520.882,0,0
152918.325,233.469,-523.486,0,0
153178.65,233.647,-525.821,0,0
153438.975,233.699,-528.028,0,0
153699.3,233.454,-530.307,0,0
153959.625,232.637,-532.428,0,0
154219.95,231.275,-534.01,0,0
154480,229.866,-534.872,0,0
154741,228.69,-535.459,0,0
155001,227.5,-535.822,0,0
155261,226.304,-536.003,0,0
155522,225.247,-535.878,0,0
155782,224.284,-535.725,0,0
156042,223.29,-535.717,0,0
156303,222.017,-535.459,0,0
156563,220.663,-534.759,0,0
156823,219.652,-533.793,0,0
157084,218.574,-532.938,0,0
157344,217.238,-531.879,0,0
157604,216.027,-530.154,0,0
157864,215.252,-528.068,0,0
158125,214.914,-526.023,0,0
158385,214.996,-524.116,0,0
158645,215.263,-522.338,0,0
158906,215.527,-520.798,0,0
159166,215.802,-519.086,0,0
159426,216.28,-517.794,0,0
159687,216.724,-516.363,0,0
159947,217.323,-515.167,0,0
160207,217.776,-514.15,0,0
160468,218.017,-513.119,0,0
160728,218.104,-511.986,0,0
160988,218.185,-510.653,0,0
161249,218.614,-508.94,0,0
161509,219.735,-507.309,0,0
161769,221.244,-506.46,0,0
162030,222.391,-505.94,0,0
162290,223.65,-505.958,0,0
162550,224.55,-506.488,0,0
162811,224.892,-507.453,0,0
163071,224.573,-508.723,0,0
163331,223.301,-509.876,0,0
163592,221.438,-510.439,0,0
163852,219.334,-510.341,0,0
164112,217.152,-510.197,0,0
164373,214.362,-509.608,0,0
164633,211.657,-508.227,0,0
164893,208.974,-506.412,0,0
165154,206.566,-504.314,0,0
165414,204.354,-502.049,0,0
165674,201.828,-499.672,0,0
165935,199.303,-496.543,0,0
166195,197.296,-493.101,0,0
166455,195.241,-489.618,0,0
166716,193.397,-485.613,0,0
166976,191.999,-481.392,0,0
167236,190.965,-477.087,0,0
167497,190.226,-472.915,0,0
167757,189.443,-468.616,0,0
168017,188.783,-464.196,0,0
168277,188.573,-459.423,0,0
168538,188.651,-454.665,0,0
168798,189.037,-450.054,0,0
169058,189.769,-445.629,0,0
169319,190.483,-441.446,0,0
169579,191.022,-437.334,0,0
169839,191.653,-433.02,0,0
170100,192.606,-428.6,0,0
170360.075,193.531,-424.404,0,0
170620.4,194.421,-420.31,0,0
170880.725,195.118,-416.062,0,0
171141.05,195.67,-411.425,0,0
171401.375,196.701,-406.299,0,0
171661.7,198.272,-401.216,0,0
171922.025,200.098,-396.183,0,0
172182.35,202.105,-391.454,0,0
172442.675,204.035,-386.769,0,0
172703.0,206.09,-381.865,0,0
172963.325,208.36,-376.882,0,0
173223.65,210.868,-371.871,0,0
173483.975,213.617,-366.883,0,0
173744.3,216.522,-361.844,0,0
174004.625,219.746,-356.748,0,0
174264.95,223.21,-351.728,0,0
174525.275,227.094,-346.607,0,0
174785.6,231.379,-341.645,0,0
175045.925,236.106,-336.871,0,0
175306.25,241.159,-332.531,0,0
175566.575,246.557,-328.54,0,0
175826.9,252.158,-325.084,0,0
176087.225,257.738,-322.027,0,0
176347.55,263.372,-319.597,0,0
176607.875,268.565,-317.691,0,0
176868.2,273.202,-315.614,0,0
177128.525,277.878,-313.164,0,0
177388.85,283.112,-310.642,0,0
177649.175,289.051,-308.506,0,0
177909.5,295.295,-307.392,0,0
178169.825,300.982,-307.43,0,0
178430.15,305.725,-307.841,0,0
178690.475,310.041,-308.236,0,0
178950.8,313.847,-308.862,0,0
179211.125,316.912,-309.564,0,0
179471.45,319.109,-310.044,0,0
179731.775,321.919,-309.06,0,0
179992.1,323.561,-309.247,0,0
180252.425,324.462,-308.552,0,0
180512.75,325.46,-307.015,0,0
180773.075,326.625,-305.099,0,0
181033.4,327.45,-302.906,0,0
181293.725,328.079,-299.636,0,0
181554.05,329.347,-295.344,0,0
181814.375,331.385,-290.545,0,0
182074.7,334.366,-285.46,0,0
182335.025,338.394,-280.679,0,0
182595.35,342.548,-276.684,0,0
182855.675,346.342,-272.717,0,0
183116.0,350.221,-268.413,0,0
183376.325,354.45,-263.526,0,0
183636.65,359.429,-258.463,0,0
183896.975,365.264,-253.692,0,0
184157.3,371.122,-249.401,0,0
184417.625,377.149,-244.984,0,0
184677.95,383.725,-240.396,0,0
184938.275,391.031,-235.986,0,0
185198.6,398.911,-232.146,0,0
185458.925,406.973,-228.958,0,0
185719.25,415.145,-225.964,0,0
185979.575,423.561,-223.577,0,0
186239.9,431.991,-221.495,0,0
186500,440.509,-219.961,0,0
186761,448.768,-218.947,0,0
187021,456.461,-218.01,0,0
187281,464.114,-216.444,0,0
187542,472.448,-214.56,0,0
187802,481.442,-213.151,0,0
188062,490.717,-212.489,0,0
188322,499.735,-212.313,0,0
188583,508.731,-212.194,0,0
188843,517.743,-212.665,0,0
189103,526.447,-213.479,0,0
189364,534.529,-214.292,0,0
189624,542.383,-214.67,0,0
189884,550.383,-214.449,0,0
190145,559.022,-213.598,0,0
190405,568.722,-213.107,0,0
190665,578.578,-213.349,0,0
190926,588.3,-213.516,0,0
191186,598.473,-213.261,0,0
191446,609.793,-213.067,0,0
191707,621.958,-213.668,0,0
191967,634.426,-214.969,0,0
192227,647.429,-216.804,0,0
192488,660.86,-219.395,0,0
192748,674.706,-222.804,0,0
193008,688.917,-227.018,0,0
193269,703.613,-232.202,0,0
193529,718.651,-238.995,0,0
193789,733.228,-247.369,0,0
194050,746.986,-256.989,0,0
194310,759.759,-267.448,0,0
194570,771.678,-278.236,0,0
194831,783.188,-289.367,0,0
195091,794.294,-301.042,0,0
195351,804.903,-313.459,0,0
195612,814.737,-326.383,0,0
195872,823.794,-339.733,0,0
196132,832.127,-353.311,0,0
196393,839.703,-366.994,0,0
196653,846.77,-380.71,0,0
196913,853.395,-394.318,0,0
197174,859.811,-408.062,0,0
197434,866.145,-421.982,0,0
197694,872.226,-436.289,0,0
197955,878.296,-451.082,0,0
198215,884.205,-466.768,0,0
198475,889.297,-483.841,0,0
198735,892.745,-501.609,0,0
198996,894.486,-519.304,0,0
199256,895.059,-536.408,0,0
199516,894.993,-552.644,0,0
199777,894.84,-568.38,0,0
200037,894.898,-584.245,0,0
200297,894.781,-600.907,0,0
200558,893.809,-618.431,0,0
200818,891.559,-636.228,0,0
201078,887.957,-654.096,0,0
201339,883.214,-671.865,0,0
201599,877.096,-689.24,0,0
201859,869.587,-705.978,0,0
202120,861.176,-721.566,0,0
202380.025,852.458,-736.166,0,0
202640.35,843.252,-750.414,0,0
202900.675,833.249,-764.372,0,0
203161.0,822.024,-777.649,0,0
203421.325,809.982,-789.335,0,0
203681.65,797.791,-799.409,0,0
203941.975,786.214,-808.267,0,0
204202.3,775.213,-816.778,0,0
204462.625,763.923,-824.973,0,0
204722.95,752.882,-832.605,0,0
204983.275,742.082,-840.023,0,0
205243.6,731.033,-847.629,0,0
205503.925,718.792,-855.012,0,0
205764.25,705.628,-860.826,0,0
206024.575,692.553,-865.047,0,0
206284.9,680.283,-867.989,0,0
206545.225,668.633,-870.511,0,0
206805.55,657.484,-872.448,0,0
207065.875,646.653,-873.727,0,0
207326.2,636.556,-874.585,0,0
207586.525,626.982,-874.912,0,0
207846.85,618.257,-875.081,0,0
208107.175,610.262,-875.196,0,0
208367.5,602.953,-875.633,0,0
208627.825,595.818,-876.376,0,0
208888.15,588.977,-877.26,0,0
209148.475,582.525,-878.528,0,0
209408.8,576.001,-880.449,0,0
209669.125,569.008,-882.852,0,0
209929.45,561.33,-885.308,0,0
210189.775,552.808,-887.344,0,0
210450.1,544.201,-888.784,0,0
210710.425,535.584,-889.676,0,0
210970.75,526.757,-890.413,0,0
211231.075,517.669,-890.645,0,0
211491.4,508.494,-890.145,0,0
211751.725,499.471,-888.728,0,0
212012.05,491.056,-886.512,0,0
212272.375,483.527,-883.955,0,0
212532.7,476.6,-881.553,0,0
212793.025,470.024,-879.198,0,0
213053.35,463.357,-876.966,0,0
213313.675,456.914,-874.609,0,0
213574.0,450.656,-871.952,0,0
213834.325,444.63,-869.098,0,0
214094.65,439.042,-866.046,0,0
214354.975,433.649,-862.931,0,0
214615.3,428.672,-859.805,0,0
214875.625,424.022,-856.585,0,0
215135.95,419.595,-853.672,0,0
215396.275,415.233,-850.829,0,0
215656.6,410.897,-847.853,0,0
215916.925,406.761,-844.745,0,0
216177.25,402.926,-841.521,0,0
216437.575,399.364,-838.368,0,0
216697.9,395.979,-835.28,0,0
216958.225,392.769,-832.144,0,0
217218.55,389.673,-828.98,0,0
217478.875,386.92,-825.833,0,0
217739.2,384.353,-822.683,0,0
217999.525,382.098,-819.658,0,0
218259.85,379.892,-816.797,0,0
218520,377.844,-814.013,0,0
218780,375.983,-811.163,0,0
219041,374.309,-808.475,0,0
219301,372.797,-805.836,0,0
219561,371.495,-803.417,0,0
219822,370.231,-801.049,0,0
220082,369.083,-798.826,0,0
220342,368.098,-796.79,0,0
220603,367.029,-794.862,0,0
220863,365.972,-792.993,0,0
221123,365.057,-790.97,0,0
221384,364.308,-789.026,0,0
221644,363.757,-787.218,0,0
221904,363.42,-785.527,0,0
222165,363.269,-783.926,0,0
222425,363.27,-782.746,0,0
222685,363.301,-781.862,0,0
222946,363.367,-781.133,0,0
223206,363.329,-780.807,0,0
223466,363.203,-780.657,0,0
223727,362.861,-780.72,0,0
223987,362.247,-780.77,0,0
224247,361.698,-780.761,0,0
224508,361.136,-780.883,0,0
224768,360.361,-781.256,0,0
225028,359.358,-781.599,0,0
225289,358.12,-781.685,0,0
225549,356.988,-781.672,0,0
225809,355.98,-781.479,0,0
226070,355.177,-781.288,0,0
226330,354.486,-781.279,0,0
226590,353.869,-781.256,0,0
226851,353.345,-781.323,0,0
227111,352.979,-781.638,0,0
227371,352.776,-782.212,0,0
227632,352.31,-782.921,0,0
227892,351.942,-783.897,0,0
228152,351.528,-785.139,0,0
228413,351.056,-786.638,0,0
228673,350.304,-788.385,0,0
228933,349.31,-790.37,0,0
229193,348.057,-792.505,0,0
229454,346.383,-794.699,0,0
229714,344.361,-796.998,0,0
229974,342.134,-799.137,0,0
230235,339.496,-801.24,0,0
230495,336.611,-803.07,0,0
230755,333.612,-804.814,0,0
231016,330.39,-806.361,0,0
231276,326.991,-807.697,0,0
231536,323.515,-808.844,0,0
231797,320.056,-809.723,0,0
232057,316.592,-810.568,0,0
232317,313.055,-811.32,0,0
232578,309.463,-811.916,0,0
232838,305.766,-812.332,0,0
233098,302.067,-812.584,0,0
233359,298.407,-812.757,0,0
233619,294.701,-812.716,0,0
233879,291.011,-812.583,0,0
234140,287.436,-812.366,0,0
234400,283.913,-812.007,0,0
234660.3,280.308,-811.536,0,0
234920.625,276.744,-810.962,0,0
235180.95,273.316,-810.463,0,0
235441.275,269.857,-809.768,0,0
235701.6,266.388,-809.078,0,0
235961.925,263.007,-808.274,0,0
236222.25,259.568,-807.402,0,0
236482.575,256.181,-806.474,0,0
236742.9,252.805,-805.529,0,0
237003.225,249.404,-804.526,0,0
237263.55,245.942,-803.393,0,0
237523.875,242.592,-802.097,0,0
237784.2,239.167,-800.637,0,0
238044.525,235.869,-799.19,0,0
238304.85,232.682,-797.635,0,0
238565.175,229.563,-795.943,0,0
238825.5,226.49,-794.245,0,0
239085.825,223.47,-792.427,0,0
239346.15,220.543,-790.612,0,0
239606.475,217.65,-788.716,0,0
239866.8,214.908,-786.705,0,0
240127.125,212.13,-784.682,0,0
240387.45,209.621,-782.571,0,0
240647.775,207.169,-780.445,0,0
240908.1,204.841,-778.42,0,0
241168.425,202.538,-776.43,0,0
241428.75,200.284,-774.354,0,0
241689.075,198.115,-772.309,0,0
241949.4,195.829,-770.297,0,0
242209.725,193.771,-768.304,0,0
242470.05,191.773,-766.107,0,0
242730.375,189.901,-763.969,0,0
242990.7,188.216,-761.95,0,0
243251.025,186.486,-760.058,0,0
243511.35,184.787,-758.287,0,0
243771.675,183.022,-756.589,0,0
244032.0,181.236,-754.887,0,0
244292.325,179.443,-753.206,0,0
244552.65,177.547,-751.483,0,0
244812.975,175.777,-749.751,0,0
245073.3,174.002,-748.099,0,0
245333.625,172.183,-746.471,0,0
245593.95,170.359,-744.897,0,0
245854.275,168.448,-743.391,0,0
246114.6,166.433,-741.844,0,0
246374.925,164.339,-740.395,0,0
246635.25,162.015,-738.834,0,0
246895.575,159.557,-737.083,0,0
247155.9,157.085,-735.16,0,0
247416.225,154.556,-733.076,0,0
247676.55,152.039,-730.746,0,0
247936.875,149.64,-728.272,0,0
248197.2,147.442,-725.674,0,0
248457.525,145.32,-723.011,0,0
248717.85,143.25,-720.326,0,0
248978.175,141.258,-717.528,0,0
249238.5,139.305,-714.661,0,0
249498.825,137.408,-711.708,0,0
249759.15,135.697,-708.705,0,0
250019.475,134.104,-705.831,0,0
250279.8,132.554,-702.742,0,0
250540,131.046,-699.614,0,0
250800,129.578,-696.384,0,0
251061,128.28,-693.118,0,0
251321,127.138,-689.765,0,0
251581,126.161,-686.393,0,0
251842,125.311,-683.033,0,0
252102,124.594,-679.682,0,0
252362,124.052,-676.38,0,0
252623,123.586,-673.138,0,0
252883,123.213,-669.945,0,0
253143,122.919,-666.864,0,0
253404,122.649,-663.792,0,0
253664,122.443,-660.754,0,0
253924,122.286,-657.729,0,0
254185,122.13,-654.653,0,0
254445,122.11,-651.62,0,0
254705,122.068,-648.636,0,0
254966,122.174,-645.59,0,0
255226,122.294,-642.529,0,0
255486,122.516,-639.411,0,0
255747,122.834,-636.27,0,0
256007,123.431,-633.12,0,0
256267,124.124,-630.055,0,0
256528,125.028,-627.085,0,0
256788,126.017,-624.258,0,0
257048,127.077,-621.589,0,0
257309,128.179,-618.993,0,0
257569,129.279,-616.499,0,0
257829,130.426,-614.051,0,0
258090,131.628,-611.669,0,0
258350,132.876,-609.359,0,0
258610,134.165,-607.105,0,0
258871,135.503,-604.907,0,0
259131,136.851,-602.755,0,0
259391,138.327,-600.631,0,0
259651,139.906,-598.544,0,0
259912,141.525,-596.586,0,0
260172,143.315,-594.728,0,0
260432,145.093,-593.054,0,0
260693,146.921,-591.461,0,0
260953,148.745,-589.995,0,0
261213,150.648,-588.654,0,0
261474,152.601,-587.43,0,0
261734,154.547,-586.364,0,0
261994,156.468,-585.443,0,0
262255,158.358,-584.663,0,0
262515,160.232,-583.976,0,0
262775,162.02,-583.414,0,0
263036,163.811,-582.945,0,0
263296,165.533,-582.559,0,0
263556,167.285,-582.287,0,0
263817,168.964,-582.111,0,0
264077,170.623,-582.079,0,0
264337,172.177,-582.155,0,0
264598,173.657,-582.43,0,0
264858,174.987,-582.784,0,0
265118,176.22,-583.145,0,0
265379,177.209,-583.699,0,0
265639,178.013,-584.188,0,0
265899,178.689,-584.673,0,0
266160,179.235,-585.019,0,0
266420,179.704,-585.254,0,0
266680.25,180.166,-585.43,0,0
266940.575,180.65,-585.57,0,0
267200.9,181.162,-585.698,0,0
267461.225,181.615,-585.881,0,0
267721.55,182.058,-586.094,0,0
267981.875,182.411,-586.331,0,0
268242.2,182.63,-586.5,0,0
268502.525,182.764,-586.668,0,0
268762.85,182.826,-586.743,0,0
269023.175,182.787,-586.718,0,0
269283.5,182.717,-586.534,0,0
269543.825,182.664,-586.217,0,0
269804.15,182.702,-585.709,0,0
270064.475,182.845,-585.128,0,0
270324.8,183.065,-584.517,0,0
270585.125,183.423,-583.782,0,0
270845.45,183.867,-582.948,0,0
271105.775,184.547,-582.115,0,0
271366.1,185.462,-581.292,0,0
271626.425,186.503,-580.567,0,0
271886.75,187.691,-579.998,0,0
272147.075,188.925,-579.485,0,0
272407.4,190.27,-579.057,0,0
272667.725,191.726,-578.674,0,0
272928.05,193.346,-578.366,0,0
273188.375,195.144,-578.277,0,0
273448.7,197.058,-578.269,0,0
273709.025,199.142,-578.499,0,0
273969.35,201.338,-578.985,0,0
274229.675,203.676,-579.691,0,0
274490.0,206.136,-580.83,0,0
274750.325,208.62,-582.383,0,0
275010.65,211.004,-584.428,0,0
275270.975,213.17,-586.916,0,0
275531.3,215.107,-589.795,0,0
275791.625,216.658,-593.14,0,0
276051.95,217.784,-596.817,0,0
276312.275,218.323,-600.717,0,0
276572.6,218.249,-604.747,0,0
276832.925,217.539,-608.707,0,0
277093.25,216.265,-612.454,0,0
277353.575,214.568,-615.875,0,0
277613.9,212.549,-618.972,0,0
277874.225,210.308,-621.725,0,0
278134.55,207.907,-624.165,0,0
278394.875,205.419,-626.284,0,0
278655.2,202.903,-628.15,0,0
278915.525,200.381,-629.826,0,0
279175.85,197.824,-631.386,0,0
279436.175,195.223,-632.771,0,0
279696.5,192.501,-634.031,0,0
279956.825,189.752,-635.055,0,0
280217.15,186.961,-635.931,0,0
280477.475,184.117,-636.567,0,0
280737.8,181.399,-637.039,0,0
280998.125,178.75,-637.359,0,0
281258.45,176.179,-637.606,0,0
281518.775,173.627,-637.875,0,0
281779.1,171.058,-638.11,0,0
282039.425,168.369,-638.315,0,0
282299.75,165.56,-638.418,0,0
282560,162.612,-638.346,0,0
282820,159.545,-638.011,0,0
283081,156.45,-637.354,0,0
283341,153.461,-636.359,0,0
283601,150.708,-635.079,0,0
283862,148.28,-633.625,0,0
284122,146.176,-632.163,0,0
284382,144.394,-630.893,0,0
284643,142.61,-629.909,0,0
284903,140.704,-629.12,0,0
285163,138.526,-628.412,0,0
285424,136.059,-627.546,0,0
285684,133.449,-626.46,0,0
285944,130.754,-625.063,0,0
286205,127.986,-623.367,0,0
286465,125.245,-621.387,0,0
286725,122.589,-619.027,0,0
286986,120.153,-616.325,0,0
287246,117.997,-613.329,0,0
287506,116.15,-610.149,0,0
287767,114.625,-606.84,0,0
288027,113.402,-603.445,0,0
288287,112.426,-600.007,0,0
288548,111.7,-596.436,0,0
288808,111.253,-592.734,0,0
289068,111.227,-588.897,0,0
289329,111.674,-585.02,0,0
289589,112.678,-581.219,0,0
289849,114.192,-577.675,0,0
290109,116.153,-574.502,0,0
290370,118.401,-571.655,0,0
290630,120.962,-569.238,0,0
290890,123.731,-567.27,0,0
291151,126.637,-565.767,0,0
291411,129.651,-564.75,0,0
291671,132.66,-564.221,0,0
291932,135.627,-564.215,0,0
292192,138.448,-564.701,0,0
292452,141.064,-565.7,0,0
292713,143.317,-567.205,0,0
292973,145.016,-569.134,0,0
293233,146.099,-571.251,0,0
293494,146.5,-573.354,0,0
293754,146.356,-575.255,0,0
294014,145.802,-576.803,0,0
294275,144.971,-577.909,0,0
294535,144.069,-578.6,0,0
294795,143.23,-578.894,0,0
295056,142.563,-578.847,0,0
295316,142.227,-578.576,0,0
295576,142.311,-578.261,0,0
295837,142.791,-578.076,0,0
296097,143.588,-578.182,0,0
296357,144.644,-578.854,0,0
296618,145.588,-580.153,0,0
296878,146.104,-581.991,0,0
297138,146.067,-584.099,0,0
297399,145.423,-586.227,0,0
297659,144.255,-588.168,0,0
297919,142.722,-589.816,0,0
298180,140.987,-591.139,0,0
298440,139.15,-592.154,0,0
298700.2,137.24,-592.911,0,0
298960.525,135.355,-593.418,0,0
299220.85,133.519,-593.76,0,0
299481.175,131.719,-593.99,0,0
299741.5,129.943,-594.137,0,0
300001.825,128.135,-594.189,0,0
300262.15,126.296,-594.126,0,0
300522.475,124.431,-593.893,0,0
300782.8,122.6,-593.456,0,0
301043.125,120.838,-592.825,0,0
301303.45,119.234,-592.008,0,0
301563.775,117.86,-591.09,0,0
301824.1,116.703,-590.104,0,0
302084.425,115.779,-589.184,0,0
302344.75,115.033,-588.374,0,0
302605.075,114.441,-587.713,0,0
302865.4,113.921,-587.257,0,0
303125.725,113.359,-586.973,0,0
303386.05,112.751,-586.86,0,0
303646.375,112.076,-586.867,0,0
303906.7,111.238,-586.987,0,0
304167.025,110.258,-587.176,0,0
304427.35,109.116,-587.348,0,0
304687.675,107.776,-587.515,0,0
304948.0,106.316,-587.623,0,0
305208.325,104.7,-587.601,0,0
305468.65,103.026,-587.47,0,0
305728.975,101.277,-587.164,0,0
305989.3,99.5068,-586.738,0,0
306249.625,97.7284,-586.196,0,0
306509.95,95.9428,-585.528,0,0
306770.275,94.211,-584.734,0,0
307030.6,92.5057,-583.828,0,0
307290.925,90.8394,-582.804,0,0
307551.25,89.2658,-581.707,0,0
307811.575,87.7857,-580.535,0,0
308071.9,86.3664,-579.316,0,0
308332.225,85.0354,-578.06,0,0
308592.55,83.78,-576.778,0,0
308852.875,82.5967,-575.483,0,0
309113.2,81.4911,-574.166,0,0
309373.525,80.4544,-572.856,0,0
309633.85,79.4736,-571.598,0,0
309894.175,78.5139,-570.348,0,0
310154.5,77.5936,-569.113,0,0
310414.825,76.679,-567.895,0,0
310675.15,75.7497,-566.656,0,0
310935.475,74.859,-565.421,0,0
311195.8,73.9626,-564.155,0,0
311456.125,73.1073,-562.855,0,0
311716.45,72.2723,-561.558,0,0
311976.775,71.4828,-560.221,0,0
312237.1,70.7317,-558.886,0,0
312497.425,70.017,-557.533,0,0
312757.75,69.3655,-556.177,0,0
313018.075,68.7607,-554.832,0,0
313278.4,68.2072,-553.492,0,0
313538.725,67.6762,-552.195,0,0
313799.05,67.1823,-550.936,0,0
314059.375,66.7083,-549.692,0,0
314319.7,66.2279,-548.474,0,0
314580,65.7084,-547.271,0,0
314840,65.2552,-546.116,0,0
315101,64.7585,-544.836,0,0
315361,64.2977,-543.641,0,0
315621,63.7918,-542.451,0,0
315882,63.36,-541.227,0,0
316142,62.9249,-539.946,0,0
316402,62.527,-538.625,0,0
316663,62.2087,-537.385,0,0
316923,61.8254,-536.225,0,0
317183,61.4923,-534.798,0,0
317444,61.2581,-533.613,0,0
317704,61.022,-532.44,0,0
317964,60.8451,-531.216,0,0
318225,60.6074,-530.037,0,0
318485,60.4683,-528.878,0,0
318745,60.2986,-527.773,0,0
319006,60.1099,-526.724,0,0
319266,60.0009,-525.613,0,0
319526,59.8088,-524.541,0,0
319787,59.6195,-523.506,0,0
320047,59.4554,-522.517,0,0
320307,59.214,-521.461,0,0
320567,59.0114,-520.394,0,0
320828,58.9077,-519.417,0,0
321088,58.6621,-518.383,0,0
321348,58.4783,-517.262,0,0
321609,58.22,-516.261,0,0
321869,58.0799,-515.204,0,0
322129,57.8624,-514.122,0,0
322390,57.7418,-513.071,0,0
322650,57.5003,-512.055,0,0
322910,57.2865,-510.956,0,0
323171,57.0864,-509.83,0,0
323431,56.9413,-508.672,0,0
323691,56.7626,-507.502,0,0
323952,56.6277,-506.248,0,0
324212,56.475,-505.03,0,0
324472,56.4672,-503.656,0,0
324733,56.4739,-502.345,0,0
324993,56.5851,-500.991,0,0
325253,56.8052,-499.635,0,0
325514,57.112,-498.3,0,0
325774,57.5744,-496.99,0,0
326034,58.0911,-495.772,0,0
326295,58.6354,-494.633,0,0
326555,59.3471,-493.655,0,0
326815,60.0239,-492.716,0,0
327076,60.7141,-491.979,0,0
327336,61.4159,-491.35,0,0
327596,61.9851,-490.805,0,0
327857,62.4816,-490.362,0,0
328117,63.0092,-489.946,0,0
328377,63.3366,-489.524,0,0
328638,63.6948,-489.085,0,0
328898,64.0461,-488.703,0,0
329158,64.3157,-488.314,0,0
329419,64.6702,-487.97,0,0
329679,64.9325,-487.641,0,0
329939,65.2199,-487.226,0,0
330200,65.4453,-487.011,0,0
330460,65.6711,-486.791,0,0
330720.15,65.8981,-486.607,0,0
330980.475,66.105,-486.441,0,0
331240.8,66.1494,-486.336,0,0
331501.125,66.2133,-486.214,0,0
331761.45,66.2046,-486.122,0,0
332021.775,66.1094,-486.098,0,0
332282.1,65.9061,-486.035,0,0
332542.425,65.6703,-486.004,0,0
332802.75,65.3824,-485.873,0,0
333063.075,64.9328,-485.782,0,0
333323.4,64.5076,-485.594,0,0
333583.725,64.0015,-485.324,0,0
333844.05,63.4848,-484.996,0,0
334104.375,62.8937,-484.583,0,0
334364.7,62.3943,-484.071,0,0
334625.025,61.8279,-483.517,0,0
334885.35,61.4174,-482.92,0,0
335145.675,60.9631,-482.305,0,0
335406.0,60.4936,-481.671,0,0
335666.325,60.1096,-481.023,0,0
335926.65,59.6915,-480.367,0,0
336186.975,59.2987,-479.656,0,0
336447.3,58.9387,-478.972,0,0
336707.625,58.5878,-478.266,0,0
336967.95,58.177,-477.488,0,0
337228.275,57.8507,-476.783,0,0
337488.6,57.5431,-475.976,0,0
337748.925,57.2815,-475.256,0,0
338009.25,56.9601,-474.415,0,0
338269.575,56.6407,-473.63,0,0
338529.9,56.4383,-472.827,0,0
338790.225,56.1581,-471.962,0,0
339050.55,55.9285,-471.138,0,0
339310.875,55.696,-470.344,0,0
339571.2,55.5046,-469.459,0,0
339831.525,55.2866,-468.609,0,0
340091.85,55.1565,-467.659,0,0
340352.175,55.0358,-466.861,0,0
340612.5,54.8653,-465.958,0,0
340872.825,54.8677,-465.091,0,0
341133.15,54.7686,-464.228,0,0
341393.475,54.7151,-463.338,0,0
341653.8,54.6466,-462.498,0,0
341914.125,54.6419,-461.686,0,0
342174.45,54.6221,-460.789,0,0
342434.775,54.5992,-459.981,0,0
342695.1,54.5878,-459.105,0,0
342955.425,54.6177,-458.228,0,0
343215.75,54.6291,-457.445,0,0
343476.075,54.6634,-456.538,0,0
343736.4,54.7252,-455.741,0,0
343996.725,54.8123,-454.903,0,0
344257.05,54.921,-454.029,0,0
344517.375,55.0342,-453.22,0,0
344777.7,55.1094,-452.396,0,0
345038.025,55.3215,-451.597,0,0
345298.35,55.4301,-450.752,0,0
345558.675,55.6694,-449.966,0,0
345819.0,55.878,-449.227,0,0
346079.325,56.0948,-448.431,0,0
346339.65,56.3199,-447.648,0,0
346599.975,56.5879,-446.988,0,0
346860,56.784,-446.244,0,0
347121,57.0928,-445.567,0,0
347381,57.3417,-444.879,0,0
347641,57.6206,-444.205,0,0
347902,57.8577,-443.552,0,0
348162,58.1843,-442.906,0,0
348422,58.4306,-442.289,0,0
348683,58.7765,-441.639,0,0
348943,59.072,-441.051,0,0
349203,59.3138,-440.4,0,0
349464,59.6912,-439.878,0,0
349724,60.0303,-439.32,0,0
349984,60.382,-438.801,0,0
350245,60.7227,-438.353,0,0
350505,61.0106,-437.887,0,0
350765,61.3334,-437.458,0,0
351025,61.6815,-436.987,0,0
351286,61.96,-436.601,0,0
351546,62.2402,-436.223,0,0
351806,62.4796,-435.86,0,0
352067,62.7692,-435.496,0,0
352327,62.9445,-435.124,0,0
352587,63.1664,-434.712,0,0
352848,63.3862,-434.365,0,0
353108,63.5837,-433.949,0,0
353368,63.6816,-433.577,0,0
353629,63.9698,-433.226,0,0
353889,64.1353,-432.773,0,0
354149,64.4024,-432.357,0,0
354410,64.5888,-432.027,0,0
354670,64.8651,-431.614,0,0
354930,65.0234,-431.253,0,0
355191,65.264,-430.924,0,0
355451,65.5093,-430.547,0,0
355711,65.7577,-430.16,0,0
355972,65.9944,-429.848,0,0
356232,66.2318,-429.451,0,0
356492,66.4764,-429.169,0,0
356753,66.7858,-428.794,0,0
357013,67.0561,-428.419,0,0
357273,67.3653,-428.146,0,0
357534,67.6859,-427.85,0,0
357794,67.9915,-427.582,0,0
358054,68.342,-427.379,0,0
358315,68.66,-427.206,0,0
358575,68.9815,-427.053,0,0
358835,69.3685,-426.909,0,0
359096,69.6016,-426.868,0,0
359356,69.8916,-426.804,0,0
359616,70.176,-426.792,0,0
359877,70.391,-426.838,0,0
360137,70.5654,-426.901,0,0
360397,70.7124,-426.951,0,0
360658,70.7453,-427.048,0,0
360918,70.8401,-427.08,0,0
361178,70.8687,-427.113,0,0
361438,70.9047,-427.151,0,0
361699,70.8951,-427.175,0,0
361959,70.8573,-427.209,0,0
362219,70.8111,-427.297,0,0
362480,70.7164,-427.341,0,0
362740.1,70.5651,-427.386,0,0
363000.425,70.4063,-427.352,0,0
363260.75,70.2279,-427.398,0,0
363521.075,70.0364,-427.348,0,0
363781.4,69.8531,-427.319,0,0
364041.725,69.6475,-427.236,0,0
364302.05,69.4017,-427.129,0,0
364562.375,69.1437,-427.058,0,0
364822.7,68.918,-426.933,0,0
365083.025,68.6854,-426.871,0,0
365343.35,68.3834,-426.687,0,0
365603.675,68.0956,-426.518,0,0
365864.0,67.7922,-426.348,0,0
366124.325,67.494,-426.128,0,0
366384.65,67.155,-425.919,0,0
366644.975,66.8771,-425.578,0,0
366905.3,66.6228,-425.228,0,0
367165.625,66.3399,-424.896,0,0
367425.95,66.1224,-424.526,0,0
367686.275,65.9551,-424.166,0,0
367946.6,65.8626,-423.773,0,0
368206.925,65.731,-423.409,0,0
368467.25,65.6706,-423.074,0,0
368727.575,65.6168,-422.757,0,0
368987.9,65.5769,-422.511,0,0
369248.225,65.5313,-422.26,0,0
369508.55,65.539,-422.054,0,0
369768.875,65.4567,-421.852,0,0
370029.2,65.4223,-421.721,0,0
370289.525,65.3263,-421.619,0,0
370549.85,65.1829,-421.534,0,0
370810.175,65.0036,-421.436,0,0
371070.5,64.7534,-421.39,0,0
371330.825,64.4715,-421.203,0,0
371591.15,64.1872,-421.028,0,0
371851.475,63.8921,-420.808,0,0
372111.8,63.594,-420.592,0,0
372372.125,63.2748,-420.378,0,0
372632.45,63.0507,-420.084,0,0
372892.775,62.7966,-419.808,0,0
373153.1,62.5689,-419.549,0,0
373413.425,62.3901,-419.27,0,0
373673.75,62.1485,-419.019,0,0
373934.075,61.9516,-418.732,0,0
374194.4,61.7245,-418.548,0,0
374454.725,61.513,-418.284,0,0
374715.05,61.2688,-418.116,0,0
374975.375,60.9749,-417.928,0,0
375235.7,60.671,-417.723,0,0
375496.025,60.3486,-417.459,0,0
375756.35,60.0026,-417.242,0,0
376016.675,59.6647,-416.976,0,0
376277.0,59.3271,-416.71,0,0
376537.325,58.9973,-416.335,0,0
376797.65,58.6647,-416.026,0,0
377057.975,58.373,-415.677,0,0
377318.3,58.1323,-415.367,0,0
377578.625,57.8107,-415.125,0,0
377838.95,57.5592,-414.811,0,0
378099.275,57.2588,-414.568,0,0
378359.6,56.9651,-414.368,0,0
378619.925,56.5636,-414.163,0,0
378880,56.039,-413.95,0,0
379141,55.53,-413.702,0,0
379401,54.9289,-413.407,0,0
379661,54.3117,-412.93,0,0
379922,53.6442,-412.394,0,0
380182,53.1011,-411.744,0,0
380442,52.5709,-410.994,0,0
380703,52.214,-410.177,0,0
380963,52.0207,-409.343,0,0
381223,51.8742,-408.574,0,0
381483,51.8915,-407.862,0,0
381744,51.9561,-407.345,0,0
382004,51.9575,-406.913,0,0
382264,51.9984,-406.588,0,0
382525,51.8683,-406.285,0,0
382785,51.6893,-405.988,0,0
383045,51.4689,-405.734,0,0
383306,51.215,-405.433,0,0
383566,50.8749,-405.091,0,0
383826,50.5273,-404.767,0,0
384087,50.1731,-404.393,0,0
384347,49.759,-403.985,0,0
384607,49.4172,-403.547,0,0
384868,49.0214,-403.071,0,0
385128,48.6037,-402.592,0,0
385388,48.1872,-402.049,0,0
385649,47.8077,-401.511,0,0
385909,47.4227,-400.902,0,0
386169,47.1161,-400.326,0,0
386430,46.7387,-399.688,0,0
386690,46.4361,-399.026,0,0
386950,46.1021,-398.377,0,0
387211,45.8402,-397.701,0,0
387471,45.5807,-397.001,0,0
387731,45.356,-396.347,0,0
387992,45.1576,-395.613,0,0
388252,44.9295,-394.975,0,0
388512,44.7515,-394.215,0,0
388773,44.5974,-393.51,0,0
389033,44.4834,-392.821,0,0
389293,44.3948,-392.054,0,0
389554,44.3689,-391.347,0,0
389814,44.33,-390.684,0,0
390074,44.3577,-389.993,0,0
390335,44.3917,-389.367,0,0
390595,44.4525,-388.803,0,0
390855,44.5188,-388.224,0,0
391116,44.5915,-387.773,0,0
391376,44.632,-387.316,0,0
391636,44.6753,-386.938,0,0
391896,44.59,-386.607,0,0
392157,44.5372,-386.262,0,0
392417,44.372,-385.917,0,0
392677,44.1444,-385.565,0,0
392938,43.9057,-385.17,0,0
393198,43.6188,-384.73,0,0
393458,43.3012,-384.278,0,0
393719,42.9546,-383.759,0,0
393979,42.6409,-383.208,0,0
394239,42.3218,-382.623,0,0
394500,41.9946,-381.956,0,0
394760.05,41.6699,-381.265,0,0
395020.375,41.4008,-380.552,0,0
395280.7,41.1462,-379.811,0,0
395541.025,40.9177,-378.991,0,0
395801.35,40.7322,-378.2,0,0
396061.675,40.5693,-377.419,0,0
396322.0,40.4754,-376.575,0,0
396582.325,40.423,-375.754,0,0
396842.65,40.3719,-375.016,0,0
397102.975,40.3492,-374.165,0,0
397363.3,40.3491,-373.364,0,0
397623.625,40.3907,-372.594,0,0
397883.95,40.3992,-371.822,0,0
398144.275,40.4648,-371.083,0,0
398404.6,40.5559,-370.325,0,0
398664.925,40.6506,-369.596,0,0
398925.25,40.7507,-368.844,0,0
399185.575,40.8512,-368.171,0,0
399445.9,41.0176,-367.477,0,0
399706.225,41.138,-366.798,0,0
399966.55,41.2754,-366.155,0,0
400006.6,41.3007,-366.04,0,0