File: Accelerated corrosion test data/2025-10-10_18-00-03/sample_8.csv
Frequency (Hz),Impedance (ohms),Phase (Radians),Temperature (C),Humidity (%)
10000.0,313.024,-10943.9,0,0
10260.325,304.67,-10668.7,0,0
10520.65,297.447,-10408.2,0,0
10780.975,289.8,-10160.1,0,0
11041.3,283.592,-9922.92,0,0
11301.625,276.978,-9698.43,0,0
11561.95,271.124,-9481.46,0,0
11822.275,265.119,-9275.59,0,0
12082.6,262.791,-9076.36,0,0
12342.925,259.934,-8890.14,0,0
12603.25,254.802,-8709.52,0,0
12863.575,250.839,-8539.13,0,0
13123.9,242.655,-8374.77,0,0
13384.225,236.315,-8212.76,0,0
13644.55,234.139,-8058.55,0,0
13904.875,225.957,-7910.05,0,0
14165.2,221.323,-7766.26,0,0
14425.525,217.504,-7627.67,0,0
14685.8,212.38,-7493.11,0,0
14946.175,209.237,-7363.31,0,0
15206.5,205.754,-7238.25,0,0
15466.825,203.024,-7117.82,0,0
15727.15,199.27,-7001.4,0,0
15987.5,196.147,-6888.21,0,0
16247.8,193.187,-6779.17,0,0
16508.125,190.138,-6673.09,0,0
16768.45,187.017,-6570.35,0,0
17028.775,184.217,-6470.68,0,0
17289.1,181.404,-6373.96,0,0
17549.425,178.853,-6280.02,0,0
17809.75,177.078,-6188.01,0,0
18070.075,174.653,-6099.92,0,0
18330.4,171.824,-6013.23,0,0
18590.725,169.456,-5928.77,0,0
18851.05,170.448,-5845.81,0,0
19111.375,168.222,-5767.25,0,0
19371.7,170.846,-5690.72,0,0
19632.025,166.971,-5618.11,0,0
19892.35,163.924,-5548.11,0,0
20152.675,160.982,-5475.24,0,0
20413.0,160.317,-5405.34,0,0
20673.3,159.941,-5338.46,0,0
20933.65,158.226,-5274.93,0,0
21193.975,154.88,-5211.63,0,0
21454.3,152.898,-5147.69,0,0
21714.625,151.073,-5085.6,0,0
21974.9,150.391,-5025.99,0,0
22235.275,150.482,-4967.95,0,0
22495.6,148.677,-4911.63,0,0
22755.925,146.723,-4857.45,0,0
23016.25,144.818,-4803.48,0,0
23276.6,141.381,-4751.04,0,0
23536.9,139.819,-4697.71,0,0
23797.225,137.14,-4646.34,0,0
24057.55,135.489,-4595.87,0,0
24317.875,134.618,-4547.05,0,0
24578.2,132.488,-4498.9,0,0
24838.525,131.119,-4450.77,0,0
25098.85,129.95,-4404.82,0,0
25359.175,128.55,-4359.54,0,0
25619.5,127.197,-4315.14,0,0
25879.8,126.514,-4270.76,0,0
26140.1,125.561,-4228.6,0,0
26400.5,124.593,-4187.01,0,0
26660.8,122.99,-4145.43,0,0
26921.1,122.32,-4104.42,0,0
27181.4,122.6,-4065.03,0,0
27441.8,121.263,-4026.78,0,0
27702.1,120.934,-3989.35,0,0
27962.4,119.295,-3952.01,0,0
28222.7,119.315,-3914.37,0,0
28483.1,118.558,-3879,0,0
28743.4,118.537,-3843.07,0,0
29003.7,117.493,-3808.92,0,0
29264,118.18,-3774.3,0,0
29524.4,117.051,-3741.36,0,0
29784.7,117.351,-3708.11,0,0
30045,117.17,-3676.36,0,0
30305.3,117.196,-3645.49,0,0
30565.7,116.141,-3614.92,0,0
30826,115.483,-3584.21,0,0
31086.3,114.892,-3554.38,0,0
31346.6,114.554,-3524.68,0,0
31607,114.1,-3495.53,0,0
31867.3,113.937,-3467.01,0,0
32127.6,113.681,-3439.57,0,0
32387.9,113.331,-3411.3,0,0
32648.3,113.449,-3383.92,0,0
32908.6,114.752,-3356.54,0,0
33168.9,114.527,-3330.76,0,0
33429.2,115.653,-3305.45,0,0
33689.6,117.087,-3282.01,0,0
33949.9,116.421,-3259.33,0,0
34210.2,115.247,-3236.33,0,0
34470.5,114.046,-3213.15,0,0
34730.9,113.138,-3189.52,0,0
34991.2,112.748,-3167.17,0,0
35251.5,111.293,-3145.35,0,0
35511.8,109.461,-3123.67,0,0
35772.2,107.348,-3101.55,0,0
36032.5,105.803,-3079.81,0,0
36292.8,103.817,-3058.02,0,0
36553.1,102.36,-3036.32,0,0
36813.5,100.88,-3014.79,0,0
37073.8,99.6923,-2993.53,0,0
37334.1,98.1511,-2972.75,0,0
37594.4,96.5779,-2952.1,0,0
37854.8,95.2897,-2931.48,0,0
38115.1,93.95,-2911.09,0,0
38375.4,92.387,-2890.99,0,0
38635.7,91.3063,-2871.09,0,0
38896.1,90.3533,-2851.19,0,0
39156.4,89.2846,-2831.8,0,0
39416.7,88.3163,-2812.25,0,0
39677,87.2501,-2793.68,0,0
39937.4,86.2438,-2774.45,0,0
40197.7,85.9068,-2755.5,0,0
40458,85.7595,-2736.63,0,0
40718.3,85.2342,-2719.1,0,0
40978.7,84.574,-2701.61,0,0
41239,84.1754,-2684.23,0,0
41499.3,83.5604,-2666.59,0,0
41759.6,83.1122,-2649.35,0,0
42020,82.5863,-2632.76,0,0
42280.275,81.9122,-2615.8,0,0
42540.6,81.8879,-2599,0,0
42800.925,81.5632,-2582.92,0,0
43061.25,81.9211,-2566.64,0,0
43321.575,81.7025,-2551.02,0,0
43581.9,81.552,-2535.91,0,0
43842.225,81.2556,-2521.06,0,0
44102.55,80.397,-2506.13,0,0
44362.875,79.8997,-2491.25,0,0
44623.2,79.1511,-2476.36,0,0
44883.525,78.6233,-2461.61,0,0
45143.85,78.0935,-2446.94,0,0
45404.175,77.5209,-2432.4,0,0
45664.5,77.0411,-2418.17,0,0
45924.825,76.563,-2404.24,0,0
46185.15,75.6872,-2390.04,0,0
46445.475,75.6617,-2376.18,0,0
46705.8,75.2808,-2362.33,0,0
46966.125,74.9513,-2348.66,0,0
47226.45,74.7469,-2335.46,0,0
47486.775,74.42,-2322.07,0,0
47747.1,74.277,-2309.27,0,0
48007.425,73.8933,-2296.18,0,0
48267.75,73.6218,-2283.45,0,0
48528.075,73.3037,-2270.9,0,0
48788.4,72.9052,-2258.69,0,0
49048.725,72.2506,-2246.29,0,0
49309.05,71.9333,-2233.87,0,0
49569.375,71.4227,-2221.51,0,0
49829.7,71.1588,-2209.54,0,0
50090.025,70.7265,-2197.38,0,0
50350.35,70.431,-2185.4,0,0
50610.675,70.1612,-2173.63,0,0
50871.0,69.9819,-2161.88,0,0
51131.325,69.8067,-2150.38,0,0
51391.65,69.6392,-2138.89,0,0
51651.975,69.6781,-2127.54,0,0
51912.3,69.7294,-2116.58,0,0
52172.625,69.5012,-2105.56,0,0
52432.95,69.2326,-2094.77,0,0
52693.275,69.1876,-2083.94,0,0
52953.6,69.3518,-2073.26,0,0
53213.925,69.253,-2062.95,0,0
53474.25,69.0466,-2052.72,0,0
53734.575,69.1474,-2043.03,0,0
53994.9,68.6326,-2033.27,0,0
54255.225,67.9979,-2023.32,0,0
54515.55,67.3892,-2013.27,0,0
54775.875,66.9425,-2003.39,0,0
55036.2,66.3542,-1993.61,0,0
55296.525,65.6247,-1983.86,0,0
55556.85,64.9381,-1973.9,0,0
55817.175,64.3597,-1964.08,0,0
56077.5,63.8538,-1954.38,0,0
56337.825,63.4127,-1944.35,0,0
56598.15,63.0709,-1934.67,0,0
56858.475,62.8564,-1924.99,0,0
57118.8,62.6092,-1915.44,0,0
57379.125,62.3851,-1906.01,0,0
57639.45,62.3471,-1896.75,0,0
57899.775,62.1846,-1887.5,0,0
58160.1,62.0321,-1878.3,0,0
58420.4,61.9805,-1869.22,0,0
58680.7,61.9654,-1860.27,0,0
58941.1,62.1079,-1851.49,0,0
59201.4,62.1579,-1843.08,0,0
59461.7,61.8935,-1834.65,0,0
59722,61.4927,-1826.17,0,0
59982.4,61.1113,-1817.61,0,0
60242.7,60.7524,-1809.14,0,0
60503,60.4942,-1800.5,0,0
60763.3,60.3538,-1791.96,0,0
61023.7,60.2912,-1783.56,0,0
61284,60.2995,-1775.14,0,0
61544.3,60.5095,-1766.86,0,0
61804.6,60.5683,-1759.04,0,0
62065,60.2682,-1751.02,0,0
62325.3,60.1556,-1742.99,0,0
62585.6,60.161,-1734.84,0,0
62845.9,60.3213,-1726.89,0,0
63106.3,60.6004,-1719.07,0,0
63366.6,60.9218,-1711.3,0,0
63626.9,61.2328,-1703.85,0,0
63887.2,61.4488,-1696.4,0,0
64147.6,61.8183,-1689.05,0,0
64407.9,62.2742,-1682.23,0,0
64668.2,62.2082,-1675.43,0,0
64928.5,62.059,-1668.6,0,0
65188.9,61.9331,-1661.81,0,0
65449.2,61.5629,-1655.11,0,0
65709.5,61.12,-1648.09,0,0
65969.8,61.0034,-1641.36,0,0
66230.2,60.7133,-1634.55,0,0
66490.5,60.1006,-1627.9,0,0
66750.8,59.5264,-1620.86,0,0
67011.1,59.0242,-1613.79,0,0
67271.5,58.7658,-1606.8,0,0
67531.8,58.6963,-1599.77,0,0
67792.1,58.4713,-1593,0,0
68052.4,58.2296,-1586.17,0,0
68312.8,58.1066,-1579.42,0,0
68573.1,57.8961,-1572.61,0,0
68833.4,57.7005,-1565.98,0,0
69093.7,57.6762,-1559.15,0,0
69354.1,57.6454,-1552.49,0,0
69614.4,57.7416,-1545.99,0,0
69874.7,57.8329,-1539.46,0,0
70135,57.8783,-1533.13,0,0
70395.4,57.9443,-1526.85,0,0
70655.7,57.9493,-1520.62,0,0
70916,57.9276,-1514.3,0,0
71176.3,58.0673,-1508.01,0,0
71436.7,58.0482,-1502.06,0,0
71697,58.2957,-1495.95,0,0
71957.3,58.4056,-1490.16,0,0
72217.6,58.4221,-1484.35,0,0
72478,58.2815,-1478.67,0,0
72738.3,58.0151,-1472.94,0,0
72998.6,57.768,-1467.05,0,0
73258.9,57.5166,-1461.13,0,0
73519.3,57.3871,-1455.12,0,0
73779.6,57.4552,-1449.41,0,0
74039.9,57.4093,-1443.65,0,0
74300.225,57.3329,-1437.95,0,0
74560.55,57.009,-1432.32,0,0
74820.875,56.9095,-1426.53,0,0
75081.2,56.8141,-1420.86,0,0
75341.525,56.7224,-1415.16,0,0
75601.85,56.718,-1409.47,0,0
75862.175,56.7489,-1403.86,0,0
76122.5,56.8424,-1398.38,0,0
76382.825,56.8854,-1392.84,0,0
76643.15,56.9024,-1387.48,0,0
76903.475,56.8905,-1382.19,0,0
77163.8,56.8915,-1376.84,0,0
77424.125,56.79,-1371.5,0,0
77684.45,56.6838,-1366.15,0,0
77944.775,56.6686,-1360.9,0,0
78205.1,56.5465,-1355.62,0,0
78465.425,56.4174,-1350.39,0,0
78725.75,56.2189,-1345.05,0,0
78986.075,56.3526,-1339.69,0,0
79246.4,56.2994,-1334.43,0,0
79506.725,56.1955,-1329.17,0,0
79767.05,56.3447,-1323.93,0,0
80027.375,56.379,-1318.68,0,0
80287.7,56.5268,-1313.61,0,0
80548.025,56.5754,-1308.55,0,0
80808.35,56.5572,-1303.44,0,0
81068.675,56.5894,-1298.23,0,0
81329.0,56.751,-1293.06,0,0
81589.325,56.9787,-1287.98,0,0
81849.65,57.2136,-1282.9,0,0
82109.975,57.5775,-1277.77,0,0
82370.3,57.985,-1272.99,0,0
82630.625,58.298,-1268.18,0,0
82890.95,58.5767,-1263.36,0,0
83151.275,58.8864,-1258.7,0,0
83411.6,59.0958,-1253.98,0,0
83671.925,59.3975,-1249.16,0,0
83932.25,59.8979,-1244.52,0,0
84192.575,60.3343,-1240.06,0,0
84452.9,60.6942,-1235.57,0,0
84713.225,61.1368,-1231.19,0,0
84973.55,61.6084,-1227.13,0,0
85233.875,61.508,-1223.22,0,0
85494.2,61.2485,-1218.99,0,0
85754.525,60.9428,-1214.46,0,0
86014.85,60.8531,-1209.8,0,0
86275.175,60.9229,-1205.19,0,0
86535.5,60.9671,-1200.56,0,0
86795.825,61.1575,-1195.83,0,0
87056.15,61.4995,-1191.2,0,0
87316.475,61.7881,-1186.87,0,0
87576.8,62.0359,-1182.36,0,0
87837.125,62.3171,-1177.85,0,0
88097.45,62.7696,-1173.34,0,0
88357.775,63.2471,-1169,0,0
88618.1,63.6638,-1164.74,0,0
88878.425,64.037,-1160.41,0,0
89138.75,64.4331,-1156.14,0,0
89399.075,64.8746,-1151.79,0,0
89659.4,65.2795,-1147.41,0,0
89919.725,65.9515,-1143.28,0,0
90180,66.5415,-1138.94,0,0
90440.4,67.3399,-1134.77,0,0
90700.7,68.1341,-1130.59,0,0
90961,69.0532,-1126.57,0,0
91221.3,70.0094,-1122.62,0,0
91481.7,71.1593,-1118.97,0,0
91742,72.1425,-1115.65,0,0
92002.3,72.8878,-1112.39,0,0
92262.6,73.6543,-1109.13,0,0
92523,74.278,-1106.07,0,0
92783.3,74.7322,-1103.03,0,0
93043.6,75.2721,-1100.12,0,0
93303.9,75.2014,-1097.55,0,0
93564.3,74.7985,-1094.41,0,0
93824.6,74.3271,-1091.01,0,0
94084.9,74.0243,-1087.09,0,0
94345.2,74.2274,-1083.34,0,0
94605.6,74.2471,-1079.57,0,0
94865.9,74.6659,-1075.73,0,0
95126.2,75.0784,-1072.14,0,0
95386.5,75.684,-1068.54,0,0
95646.9,76.2356,-1065.47,0,0
95907.2,76.2732,-1062.14,0,0
96167.5,76.4402,-1058.72,0,0
96427.8,76.7494,-1055.09,0,0
96688.2,77.3312,-1051.69,0,0
96948.5,77.7566,-1048.43,0,0
97208.8,78.2543,-1045.18,0,0
97469.1,78.7863,-1041.91,0,0
97729.5,79.3716,-1038.83,0,0
97989.8,79.9131,-1036.02,0,0
98250.1,80.2264,-1033.09,0,0
98510.4,80.7014,-1030.16,0,0
98770.8,81.1681,-1027.65,0,0
99031.1,81.1445,-1025.28,0,0
99291.4,80.8349,-1022.56,0,0
99551.7,80.5258,-1019.52,0,0
99812.1,80.4325,-1016.36,0,0
100072,80.5869,-1013.23,0,0
100333,80.7418,-1010.26,0,0
100593,80.8581,-1007.38,0,0
100853,80.9202,-1004.62,0,0
101114,80.8645,-1001.83,0,0
101374,80.7306,-999.052,0,0
101634,80.6722,-996.209,0,0
101895,80.4462,-993.572,0,0
102155,80.0142,-990.701,0,0
102415,79.6432,-987.74,0,0
102676,79.2626,-984.64,0,0
102936,78.9624,-981.497,0,0
103196,78.6074,-978.313,0,0
103457,78.3727,-974.982,0,0
103717,78.2868,-971.644,0,0
103977,78.3119,-968.392,0,0
104238,78.4049,-965.216,0,0
104498,78.413,-962.181,0,0
104758,78.4177,-959.14,0,0
105019,78.1958,-956.039,0,0
105279,78.0558,-952.668,0,0
105539,78.2685,-949.259,0,0
105800,78.5474,-946.064,0,0
106060,78.7978,-942.961,0,0
106320.175,79.0287,-939.845,0,0
106580.5,79.4179,-936.755,0,0
106840.825,79.8591,-933.851,0,0
107101.15,80.2486,-931.137,0,0
107361.475,80.4902,-928.489,0,0
107621.8,80.5901,-925.907,0,0
107882.125,80.5583,-923.222,0,0
108142.45,80.4652,-920.427,0,0
108402.775,80.4239,-917.512,0,0
108663.1,80.4883,-914.572,0,0
108923.425,80.5903,-911.682,0,0
109183.75,80.6877,-908.745,0,0
109444.075,80.8752,-905.863,0,0
109704.4,81.0811,-902.977,0,0
109964.725,81.3561,-900.267,0,0
110225.05,81.5925,-897.542,0,0
110485.375,81.7731,-894.89,0,0
110745.7,81.9989,-892.302,0,0
111006.025,82.0228,-889.836,0,0
111266.35,81.9924,-887.096,0,0
111526.675,81.8865,-884.215,0,0
111787.0,82.0447,-881.545,0,0
112047.325,82.2975,-878.981,0,0
112307.65,82.3082,-876.342,0,0
112567.975,82.3936,-873.681,0,0
112828.3,82.3974,-871.012,0,0
113088.625,82.5373,-868.453,0,0
113348.95,82.6408,-865.788,0,0
113609.275,82.7613,-863.22,0,0
113869.6,82.7885,-860.774,0,0
114129.925,82.6979,-858.241,0,0
114390.25,82.6697,-855.635,0,0
114650.575,82.5814,-853.056,0,0
114910.9,82.5725,-850.429,0,0
115171.225,82.5524,-847.861,0,0
115431.55,82.542,-845.33,0,0
115691.875,82.4348,-842.716,0,0
115952.2,82.3497,-840.114,0,0
116212.525,82.2816,-837.448,0,0
116472.85,82.2164,-834.905,0,0
116733.175,82.0218,-832.264,0,0
116993.5,81.7891,-829.446,0,0
117253.825,81.7359,-826.53,0,0
117514.15,81.9004,-823.669,0,0
117774.475,82.1054,-820.961,0,0
118034.8,82.2374,-818.392,0,0
118295.125,82.3189,-815.733,0,0
118555.45,82.4389,-813.05,0,0
118815.775,82.7017,-810.48,0,0
119076.1,82.9032,-808.027,0,0
119336.425,82.9925,-805.718,0,0
119596.75,82.932,-803.279,0,0
119857.075,82.6744,-800.873,0,0
120117.4,82.5706,-798.266,0,0
120377.725,82.4987,-795.61,0,0
120638.05,82.3873,-792.94,0,0
120898.375,82.3772,-790.201,0,0
121158.7,82.5091,-787.552,0,0
121419.025,82.5511,-784.997,0,0
121679.35,82.5128,-782.394,0,0
121939.675,82.5316,-779.71,0,0
122200.0,82.5816,-777.048,0,0
122460,82.7483,-774.444,0,0
122721,82.8156,-771.951,0,0
122981,82.814,-769.45,0,0
123241,82.7475,-766.879,0,0
123502,82.6806,-764.226,0,0
123762,82.6397,-761.563,0,0
124022,82.6228,-758.848,0,0
124283,82.6762,-756.081,0,0
124543,82.7977,-753.338,0,0
124803,82.9888,-750.627,0,0
125064,83.2136,-747.963,0,0
125324,83.4221,-745.386,0,0
125584,83.5749,-742.798,0,0
125845,83.6994,-740.271,0,0
126105,83.7916,-737.73,0,0
126365,83.8598,-735.122,0,0
126626,84.0042,-732.422,0,0
126886,84.2706,-729.81,0,0
127146,84.5133,-727.305,0,0
127406,84.6564,-724.838,0,0
127667,84.6963,-722.35,0,0
127927,84.7601,-719.757,0,0
128187,84.9048,-717.12,0,0
128448,85.0824,-714.56,0,0
128708,85.1655,-712.098,0,0
128968,85.2454,-709.502,0,0
129229,85.3144,-706.919,0,0
129489,85.3429,-704.324,0,0
129749,85.3893,-701.655,0,0
130010,85.485,-698.887,0,0
130270,85.6493,-696.148,0,0
130530,85.9473,-693.345,0,0
130791,86.3006,-690.65,0,0
131051,86.6529,-688.108,0,0
131311,86.8951,-685.581,0,0
131572,87.2272,-683.101,0,0
131832,87.4072,-680.783,0,0
132092,87.3371,-678.289,0,0
132353,87.2837,-675.638,0,0
132613,87.3624,-672.881,0,0
132873,87.4805,-670.117,0,0
133134,87.6322,-667.368,0,0
133394,87.8429,-664.702,0,0
133654,87.9443,-661.931,0,0
133915,88.0305,-659.106,0,0
134175,88.1932,-656.161,0,0
134435,88.5171,-653.169,0,0
134696,88.8954,-650.248,0,0
134956,89.3292,-647.294,0,0
135216,89.9457,-644.307,0,0
135477,90.6742,-641.545,0,0
135737,91.3535,-638.879,0,0
135997,92.1105,-636.251,0,0
136258,92.859,-633.961,0,0
136518,93.4031,-631.649,0,0
136778,93.8708,-629.492,0,0
137039,94.0571,-627.344,0,0
137299,94.0571,-625.061,0,0
137559,93.9932,-622.65,0,0
137819,93.8461,-620.088,0,0
138080,93.6076,-617.375,0,0
138340.125,93.4374,-614.365,0,0
138600.45,93.5025,-611.191,0,0
138860.775,93.6974,-608.09,0,0
139121.1,94.0366,-604.949,0,0
139381.425,94.4438,-601.954,0,0
139641.75,94.7346,-599.019,0,0
139902.075,94.9876,-595.876,0,0
140162.4,95.4199,-592.75,0,0
140422.725,95.8581,-589.681,0,0
140683.05,96.2268,-586.569,0,0
140943.375,96.6561,-583.308,0,0
141203.7,97.2382,-580.041,0,0
141464.025,97.9068,-576.87,0,0
141724.35,98.4984,-573.798,0,0
141984.675,99.0159,-570.664,0,0
142245.0,99.4962,-567.376,0,0
142505.325,100.133,-563.968,0,0
142765.65,100.868,-560.627,0,0
143025.975,101.591,-557.297,0,0
143286.3,102.271,-553.897,0,0
143546.625,103.05,-550.375,0,0
143806.95,103.881,-546.846,0,0
144067.275,104.809,-543.199,0,0
144327.6,105.811,-539.549,0,0
144587.925,106.86,-535.769,0,0
144848.25,108.138,-531.823,0,0
145108.575,109.744,-527.926,0,0
145368.9,111.508,-524.16,0,0
145629.225,113.433,-520.527,0,0
145889.55,115.487,-517.093,0,0
146149.875,117.461,-513.862,0,0
146410.2,119.378,-510.638,0,0
146670.525,121.351,-507.358,0,0
146930.85,123.479,-504.18,0,0
147191.175,125.616,-501.115,0,0
147451.5,127.878,-498.264,0,0
147711.825,129.764,-495.792,0,0
147972.15,131.105,-493.065,0,0
148232.475,132.452,-489.756,0,0
148492.8,134.041,-486.15,0,0
148753.125,135.94,-482.316,0,0
149013.45,138.178,-478.391,0,0
149273.775,140.82,-474.403,0,0
149534.1,143.825,-470.598,0,0
149794.425,147.237,-466.9,0,0
150054.75,150.654,-463.422,0,0
150315.075,154.347,-460.148,0,0
150575.4,158.353,-456.859,0,0
150835.725,162.758,-453.941,0,0
151096.05,167.629,-451.319,0,0
151356.375,172.789,-449.506,0,0
151616.7,177.883,-448.694,0,0
151877.025,182.403,-448.47,0,0
152137.35,186.628,-448.519,0,0
152397.675,190.477,-449.185,0,0
152658.0,193.108,-450.086,0,0
152918.325,195.335,-450.345,0,0
153178.65,197.527,-450.467,0,0
153438.975,199.346,-450.617,0,0
153699.3,200.787,-450.499,0,0
153959.625,202.418,-449.911,0,0
154219.95,204.159,-449.445,0,0
154480,205.419,-448.993,0,0
154741,206.551,-447.782,0,0
155001,208.11,-446.197,0,0
155261,210.335,-444.463,0,0
155522,213.378,-442.994,0,0
155782,216.673,-442.229,0,0
156042,220.277,-442.252,0,0
156303,223.706,-443.574,0,0
156563,225.758,-446.496,0,0
156823,225.342,-449.091,0,0
157084,223.744,-450.235,0,0
157344,221.896,-449.722,0,0
157604,220.509,-447.972,0,0
157864,219.725,-445.711,0,0
158125,219.573,-442.723,0,0
158385,220.317,-439.506,0,0
158645,222.007,-436.269,0,0
158906,224.429,-433.62,0,0
159166,227.236,-431.684,0,0
159426,230.361,-430.569,0,0
159687,233.012,-430.495,0,0
159947,234.534,-430.898,0,0
160207,235.244,-430.922,0,0
160468,235.528,-430.547,0,0
160728,235.287,-429.634,0,0
160988,235.005,-427.778,0,0
161249,235.202,-425.232,0,0
161509,235.989,-422.05,0,0
161769,237.861,-418.959,0,0
162030,240.101,-416.349,0,0
162290,242.806,-413.977,0,0
162550,245.87,-411.967,0,0
162811,248.991,-410.563,0,0
163071,252.151,-409.481,0,0
163331,255.282,-408.705,0,0
163592,258.486,-408.666,0,0
163852,261.203,-409.086,0,0
164112,263.345,-409.735,0,0
164373,265.055,-410.048,0,0
164633,266.878,-410.339,0,0
164893,268.631,-410.971,0,0
165154,270.382,-411.849,0,0
165414,271.859,-413.444,0,0
165674,272.256,-415.709,0,0
165935,271.15,-417.468,0,0
166195,269.57,-418.061,0,0
166455,268.17,-418.091,0,0
166716,266.478,-418.043,0,0
166976,264.34,-417.308,0,0
167236,262.1,-415.804,0,0
167497,260.395,-413.661,0,0
167757,258.905,-411.391,0,0
168017,257.462,-408.805,0,0
168277,256.206,-405.873,0,0
168538,255.227,-402.81,0,0
168798,254.177,-399.576,0,0
169058,253.315,-395.829,0,0
169319,252.978,-391.8,0,0
169579,253.075,-387.925,0,0
169839,253.435,-384.033,0,0
170100,253.508,-380.348,0,0
170360.075,253.597,-376.122,0,0
170620.4,254.1,-371.642,0,0
170880.725,254.912,-367.196,0,0
171141.05,255.751,-362.804,0,0
171401.375,256.465,-358.178,0,0
171661.7,257.298,-352.829,0,0
171922.025,258.954,-346.853,0,0
172182.35,261.653,-340.897,0,0
172442.675,265.089,-335.478,0,0
172703.0,268.845,-330.566,0,0
172963.325,272.755,-326.189,0,0
173223.65,276.659,-322.15,0,0
173483.975,280.638,-318.244,0,0
173744.3,284.836,-314.728,0,0
174004.625,288.993,-311.481,0,0
174264.95,292.922,-308.636,0,0
174525.275,296.579,-305.952,0,0
174785.6,299.877,-303.187,0,0
175045.925,303.102,-300.17,0,0
175306.25,306.188,-297.14,0,0
175566.575,309.004,-293.986,0,0
175826.9,311.593,-290.153,0,0
176087.225,314.776,-285.538,0,0
176347.55,318.625,-280.668,0,0
176607.875,323.198,-275.848,0,0
176868.2,328.353,-271.238,0,0
177128.525,333.985,-267.186,0,0
177388.85,339.45,-263.64,0,0
177649.175,344.778,-259.94,0,0
177909.5,350.282,-255.827,0,0
178169.825,356.809,-251.667,0,0
178430.15,363.84,-248.122,0,0
178690.475,371.338,-245.142,0,0
178950.8,378.766,-242.843,0,0
179211.125,386.193,-240.951,0,0
179471.45,393.557,-239.541,0,0
179731.775,400.567,-238.403,0,0
179992.1,407.577,-237.078,0,0
180252.425,415.067,-236.048,0,0
180512.75,422.447,-236.169,0,0
180773.075,429.156,-235.907,0,0
181033.4,436.041,-235.778,0,0
181293.725,442.637,-236.094,0,0
181554.05,448.853,-236.099,0,0
181814.375,455.338,-236.037,0,0
182074.7,461.958,-236.078,0,0
182335.025,468.809,-236.339,0,0
182595.35,475.661,-237.048,0,0
182855.675,482.577,-238.258,0,0
183116.0,488.989,-240.081,0,0
183376.325,494.563,-242.08,0,0
183636.65,499.466,-243.71,0,0
183896.975,504.101,-244.853,0,0
184157.3,508.51,-245.388,0,0
184417.625,513.222,-245.07,0,0
184677.95,518.486,-245.001,0,0
184938.275,523.728,-244.774,0,0
185198.6,528.932,-244.05,0,0
185458.925,535.138,-242.754,0,0
185719.25,542.041,-241.658,0,0
185979.575,549.409,-240.806,0,0
186239.9,557.5,-240.14,0,0
186500,566.259,-240.444,0,0
186761,574.746,-241.639,0,0
187021,582.929,-242.884,0,0
187281,591.105,-244.225,0,0
187542,599.385,-245.623,0,0
187802,607.965,-246.961,0,0
188062,617.279,-248.489,0,0
188322,627.321,-250.819,0,0
188583,637.611,-254.466,0,0
188843,647.491,-259.505,0,0
189103,656.34,-265.49,0,0
189364,663.694,-271.629,0,0
189624,670.266,-277.156,0,0
189884,676.583,-282.203,0,0
190145,682.732,-287.013,0,0
190405,688.469,-291.47,0,0
190665,694.032,-294.881,0,0
190926,700.753,-297.075,0,0
191186,709.263,-299.656,0,0
191446,718.355,-303.434,0,0
191707,727.688,-308.005,0,0
191967,736.977,-313.699,0,0
192227,746.175,-320.21,0,0
192488,753.796,-326.992,0,0
192748,760.438,-333.05,0,0
193008,767.473,-337.062,0,0
193269,776.734,-340.499,0,0
193529,788.05,-344.968,0,0
193789,800.431,-350.694,0,0
194050,814.098,-358.252,0,0
194310,827.756,-368.104,0,0
194570,841.022,-379.857,0,0
194831,853.53,-393.353,0,0
195091,864.686,-408.195,0,0
195351,874.797,-423.555,0,0
195612,884.87,-439.534,0,0
195872,894.635,-456.842,0,0
196132,903.429,-476.074,0,0
196393,910.444,-497.075,0,0
196653,914.994,-519.039,0,0
196913,917.212,-541.015,0,0
197174,917.788,-562.631,0,0
197434,917.02,-583.922,0,0
197694,914.905,-605.404,0,0
197955,910.908,-626.71,0,0
198215,905.148,-647.489,0,0
198475,897.565,-667.174,0,0
198735,889.054,-685.419,0,0
198996,880.023,-702.675,0,0
199256,870.245,-719.207,0,0
199516,860.362,-734.791,0,0
199777,849.852,-750.588,0,0
200037,837.97,-765.985,0,0
200297,824.257,-780.395,0,0
200558,809.35,-793.024,0,0
200818,794.224,-803.167,0,0
201078,779.866,-811.759,0,0
201339,766.276,-819.604,0,0
201599,752.784,-827.498,0,0
201859,738.932,-835.004,0,0
202120,724.53,-841.751,0,0
202380.025,709.253,-847.693,0,0
202640.35,693.292,-852.077,0,0
202900.675,677.565,-854.358,0,0
203161.0,662.84,-854.857,0,0
203421.325,649.076,-854.753,0,0
203681.65,636.139,-853.719,0,0
203941.975,624.227,-851.925,0,0
204202.3,613.302,-849.858,0,0
204462.625,603.291,-847.585,0,0
204722.95,593.873,-845.438,0,0
204983.275,585.017,-843.41,0,0
205243.6,576.265,-841.46,0,0
205503.925,567.511,-839.444,0,0
205764.25,558.708,-837.006,0,0
206024.575,549.852,-833.935,0,0
206284.9,541.3,-829.896,0,0
206545.225,533.729,-824.71,0,0
206805.55,527.461,-819.211,0,0
207065.875,522.418,-813.842,0,0
207326.2,518.433,-808.821,0,0
207586.525,515.08,-804.417,0,0
207846.85,512.129,-800.493,0,0
208107.175,509.391,-796.986,0,0
208367.5,506.81,-793.685,0,0
208627.825,504.497,-790.663,0,0
208888.15,502.3,-787.794,0,0
209148.475,500.231,-784.894,0,0
209408.8,498.527,-782.208,0,0
209669.125,497.154,-779.624,0,0
209929.45,496.138,-777.24,0,0
210189.775,495.371,-775.129,0,0
210450.1,494.79,-773.477,0,0
210710.425,494.389,-771.957,0,0
210970.75,494.17,-770.777,0,0
211231.075,494.163,-770.033,0,0
211491.4,494.188,-769.494,0,0
211751.725,494.458,-769.576,0,0
212012.05,494.432,-770.167,0,0
212272.375,494.145,-771.045,0,0
212532.7,493.633,-772.13,0,0
212793.025,493.063,-773.501,0,0
213053.35,492.025,-775.162,0,0
213313.675,490.765,-776.943,0,0
213574.0,489.129,-778.788,0,0
213834.325,487.136,-780.633,0,0
214094.65,484.833,-782.411,0,0
214354.975,482.29,-784,0,0
214615.3,479.44,-785.445,0,0
214875.625,476.489,-786.624,0,0
215135.95,473.388,-787.681,0,0
215396.275,470.112,-788.414,0,0
215656.6,466.684,-788.862,0,0
215916.925,463.192,-788.878,0,0
216177.25,459.897,-788.534,0,0
216437.575,456.787,-787.893,0,0
216697.9,453.894,-786.886,0,0
216958.225,451.396,-785.475,0,0
217218.55,449.569,-784.054,0,0
217478.875,448.31,-782.781,0,0
217739.2,447.361,-781.709,0,0
217999.525,446.792,-781.007,0,0
218259.85,446.284,-780.69,0,0
218520,445.619,-780.705,0,0
218780,444.926,-780.958,0,0
219041,444.141,-781.167,0,0
219301,443.464,-781.279,0,0
219561,443.056,-781.501,0,0
219822,442.785,-781.896,0,0
220082,442.653,-782.704,0,0
220342,442.437,-783.801,0,0
220603,442.207,-784.999,0,0
220863,441.962,-786.712,0,0
221123,441.464,-788.656,0,0
221384,440.701,-790.62,0,0
221644,439.869,-792.494,0,0
221904,439.079,-794.688,0,0
222165,438.18,-797.068,0,0
222425,437.152,-799.739,0,0
222685,435.711,-802.803,0,0
222946,433.813,-805.96,0,0
223206,431.367,-808.881,0,0
223466,428.667,-811.433,0,0
223727,426.047,-813.784,0,0
223987,423.546,-815.923,0,0
224247,421.002,-818.298,0,0
224508,418.645,-820.742,0,0
224768,416.147,-823.359,0,0
225028,413.366,-826.091,0,0
225289,410.333,-829.134,0,0
225549,406.981,-832.307,0,0
225809,403.082,-835.749,0,0
226070,398.435,-838.764,0,0
226330,393.474,-841.259,0,0
226590,388.394,-843.206,0,0
226851,383.345,-844.916,0,0
227111,378.169,-846.455,0,0
227371,372.908,-847.855,0,0
227632,367.01,-848.916,0,0
227892,361.331,-849.282,0,0
228152,355.785,-849.126,0,0
228413,350.714,-848.459,0,0
228673,346.163,-847.696,0,0
228933,341.889,-847.095,0,0
229193,337.88,-846.591,0,0
229454,333.983,-846.352,0,0
229714,329.942,-846.273,0,0
229974,325.89,-846.29,0,0
230235,321.566,-846.42,0,0
230495,316.951,-846.534,0,0
230755,311.953,-846.318,0,0
231016,306.974,-845.709,0,0
231276,302.135,-844.879,0,0
231536,297.253,-843.984,0,0
231797,292.362,-842.896,0,0
232057,287.457,-841.562,0,0
232317,282.61,-840.031,0,0
232578,277.777,-838.259,0,0
232838,273.096,-836.226,0,0
233098,268.593,-834.111,0,0
233359,264.183,-831.903,0,0
233619,259.808,-829.596,0,0
233879,255.485,-827.034,0,0
234140,251.323,-824.307,0,0
234400,247.275,-821.421,0,0
234660.3,243.409,-818.407,0,0
234920.625,239.763,-815.219,0,0
235180.95,236.161,-811.839,0,0
235441.275,233.054,-808.368,0,0
235701.6,230.14,-804.865,0,0
235961.925,227.433,-801.419,0,0
236222.25,224.867,-797.963,0,0
236482.575,222.548,-794.522,0,0
236742.9,220.381,-791.04,0,0
237003.225,218.503,-787.666,0,0
237263.55,216.696,-784.358,0,0
237523.875,215.139,-781.1,0,0
237784.2,213.714,-777.927,0,0
238044.525,212.435,-774.845,0,0
238304.85,211.287,-771.817,0,0
238565.175,210.248,-768.851,0,0
238825.5,209.489,-765.965,0,0
239085.825,208.952,-763.338,0,0
239346.15,208.598,-761.026,0,0
239606.475,208.316,-759.037,0,0
239866.8,207.84,-757.406,0,0
240127.125,207.248,-755.942,0,0
240387.45,206.412,-754.799,0,0
240647.775,205.362,-753.594,0,0
240908.1,204.08,-752.492,0,0
241168.425,202.646,-751.435,0,0
241428.75,200.94,-750.292,0,0
241689.075,199.017,-749.094,0,0
241949.4,197.037,-747.614,0,0
242209.725,194.987,-746.009,0,0
242470.05,192.899,-744.335,0,0
242730.375,190.742,-742.376,0,0
242990.7,188.728,-740.197,0,0
243251.025,186.744,-737.968,0,0
243511.35,184.891,-735.588,0,0
243771.675,183.155,-733.144,0,0
244032.0,181.443,-730.673,0,0
244292.325,179.889,-728.053,0,0
244552.65,178.466,-725.36,0,0
244812.975,177.215,-722.78,0,0
245073.3,176.021,-720.231,0,0
245333.625,174.783,-717.64,0,0
245593.95,173.651,-714.975,0,0
245854.275,172.616,-712.199,0,0
246114.6,171.757,-709.464,0,0
246374.925,171.123,-706.744,0,0
246635.25,170.645,-704.159,0,0
246895.575,170.23,-701.748,0,0
247155.9,169.84,-699.444,0,0
247416.225,169.383,-697.323,0,0
247676.55,168.769,-695.191,0,0
247936.875,168.141,-693.163,0,0
248197.2,167.434,-691.056,0,0
248457.525,166.645,-688.893,0,0
248717.85,165.851,-686.669,0,0
248978.175,165.018,-684.266,0,0
249238.5,164.212,-681.74,0,0
249498.825,163.537,-679.146,0,0
249759.15,162.97,-676.371,0,0
250019.475,162.48,-673.499,0,0
250279.8,162.137,-670.66,0,0
250540,162.024,-667.669,0,0
250800,162.051,-664.656,0,0
251061,162.328,-661.572,0,0
251321,162.866,-658.577,0,0
251581,163.709,-655.631,0,0
251842,164.768,-652.833,0,0
252102,166.135,-650.254,0,0
252362,167.628,-648.055,0,0
252623,169.275,-646.195,0,0
252883,170.845,-644.703,0,0
253143,172.223,-643.557,0,0
253404,173.422,-642.606,0,0
253664,174.339,-641.841,0,0
253924,174.978,-641.041,0,0
254185,175.438,-640.263,0,0
254445,175.713,-639.328,0,0
254705,175.909,-638.214,0,0
254966,176.127,-636.948,0,0
255226,176.382,-635.752,0,0
255486,176.652,-634.379,0,0
255747,176.864,-632.941,0,0
256007,177.216,-631.402,0,0
256267,177.732,-629.859,0,0
256528,178.34,-628.397,0,0
256788,178.992,-626.978,0,0
257048,179.648,-625.568,0,0
257309,180.364,-624.126,0,0
257569,181.172,-622.68,0,0
257829,182.093,-621.321,0,0
258090,183.075,-620.014,0,0
258350,184.127,-618.749,0,0
258610,185.213,-617.607,0,0
258871,186.359,-616.515,0,0
259131,187.563,-615.521,0,0
259391,188.75,-614.658,0,0
259651,190.024,-613.832,0,0
259912,191.36,-613.037,0,0
260172,192.612,-612.509,0,0
260432,193.806,-612.075,0,0
260693,194.932,-611.656,0,0
260953,196.09,-611.261,0,0
261213,197.215,-610.96,0,0
261474,198.359,-610.712,0,0
261734,199.444,-610.497,0,0
261994,200.587,-610.419,0,0
262255,201.674,-610.509,0,0
262515,202.566,-610.781,0,0
262775,203.177,-611.024,0,0
263036,203.677,-611.074,0,0
263296,204.201,-611.047,0,0
263556,204.689,-611.004,0,0
263817,205.171,-610.99,0,0
264077,205.521,-610.91,0,0
264337,205.802,-610.636,0,0
264598,206.174,-610.127,0,0
264858,206.613,-609.458,0,0
265118,207.244,-608.705,0,0
265379,208.107,-607.917,0,0
265639,209.083,-607.121,0,0
265899,210.306,-606.293,0,0
266160,211.733,-605.458,0,0
266420,213.457,-604.741,0,0
266680.25,215.433,-604.179,0,0
266940.575,217.653,-603.802,0,0
267200.9,220.096,-603.67,0,0
267461.225,222.731,-603.849,0,0
267721.55,225.495,-604.424,0,0
267981.875,228.302,-605.338,0,0
268242.2,231.211,-606.69,0,0
268502.525,234.035,-608.454,0,0
268762.85,236.883,-610.506,0,0
269023.175,239.464,-613.123,0,0
269283.5,241.717,-616.132,0,0
269543.825,243.727,-619.399,0,0
269804.15,245.385,-622.895,0,0
270064.475,246.762,-626.739,0,0
270324.8,247.828,-630.746,0,0
270585.125,248.526,-634.969,0,0
270845.45,248.89,-639.329,0,0
271105.775,248.7,-643.791,0,0
271366.1,248.104,-648.348,0,0
271626.425,247.092,-652.91,0,0
271886.75,245.594,-657.43,0,0
272147.075,243.667,-661.892,0,0
272407.4,241.338,-666.154,0,0
272667.725,238.588,-670.279,0,0
272928.05,235.436,-674.194,0,0
273188.375,231.96,-677.849,0,0
273448.7,228.111,-681.228,0,0
273709.025,223.988,-684.288,0,0
273969.35,219.512,-686.963,0,0
274229.675,214.824,-689.297,0,0
274490.0,209.815,-691.025,0,0
274750.325,204.747,-692.305,0,0
275010.65,199.631,-693.053,0,0
275270.975,194.686,-693.279,0,0
275531.3,189.83,-693.081,0,0
275791.625,185.218,-692.441,0,0
276051.95,180.899,-691.567,0,0
276312.275,176.877,-690.454,0,0
276572.6,173.107,-689.197,0,0
276832.925,169.529,-687.856,0,0
277093.25,166.133,-686.487,0,0
277353.575,162.863,-685.054,0,0
277613.9,159.694,-683.46,0,0
277874.225,156.661,-681.829,0,0
278134.55,153.75,-680.1,0,0
278394.875,150.939,-678.327,0,0
278655.2,148.198,-676.475,0,0
278915.525,145.545,-674.44,0,0
279175.85,143.038,-672.289,0,0
279436.175,140.663,-669.962,0,0
279696.5,138.562,-667.526,0,0
279956.825,136.736,-665.011,0,0
280217.15,135.12,-662.497,0,0
280477.475,133.762,-660.068,0,0
280737.8,132.557,-657.669,0,0
280998.125,131.599,-655.345,0,0
281258.45,130.762,-653.125,0,0
281518.775,130.065,-650.984,0,0
281779.1,129.477,-648.951,0,0
282039.425,129.014,-647.002,0,0
282299.75,128.689,-645.189,0,0
282560,128.486,-643.541,0,0
282820,128.311,-642.112,0,0
283081,128.064,-640.874,0,0
283341,127.708,-639.719,0,0
283601,127.228,-638.579,0,0
283862,126.703,-637.43,0,0
284122,126.174,-636.213,0,0
284382,125.658,-635.001,0,0
284643,125.141,-633.7,0,0
284903,124.661,-632.321,0,0
285163,124.339,-630.845,0,0
285424,124.242,-629.351,0,0
285684,124.377,-627.899,0,0
285944,124.677,-626.644,0,0
286205,125.177,-625.575,0,0
286465,125.78,-624.72,0,0
286725,126.49,-624.146,0,0
286986,127.182,-623.859,0,0
287246,127.859,-623.934,0,0
287506,128.381,-624.332,0,0
287767,128.673,-625.008,0,0
288027,128.601,-625.899,0,0
288287,128.206,-626.912,0,0
288548,127.4,-627.903,0,0
288808,126.268,-628.794,0,0
289068,124.904,-629.521,0,0
289329,123.348,-630.052,0,0
289589,121.64,-630.379,0,0
289849,119.837,-630.517,0,0
290109,117.985,-630.408,0,0
290370,116.196,-630.085,0,0
290630,114.493,-629.647,0,0
290890,112.836,-629.16,0,0
291151,111.248,-628.648,0,0
291411,109.664,-628.122,0,0
291671,108.05,-627.592,0,0
291932,106.391,-627.004,0,0
292192,104.681,-626.34,0,0
292452,102.937,-625.578,0,0
292713,101.206,-624.709,0,0
292973,99.4761,-623.696,0,0
293233,97.8126,-622.632,0,0
293494,96.199,-621.495,0,0
293754,94.6448,-620.313,0,0
294014,93.119,-619.016,0,0
294275,91.6145,-617.734,0,0
294535,90.1432,-616.373,0,0
294795,88.7432,-614.937,0,0
295056,87.3994,-613.419,0,0
295316,86.1064,-611.876,0,0
295576,84.9154,-610.28,0,0
295837,83.8471,-608.646,0,0
296097,82.8645,-607.056,0,0
296357,81.9336,-605.458,0,0
296618,81.0748,-603.91,0,0
296878,80.2108,-602.361,0,0
297138,79.4095,-600.844,0,0
297399,78.6039,-599.328,0,0
297659,77.8372,-597.812,0,0
297919,77.0828,-596.272,0,0
298180,76.3673,-594.733,0,0
298440,75.6939,-593.171,0,0
298700.2,75.0447,-591.622,0,0
298960.525,74.4224,-590.053,0,0
299220.85,73.8627,-588.481,0,0
299481.175,73.3089,-586.872,0,0
299741.5,72.7987,-585.291,0,0
300001.825,72.3325,-583.658,0,0
300262.15,71.9449,-582.023,0,0
300522.475,71.6234,-580.392,0,0
300782.8,71.355,-578.766,0,0
301043.125,71.1704,-577.148,0,0
301303.45,71.0491,-575.564,0,0
301563.775,71.0212,-574.022,0,0
301824.1,71.0533,-572.519,0,0
302084.425,71.1005,-571.122,0,0
302344.75,71.1947,-569.772,0,0
302605.075,71.3163,-568.47,0,0
302865.4,71.4378,-567.241,0,0
303125.725,71.5791,-566.056,0,0
303386.05,71.6989,-564.903,0,0
303646.375,71.8087,-563.793,0,0
303906.7,71.9557,-562.733,0,0
304167.025,72.0796,-561.695,0,0
304427.35,72.218,-560.672,0,0
304687.675,72.3567,-559.671,0,0
304948.0,72.5019,-558.7,0,0
305208.325,72.6721,-557.786,0,0
305468.65,72.8394,-556.861,0,0
305728.975,73.0419,-556.01,0,0
305989.3,73.2319,-555.203,0,0
306249.625,73.409,-554.436,0,0
306509.95,73.572,-553.71,0,0
306770.275,73.7427,-553.021,0,0
307030.6,73.8766,-552.377,0,0
307290.925,73.994,-551.749,0,0
307551.25,74.1093,-551.147,0,0
307811.575,74.2365,-550.556,0,0
308071.9,74.3511,-550.027,0,0
308332.225,74.4806,-549.549,0,0
308592.55,74.5828,-549.162,0,0
308852.875,74.6087,-548.855,0,0
309113.2,74.5279,-548.594,0,0
309373.525,74.3455,-548.32,0,0
309633.85,74.077,-548.014,0,0
309894.175,73.7314,-547.655,0,0
310154.5,73.4229,-547.243,0,0
310414.825,73.0599,-546.769,0,0
310675.15,72.7143,-546.26,0,0
310935.475,72.3779,-545.766,0,0
311195.8,72.0461,-545.255,0,0
311456.125,71.6956,-544.735,0,0
311716.45,71.3357,-544.236,0,0
311976.775,70.9583,-543.719,0,0
312237.1,70.5702,-543.205,0,0
312497.425,70.1887,-542.652,0,0
312757.75,69.7641,-542.134,0,0
313018.075,69.3422,-541.577,0,0
313278.4,68.9134,-541.032,0,0
313538.725,68.4573,-540.459,0,0
313799.05,67.9829,-539.87,0,0
314059.375,67.4883,-539.259,0,0
314319.7,66.9744,-538.616,0,0
314580,66.4669,-537.974,0,0
314840,65.972,-537.214,0,0
315101,65.4726,-536.471,0,0
315361,65.0819,-535.644,0,0
315621,64.5798,-534.887,0,0
315882,64.1188,-534.087,0,0
316142,63.7862,-533.25,0,0
316402,63.3979,-532.373,0,0
316663,63.0064,-531.588,0,0
316923,62.6843,-530.671,0,0
317183,62.3593,-529.751,0,0
317444,62.1764,-528.969,0,0
317704,62.0004,-528.091,0,0
317964,61.8294,-527.275,0,0
318225,61.6327,-526.485,0,0
318485,61.3755,-525.701,0,0
318745,61.2998,-524.946,0,0
319006,61.1373,-524.209,0,0
319266,60.9763,-523.423,0,0
319526,60.8992,-522.733,0,0
319787,60.821,-522.069,0,0
320047,60.7532,-521.447,0,0
320307,60.6898,-520.87,0,0
320567,60.5285,-520.279,0,0
320828,60.3098,-519.741,0,0
321088,60.2088,-519.277,0,0
321348,59.9655,-518.777,0,0
321609,59.7653,-518.271,0,0
321869,59.502,-517.706,0,0
322129,59.2714,-517.207,0,0
322390,58.9497,-516.659,0,0
322650,58.6391,-516.203,0,0
322910,58.3168,-515.623,0,0
323171,58.0927,-515.149,0,0
323431,57.7293,-514.657,0,0
323691,57.4051,-514.163,0,0
323952,56.9726,-513.649,0,0
324212,56.571,-513.192,0,0
324472,56.1052,-512.641,0,0
324733,55.6177,-512.077,0,0
324993,55.0825,-511.538,0,0
325253,54.6154,-510.852,0,0
325514,54.0908,-510.15,0,0
325774,53.4981,-509.492,0,0
326034,53.1144,-508.755,0,0
326295,52.719,-507.994,0,0
326555,52.2329,-507.202,0,0
326815,51.8259,-506.431,0,0
327076,51.4153,-505.648,0,0
327336,51.0065,-504.897,0,0
327596,50.6285,-504.055,0,0
327857,50.2635,-503.237,0,0
328117,49.9401,-502.5,0,0
328377,49.536,-501.7,0,0
328638,49.2124,-500.878,0,0
328898,48.8744,-500.068,0,0
329158,48.5384,-499.258,0,0
329419,48.1979,-498.471,0,0
329679,47.8742,-497.685,0,0
329939,47.5757,-496.822,0,0
330200,47.2197,-496,0,0
330460,46.9258,-495.133,0,0
330720.15,46.6124,-494.256,0,0
330980.475,46.2836,-493.444,0,0
331240.8,46.0697,-492.599,0,0
331501.125,45.711,-491.691,0,0
331761.45,45.4843,-490.834,0,0
332021.775,45.2389,-489.906,0,0
332282.1,45.0625,-488.999,0,0
332542.425,44.805,-488.137,0,0
332802.75,44.6128,-487.187,0,0
333063.075,44.4439,-486.27,0,0
333323.4,44.314,-485.419,0,0
333583.725,44.1686,-484.504,0,0
333844.05,44.1169,-483.544,0,0
334104.375,44.0076,-482.612,0,0
334364.7,43.9555,-481.691,0,0
334625.025,43.9343,-480.868,0,0
334885.35,43.9707,-479.991,0,0
335145.675,43.9483,-479.196,0,0
335406.0,43.9763,-478.462,0,0
335666.325,43.9802,-477.619,0,0
335926.65,44.0199,-476.882,0,0
336186.975,44.0546,-476.181,0,0
336447.3,44.0526,-475.459,0,0
336707.625,44.1043,-474.725,0,0
336967.95,44.0584,-474.079,0,0
337228.275,44.1026,-473.417,0,0
337488.6,44.0981,-472.714,0,0
337748.925,44.1002,-472.147,0,0
338009.25,44.0961,-471.537,0,0
338269.575,44.0408,-470.888,0,0
338529.9,43.9691,-470.296,0,0
338790.225,43.8744,-469.714,0,0
339050.55,43.7463,-469.082,0,0
339310.875,43.686,-468.529,0,0
339571.2,43.5907,-467.833,0,0
339831.525,43.4932,-467.25,0,0
340091.85,43.3943,-466.628,0,0
340352.175,43.2736,-466.071,0,0
340612.5,43.1469,-465.456,0,0
340872.825,42.9503,-464.834,0,0
341133.15,42.809,-464.221,0,0
341393.475,42.6579,-463.569,0,0
341653.8,42.4725,-462.913,0,0
341914.125,42.3229,-462.262,0,0
342174.45,42.1417,-461.585,0,0
342434.775,41.9916,-460.841,0,0
342695.1,41.8504,-460.202,0,0
342955.425,41.7011,-459.476,0,0
343215.75,41.5445,-458.741,0,0
343476.075,41.4052,-458.06,0,0
343736.4,41.3234,-457.34,0,0
343996.725,41.1554,-456.617,0,0
344257.05,41.031,-455.854,0,0
344517.375,40.9407,-455.119,0,0
344777.7,40.8466,-454.43,0,0
345038.025,40.751,-453.656,0,0
345298.35,40.678,-452.936,0,0
345558.675,40.588,-452.162,0,0
345819.0,40.5145,-451.438,0,0
346079.325,40.4568,-450.647,0,0
346339.65,40.4048,-449.887,0,0
346599.975,40.4013,-449.14,0,0
346860,40.3697,-448.363,0,0
347121,40.3454,-447.65,0,0
347381,40.3717,-446.877,0,0
347641,40.3958,-446.096,0,0
347902,40.4172,-445.399,0,0
348162,40.484,-444.626,0,0
348422,40.5181,-443.991,0,0
348683,40.5282,-443.232,0,0
348943,40.6134,-442.585,0,0
349203,40.7129,-441.888,0,0
349464,40.7713,-441.218,0,0
349724,40.8402,-440.54,0,0
349984,40.9019,-439.871,0,0
350245,41.0253,-439.191,0,0
350505,41.076,-438.591,0,0
350765,41.1961,-437.912,0,0
351025,41.2426,-437.285,0,0
351286,41.3757,-436.645,0,0
351546,41.406,-436.06,0,0
351806,41.496,-435.463,0,0
352067,41.5907,-434.862,0,0
352327,41.6569,-434.29,0,0
352587,41.7825,-433.699,0,0
352848,41.8329,-433.053,0,0
353108,41.9714,-432.528,0,0
353368,42.0543,-431.951,0,0
353629,42.1388,-431.434,0,0
353889,42.2547,-430.83,0,0
354149,42.3352,-430.276,0,0
354410,42.4083,-429.838,0,0
354670,42.4991,-429.283,0,0
354930,42.5792,-428.772,0,0
355191,42.6419,-428.295,0,0
355451,42.7085,-427.782,0,0
355711,42.773,-427.29,0,0
355972,42.8584,-426.819,0,0
356232,42.9032,-426.365,0,0
356492,42.9103,-425.913,0,0
356753,42.9483,-425.449,0,0
357013,42.937,-424.989,0,0
357273,42.9492,-424.548,0,0
357534,42.8823,-424.071,0,0
357794,42.8091,-423.589,0,0
358054,42.793,-423.054,0,0
358315,42.7426,-422.572,0,0
358575,42.7491,-422.04,0,0
358835,42.6544,-421.516,0,0
359096,42.6145,-420.982,0,0
359356,42.574,-420.472,0,0
359616,42.558,-419.856,0,0
359877,42.5094,-419.283,0,0
360137,42.4708,-418.786,0,0
360397,42.4342,-418.211,0,0
360658,42.4203,-417.642,0,0
360918,42.4067,-417.051,0,0
361178,42.4152,-416.467,0,0
361438,42.3945,-415.893,0,0
361699,42.3891,-415.358,0,0
361959,42.3919,-414.772,0,0
362219,42.4115,-414.158,0,0
362480,42.4081,-413.577,0,0
362740.1,42.4361,-413.008,0,0
363000.425,42.4178,-412.403,0,0
363260.75,42.4786,-411.835,0,0
363521.075,42.5339,-411.208,0,0
363781.4,42.5592,-410.603,0,0
364041.725,42.6032,-409.978,0,0
364302.05,42.6665,-409.429,0,0
364562.375,42.7568,-408.802,0,0
364822.7,42.8558,-408.207,0,0
365083.025,42.957,-407.601,0,0
365343.35,43.129,-407.006,0,0
365603.675,43.258,-406.47,0,0
365864.0,43.387,-405.915,0,0
366124.325,43.5786,-405.387,0,0
366384.65,43.6792,-404.94,0,0
366644.975,43.8364,-404.439,0,0
366905.3,43.9089,-403.954,0,0
367165.625,44.0237,-403.441,0,0
367425.95,44.0966,-402.977,0,0
367686.275,44.1523,-402.494,0,0
367946.6,44.2612,-401.965,0,0
368206.925,44.3484,-401.456,0,0
368467.25,44.4318,-400.96,0,0
368727.575,44.5362,-400.349,0,0
368987.9,44.661,-399.846,0,0
369248.225,44.7922,-399.308,0,0
369508.55,44.9453,-398.714,0,0
369768.875,45.1036,-398.17,0,0
370029.2,45.3472,-397.676,0,0
370289.525,45.5858,-397.168,0,0
370549.85,45.8303,-396.701,0,0
370810.175,46.0651,-396.248,0,0
371070.5,46.322,-395.87,0,0
371330.825,46.5536,-395.52,0,0
371591.15,46.7387,-395.138,0,0
371851.475,46.9842,-394.81,0,0
372111.8,47.1678,-394.497,0,0
372372.125,47.3267,-394.181,0,0
372632.45,47.4652,-393.889,0,0
372892.775,47.64,-393.574,0,0
373153.1,47.7584,-393.311,0,0
373413.425,47.8389,-393.06,0,0
373673.75,47.8897,-392.782,0,0
373934.075,47.9571,-392.482,0,0
374194.4,48.0074,-392.185,0,0
374454.725,48.045,-391.854,0,0
374715.05,48.0953,-391.562,0,0
374975.375,48.0894,-391.241,0,0
375235.7,48.1594,-390.909,0,0
375496.025,48.1435,-390.53,0,0
375756.35,48.1975,-390.176,0,0
376016.675,48.2266,-389.808,0,0
376277.0,48.2958,-389.43,0,0
376537.325,48.378,-389.106,0,0
376797.65,48.4808,-388.747,0,0
377057.975,48.5209,-388.433,0,0
377318.3,48.6197,-388.115,0,0
377578.625,48.6941,-387.843,0,0
377838.95,48.7531,-387.633,0,0
378099.275,48.8008,-387.414,0,0
378359.6,48.7498,-387.183,0,0
378619.925,48.71,-386.962,0,0
378880,48.5997,-386.714,0,0
379141,48.4934,-386.432,0,0
379401,48.3331,-386.037,0,0
379661,48.1959,-385.651,0,0
379922,48.073,-385.163,0,0
380182,48.0612,-384.683,0,0
380442,48.093,-384.147,0,0
380703,48.2333,-383.689,0,0
380963,48.368,-383.27,0,0
381223,48.5637,-382.894,0,0
381483,48.7478,-382.647,0,0
381744,48.9136,-382.502,0,0
382004,49.0174,-382.36,0,0
382264,49.0032,-382.277,0,0
382525,48.9988,-382.195,0,0
382785,48.8873,-382.087,0,0
383045,48.7424,-381.962,0,0
383306,48.5206,-381.827,0,0
383566,48.2909,-381.648,0,0
383826,47.9837,-381.416,0,0
384087,47.71,-381.146,0,0
384347,47.423,-380.836,0,0
384607,47.1034,-380.457,0,0
384868,46.8363,-380.098,0,0
385128,46.5356,-379.673,0,0
385388,46.265,-379.208,0,0
385649,45.9915,-378.702,0,0
385909,45.7383,-378.214,0,0
386169,45.5225,-377.716,0,0
386430,45.2742,-377.182,0,0
386690,45.0935,-376.634,0,0
386950,44.9176,-376.09,0,0
387211,44.7417,-375.505,0,0
387471,44.5972,-374.923,0,0
387731,44.4599,-374.335,0,0
387992,44.3463,-373.709,0,0
388252,44.2571,-373.148,0,0
388512,44.1741,-372.527,0,0
388773,44.1497,-371.911,0,0
389033,44.1437,-371.323,0,0
389293,44.102,-370.748,0,0
389554,44.119,-370.155,0,0
389814,44.1471,-369.61,0,0
390074,44.1709,-369.061,0,0
390335,44.1736,-368.572,0,0
390595,44.2156,-368.051,0,0
390855,44.2168,-367.567,0,0
391116,44.2456,-367.046,0,0
391376,44.2266,-366.562,0,0
391636,44.2231,-366.074,0,0
391896,44.2296,-365.569,0,0
392157,44.2397,-365.063,0,0
392417,44.2569,-364.544,0,0
392677,44.2215,-364.09,0,0
392938,44.2368,-363.551,0,0
393198,44.2066,-363.059,0,0
393458,44.2241,-362.548,0,0
393719,44.2206,-362.015,0,0
393979,44.2455,-361.514,0,0
394239,44.2437,-360.982,0,0
394500,44.2724,-360.451,0,0
394760.05,44.3077,-359.96,0,0
395020.375,44.3188,-359.405,0,0
395280.7,44.3505,-358.854,0,0
395541.025,44.4253,-358.335,0,0
395801.35,44.493,-357.803,0,0
396061.675,44.5578,-357.259,0,0
396322.0,44.6516,-356.772,0,0
396582.325,44.7382,-356.286,0,0
396842.65,44.8283,-355.827,0,0
397102.975,44.9152,-355.358,0,0
397363.3,45.0098,-354.889,0,0
397623.625,45.0765,-354.43,0,0
397883.95,45.1084,-354.021,0,0
398144.275,45.1539,-353.559,0,0
398404.6,45.1982,-353.136,0,0
398664.925,45.215,-352.703,0,0
398925.25,45.2589,-352.227,0,0
399185.575,45.2502,-351.782,0,0
399445.9,45.2675,-351.314,0,0
399706.225,45.2836,-350.837,0,0
399966.55,45.2967,-350.366,0,0
400006.6,45.296,-350.266,0,0