File: Accelerated corrosion test data/2025-10-10_18-00-03/sample_1.csv
Frequency (Hz),Impedance (ohms),Phase (Radians),Temperature (C),Humidity (%)
10000.0,239.434,-12182.3,0,0
10260.325,237.846,-11868.7,0,0
10520.65,229.565,-11590.4,0,0
10780.975,224.662,-11305.9,0,0
11041.3,218.367,-11046.2,0,0
11301.625,213.306,-10790.2,0,0
11561.95,209.359,-10547,0,0
11822.275,206.7,-10309,0,0
12082.6,223.664,-10078.8,0,0
12342.925,210.674,-9903.5,0,0
12603.25,193.985,-9691.93,0,0
12863.575,190.163,-9490.68,0,0
13123.9,198.257,-9297.83,0,0
13384.225,184.418,-9128.41,0,0
13644.55,180.376,-8947.33,0,0
13904.875,180.595,-8770.78,0,0
14165.2,193.988,-8636,0,0
14425.525,209.509,-8462.55,0,0
14685.8,197.695,-8302.23,0,0
14946.175,176.952,-8204.09,0,0
15206.5,182.164,-8039.11,0,0
15466.825,173.478,-7924.46,0,0
15727.15,172.193,-7791.1,0,0
15987.5,159.859,-7663.68,0,0
16247.8,156.839,-7537.76,0,0
16508.125,154.676,-7415.14,0,0
16768.45,158.468,-7297.75,0,0
17028.775,162.285,-7190.82,0,0
17289.1,153.88,-7088.22,0,0
17549.425,153.052,-6983.91,0,0
17809.75,145.328,-6881.59,0,0
18070.075,147.431,-6779.97,0,0
18330.4,141.577,-6685.41,0,0
18590.725,137.432,-6591.66,0,0
18851.05,137.919,-6493.46,0,0
19111.375,135.02,-6412.93,0,0
19371.7,132.44,-6320.61,0,0
19632.025,131.54,-6232.04,0,0
19892.35,135.849,-6146.29,0,0
20152.675,134.989,-6059.53,0,0
20413.0,154.411,-5971.25,0,0
20673.3,167.062,-5929.62,0,0
20933.65,150.042,-5860.46,0,0
21193.975,159.548,-5797.53,0,0
21454.3,141.513,-5723.94,0,0
21714.625,137.63,-5655.49,0,0
21974.9,136.786,-5572.78,0,0
22235.275,172.021,-5527.58,0,0
22495.6,141.31,-5487.51,0,0
22755.925,126.795,-5419.19,0,0
23016.25,122.306,-5351.59,0,0
23276.6,118.502,-5290.66,0,0
23536.9,115.272,-5230.15,0,0
23797.225,112.204,-5168.86,0,0
24057.55,114.628,-5108.45,0,0
24317.875,112.208,-5059.95,0,0
24578.2,110.499,-5000.32,0,0
24838.525,110.162,-4950.44,0,0
25098.85,110.637,-4896.56,0,0
25359.175,105.359,-4847.12,0,0
25619.5,104.392,-4796.51,0,0
25879.8,102.806,-4745.18,0,0
26140.1,103.127,-4696,0,0
26400.5,102.182,-4646.23,0,0
26660.8,104.623,-4595.54,0,0
26921.1,113.654,-4547.95,0,0
27181.4,120.127,-4515.36,0,0
27441.8,111.059,-4481.18,0,0
27702.1,103.247,-4432.51,0,0
27962.4,110.293,-4383.01,0,0
28222.7,110.16,-4344.47,0,0
28483.1,120.171,-4301.61,0,0
28743.4,129.77,-4282.99,0,0
29003.7,116.519,-4247.04,0,0
29264,117.98,-4211.56,0,0
29524.4,106.969,-4178.35,0,0
29784.7,104.808,-4136.75,0,0
30045,101.263,-4104.35,0,0
30305.3,99.6772,-4065.69,0,0
30565.7,96.8361,-4027.51,0,0
30826,100.229,-3992.09,0,0
31086.3,103.055,-3963.12,0,0
31346.6,99.4072,-3934.95,0,0
31607,93.6072,-3897.64,0,0
31867.3,96.7969,-3864.24,0,0
32127.6,97.6731,-3833.4,0,0
32387.9,97.9612,-3807.94,0,0
32648.3,93.6229,-3776.32,0,0
32908.6,95.8228,-3747.56,0,0
33168.9,90.8308,-3719.48,0,0
33429.2,88.3934,-3690.93,0,0
33689.6,85.897,-3661.4,0,0
33949.9,85.0041,-3630.54,0,0
34210.2,86.1467,-3604.66,0,0
34470.5,83.3265,-3577.24,0,0
34730.9,81.7638,-3549.36,0,0
34991.2,80.8215,-3521.97,0,0
35251.5,79.8776,-3495.47,0,0
35511.8,79.2084,-3469.17,0,0
35772.2,78.9628,-3443.61,0,0
36032.5,77.6398,-3418.4,0,0
36292.8,77.0699,-3393.01,0,0
36553.1,76.446,-3368.14,0,0
36813.5,76.026,-3343.59,0,0
37073.8,75.7522,-3319.82,0,0
37334.1,75.0906,-3296.16,0,0
37594.4,74.7686,-3273.17,0,0
37854.8,74.038,-3250.15,0,0
38115.1,73.5211,-3227.3,0,0
38375.4,73.059,-3204.5,0,0
38635.7,72.6263,-3182.94,0,0
38896.1,72.2112,-3160.86,0,0
39156.4,72.1578,-3138.9,0,0
39416.7,72.0476,-3118.59,0,0
39677,71.2183,-3097.61,0,0
39937.4,70.9583,-3076.41,0,0
40197.7,71.2573,-3056.34,0,0
40458,70.4555,-3035.66,0,0
40718.3,70.6461,-3015.32,0,0
40978.7,71.8495,-2996.07,0,0
41239,71.9008,-2977.63,0,0
41499.3,71.3887,-2959.32,0,0
41759.6,70.9393,-2941.04,0,0
42020,69.8917,-2922.08,0,0
42280.275,69.9648,-2903.6,0,0
42540.6,70.4979,-2885.64,0,0
42800.925,69.9555,-2868.72,0,0
43061.25,69.3305,-2850.65,0,0
43321.575,68.9667,-2833.9,0,0
43581.9,68.517,-2816.14,0,0
43842.225,67.787,-2798.57,0,0
44102.55,67.5847,-2781.23,0,0
44362.875,68.6691,-2764.68,0,0
44623.2,69.0169,-2749.14,0,0
44883.525,68.1157,-2733.44,0,0
45143.85,68.2049,-2717.75,0,0
45404.175,68.5532,-2701.97,0,0
45664.5,67.5033,-2687.25,0,0
45924.825,66.4356,-2671.6,0,0
46185.15,66.5244,-2656.47,0,0
46445.475,65.4816,-2641.4,0,0
46705.8,64.9771,-2626.21,0,0
46966.125,64.8942,-2611.35,0,0
47226.45,64.2588,-2596.22,0,0
47486.775,64.3987,-2582,0,0
47747.1,63.7993,-2567.68,0,0
48007.425,63.3601,-2553.33,0,0
48267.75,63.4882,-2539.21,0,0
48528.075,62.5881,-2526.02,0,0
48788.4,61.5181,-2511.69,0,0
49048.725,61.3548,-2497.9,0,0
49309.05,61.3466,-2483.87,0,0
49569.375,61.2822,-2470.86,0,0
49829.7,60.8401,-2457.83,0,0
50090.025,60.1806,-2444.7,0,0
50350.35,59.7176,-2431.24,0,0
50610.675,59.4527,-2418.14,0,0
50871.0,59.2882,-2405.15,0,0
51131.325,59.1354,-2392.34,0,0
51391.65,59.1832,-2380.07,0,0
51651.975,58.7006,-2367.84,0,0
51912.3,58.2101,-2355.39,0,0
52172.625,58.0777,-2342.96,0,0
52432.95,57.975,-2330.93,0,0
52693.275,57.7113,-2319.03,0,0
52953.6,57.5423,-2306.98,0,0
53213.925,57.5696,-2295.32,0,0
53474.25,57.4075,-2283.93,0,0
53734.575,57.3305,-2272.3,0,0
53994.9,57.2521,-2261.2,0,0
54255.225,56.6852,-2250.07,0,0
54515.55,56.3111,-2238.86,0,0
54775.875,55.7908,-2227.47,0,0
55036.2,55.7759,-2216.2,0,0
55296.525,55.8976,-2205.31,0,0
55556.85,55.7914,-2194.72,0,0
55817.175,55.4236,-2184.27,0,0
56077.5,54.9538,-2173.52,0,0
56337.825,54.9257,-2162.72,0,0
56598.15,54.9309,-2152.13,0,0
56858.475,54.7254,-2141.87,0,0
57118.8,54.6432,-2131.7,0,0
57379.125,54.4742,-2121.28,0,0
57639.45,54.7386,-2111.14,0,0
57899.775,54.4801,-2101.32,0,0
58160.1,54.5476,-2091.42,0,0
58420.4,54.4769,-2081.7,0,0
58680.7,54.2039,-2072.01,0,0
58941.1,54.2446,-2062.28,0,0
59201.4,54.4385,-2052.6,0,0
59461.7,54.4083,-2043.52,0,0
59722,54.1433,-2033.99,0,0
59982.4,54.117,-2024.59,0,0
60242.7,54.197,-2015.6,0,0
60503,54.1959,-2006.3,0,0
60763.3,54.5002,-1997.45,0,0
61023.7,54.1342,-1989.16,0,0
61284,53.6649,-1980.16,0,0
61544.3,53.2769,-1971.12,0,0
61804.6,53.4491,-1962.21,0,0
62065,53.0939,-1953.81,0,0
62325.3,52.794,-1944.9,0,0
62585.6,52.5046,-1936.12,0,0
62845.9,52.5121,-1927.38,0,0
63106.3,52.5535,-1918.72,0,0
63366.6,52.4079,-1910.41,0,0
63626.9,52.3821,-1901.85,0,0
63887.2,52.4959,-1893.33,0,0
64147.6,52.6062,-1885.01,0,0
64407.9,52.7737,-1876.48,0,0
64668.2,52.8477,-1868.23,0,0
64928.5,53.6197,-1860.15,0,0
65188.9,54.0731,-1852.25,0,0
65449.2,54.7574,-1844.59,0,0
65709.5,55.2278,-1837.55,0,0
65969.8,55.0539,-1830.46,0,0
66230.2,54.9595,-1823.32,0,0
66490.5,54.9329,-1815.99,0,0
66750.8,54.7564,-1808.87,0,0
67011.1,54.389,-1801.75,0,0
67271.5,53.6973,-1794.13,0,0
67531.8,54.171,-1786.4,0,0
67792.1,54.2616,-1779.43,0,0
68052.4,54.2947,-1773.05,0,0
68312.8,53.5334,-1765.96,0,0
68573.1,53.2383,-1758.61,0,0
68833.4,53.5971,-1751.5,0,0
69093.7,53.3103,-1744.92,0,0
69354.1,52.9571,-1738.18,0,0
69614.4,52.8478,-1731.5,0,0
69874.7,52.0939,-1724.81,0,0
70135,51.7283,-1717.93,0,0
70395.4,51.0603,-1711.06,0,0
70655.7,50.6361,-1703.82,0,0
70916,50.6176,-1696.79,0,0
71176.3,50.4208,-1690.21,0,0
71436.7,50.2673,-1683.54,0,0
71697,49.8471,-1677.06,0,0
71957.3,49.3463,-1670.28,0,0
72217.6,48.8675,-1663.59,0,0
72478,48.4942,-1656.58,0,0
72738.3,48.266,-1649.75,0,0
72998.6,48.2859,-1642.87,0,0
73258.9,48.3548,-1636.19,0,0
73519.3,48.2515,-1629.73,0,0
73779.6,48.0361,-1623.16,0,0
74039.9,48.1165,-1616.43,0,0
74300.225,48.2466,-1610.02,0,0
74560.55,48.2515,-1603.69,0,0
74820.875,48.3646,-1597.21,0,0
75081.2,48.5654,-1590.94,0,0
75341.525,48.5913,-1584.82,0,0
75601.85,48.5109,-1578.6,0,0
75862.175,48.7892,-1572.23,0,0
76122.5,48.9152,-1566.02,0,0
76382.825,49.2795,-1559.96,0,0
76643.15,49.5007,-1554.14,0,0
76903.475,49.6269,-1548.11,0,0
77163.8,49.9826,-1542.14,0,0
77424.125,50.1329,-1536.48,0,0
77684.45,50.2679,-1530.65,0,0
77944.775,50.4211,-1524.91,0,0
78205.1,50.7192,-1519.04,0,0
78465.425,51.306,-1513.36,0,0
78725.75,51.805,-1508.23,0,0
78986.075,51.8626,-1503.09,0,0
79246.4,51.8219,-1497.97,0,0
79506.725,51.7309,-1492.79,0,0
79767.05,51.3006,-1487.53,0,0
80027.375,51.3746,-1481.92,0,0
80287.7,51.232,-1476.7,0,0
80548.025,50.725,-1471.22,0,0
80808.35,50.6205,-1465.7,0,0
81068.675,50.4984,-1460.04,0,0
81329.0,50.5362,-1454.29,0,0
81589.325,50.6806,-1448.91,0,0
81849.65,50.8639,-1443.45,0,0
82109.975,50.964,-1438.13,0,0
82370.3,51.1104,-1432.83,0,0
82630.625,51.1232,-1427.51,0,0
82890.95,51.2783,-1422.09,0,0
83151.275,51.5765,-1416.64,0,0
83411.6,52.0353,-1411.44,0,0
83671.925,52.2346,-1406.35,0,0
83932.25,52.4559,-1401.18,0,0
84192.575,52.8494,-1396.08,0,0
84452.9,53.1589,-1391.02,0,0
84713.225,53.5232,-1385.96,0,0
84973.55,53.9493,-1380.86,0,0
85233.875,54.4882,-1375.95,0,0
85494.2,55.0595,-1371.4,0,0
85754.525,55.3848,-1366.83,0,0
86014.85,55.5901,-1362.22,0,0
86275.175,55.7785,-1357.56,0,0
86535.5,55.9668,-1352.94,0,0
86795.825,56.1243,-1348.4,0,0
87056.15,56.182,-1343.69,0,0
87316.475,56.5465,-1338.98,0,0
87576.8,56.6564,-1334.62,0,0
87837.125,56.59,-1330.06,0,0
88097.45,56.3224,-1325.25,0,0
88357.775,56.3682,-1320.27,0,0
88618.1,56.6879,-1315.08,0,0
88878.425,57.2883,-1310.28,0,0
89138.75,57.5863,-1305.4,0,0
89399.075,58.1256,-1300.59,0,0
89659.4,58.7237,-1295.76,0,0
89919.725,59.4782,-1290.99,0,0
90180,60.3959,-1286.6,0,0
90440.4,61.0343,-1282.1,0,0
90700.7,61.5619,-1277.31,0,0
90961,62.5621,-1272.52,0,0
91221.3,64.0853,-1267.99,0,0
91481.7,65.4641,-1263.94,0,0
91742,66.8699,-1259.98,0,0
92002.3,67.9128,-1256.51,0,0
92262.6,68.9051,-1252.7,0,0
92523,70.2498,-1248.71,0,0
92783.3,72.0418,-1245.07,0,0
93043.6,73.8078,-1242.42,0,0
93303.9,75.2338,-1239.72,0,0
93564.3,76.589,-1237.33,0,0
93824.6,78.4144,-1235.91,0,0
94084.9,78.695,-1236.19,0,0
94345.2,76.3283,-1235.67,0,0
94605.6,73.4681,-1232.52,0,0
94865.9,72.3772,-1228.85,0,0
95126.2,70.8353,-1225.71,0,0
95386.5,69.5729,-1221.9,0,0
95646.9,68.0972,-1218.09,0,0
95907.2,66.8785,-1213.81,0,0
96167.5,66.113,-1209.11,0,0
96427.8,66.2035,-1204.72,0,0
96688.2,65.9813,-1201.22,0,0
96948.5,65.2218,-1197.33,0,0
97208.8,64.6168,-1193.17,0,0
97469.1,64.2238,-1188.89,0,0
97729.5,63.9832,-1184.61,0,0
97989.8,64.0378,-1180.36,0,0
98250.1,64.132,-1176.33,0,0
98510.4,64.2829,-1172.52,0,0
98770.8,64.0522,-1168.94,0,0
99031.1,63.6759,-1164.98,0,0
99291.4,63.5104,-1160.91,0,0
99551.7,63.3666,-1156.92,0,0
99812.1,63.1939,-1152.87,0,0
100072,63.3302,-1148.72,0,0
100333,63.3776,-1144.8,0,0
100593,63.3455,-1140.78,0,0
100853,63.4121,-1136.85,0,0
101114,63.4623,-1132.84,0,0
101374,63.4432,-1128.97,0,0
101634,63.3154,-1124.87,0,0
101895,63.2056,-1120.73,0,0
102155,63.0801,-1116.32,0,0
102415,63.2018,-1111.51,0,0
102676,64.0085,-1106.55,0,0
102936,65.2319,-1102.11,0,0
103196,66.3446,-1098.15,0,0
103457,67.3037,-1094.17,0,0
103717,68.2512,-1090.12,0,0
103977,69.4844,-1086.03,0,0
104238,71.0887,-1081.98,0,0
104498,72.8237,-1078.69,0,0
104758,74.2032,-1075.71,0,0
105019,75.109,-1072.76,0,0
105279,75.9619,-1069.38,0,0
105539,77.1753,-1065.85,0,0
105800,78.5595,-1062.59,0,0
106060,80.0623,-1059.47,0,0
106320.175,81.595,-1056.57,0,0
106580.5,83.0001,-1053.92,0,0
106840.825,84.325,-1051.43,0,0
107101.15,85.4664,-1048.93,0,0
107361.475,86.8487,-1046.42,0,0
107621.8,88.1093,-1044.31,0,0
107882.125,89.0326,-1042.28,0,0
108142.45,89.7933,-1040.12,0,0
108402.775,90.6305,-1037.84,0,0
108663.1,91.6696,-1035.7,0,0
108923.425,92.5938,-1033.88,0,0
109183.75,93.3584,-1032.06,0,0
109444.075,94.0921,-1030.49,0,0
109704.4,94.3865,-1029.06,0,0
109964.725,94.4104,-1027.62,0,0
110225.05,93.9996,-1025.89,0,0
110485.375,93.4164,-1023.73,0,0
110745.7,93.1757,-1021.18,0,0
111006.025,93.2579,-1018.44,0,0
111266.35,93.5491,-1015.87,0,0
111526.675,94.2276,-1013.33,0,0
111787.0,94.6245,-1011.36,0,0
112047.325,94.9383,-1009.3,0,0
112307.65,95.2568,-1007.34,0,0
112567.975,95.6426,-1005.43,0,0
112828.3,95.8265,-1003.82,0,0
113088.625,95.8494,-1002.07,0,0
113348.95,95.8803,-1000.46,0,0
113609.275,95.6482,-998.879,0,0
113869.6,95.335,-997.406,0,0
114129.925,94.6585,-995.84,0,0
114390.25,93.7981,-993.898,0,0
114650.575,93.1706,-991.883,0,0
114910.9,92.5577,-989.962,0,0
115171.225,91.707,-988.05,0,0
115431.55,90.8139,-986.012,0,0
115691.875,89.7208,-983.886,0,0
115952.2,88.5221,-981.394,0,0
116212.525,87.5488,-978.655,0,0
116472.85,86.7217,-975.96,0,0
116733.175,85.9596,-973.279,0,0
116993.5,85.1726,-970.578,0,0
117253.825,84.2909,-967.825,0,0
117514.15,83.3947,-964.882,0,0
117774.475,82.7107,-961.716,0,0
118034.8,82.1569,-958.566,0,0
118295.125,81.7977,-955.395,0,0
118555.45,81.4337,-952.402,0,0
118815.775,81.0947,-949.257,0,0
119076.1,80.8939,-946.043,0,0
119336.425,80.7814,-942.953,0,0
119596.75,80.7897,-939.919,0,0
119857.075,80.9997,-936.882,0,0
120117.4,81.2389,-934.082,0,0
120377.725,81.3661,-931.423,0,0
120638.05,81.4883,-928.834,0,0
120898.375,81.5831,-926.394,0,0
121158.7,81.4514,-924.029,0,0
121419.025,81.0977,-921.498,0,0
121679.35,80.8589,-918.901,0,0
121939.675,80.4714,-916.34,0,0
122200.0,80.0635,-913.536,0,0
122460,79.784,-910.601,0,0
122721,79.6131,-907.743,0,0
122981,79.4341,-904.94,0,0
123241,79.1454,-902.063,0,0
123502,78.9709,-899.06,0,0
123762,78.8372,-896.092,0,0
124022,78.7885,-893.056,0,0
124283,78.7863,-890.011,0,0
124543,78.8843,-887.026,0,0
124803,79.0289,-884.075,0,0
125064,79.1781,-881.206,0,0
125324,79.2528,-878.275,0,0
125584,79.4623,-875.269,0,0
125845,79.7469,-872.377,0,0
126105,79.9726,-869.572,0,0
126365,80.1919,-866.638,0,0
126626,80.5305,-863.802,0,0
126886,80.7781,-860.963,0,0
127146,81.0451,-858.042,0,0
127406,81.3517,-855.252,0,0
127667,81.7718,-852.381,0,0
127927,82.1151,-849.489,0,0
128187,82.4952,-846.566,0,0
128448,83.1052,-843.756,0,0
128708,83.6551,-841.028,0,0
128968,84.0898,-838.327,0,0
129229,84.5052,-835.522,0,0
129489,85.0193,-832.629,0,0
129749,85.6255,-829.665,0,0
130010,86.5096,-826.633,0,0
130270,87.5641,-823.858,0,0
130530,88.6725,-821.293,0,0
130791,89.721,-818.922,0,0
131051,90.7404,-816.64,0,0
131311,91.7057,-814.464,0,0
131572,92.6191,-812.37,0,0
131832,93.4061,-810.387,0,0
132092,94.1333,-808.403,0,0
132353,94.7177,-806.402,0,0
132613,95.2095,-804.416,0,0
132873,95.7244,-802.213,0,0
133134,96.2911,-800.146,0,0
133394,96.8913,-798.031,0,0
133654,97.4693,-795.986,0,0
133915,97.9402,-793.895,0,0
134175,98.5142,-791.824,0,0
134435,99.0008,-789.835,0,0
134696,99.3468,-787.821,0,0
134956,99.6651,-785.669,0,0
135216,100.195,-783.36,0,0
135477,100.716,-781.142,0,0
135737,101.304,-778.937,0,0
135997,101.861,-776.717,0,0
136258,102.595,-774.461,0,0
136518,103.446,-772.239,0,0
136778,104.403,-770.167,0,0
137039,105.343,-768.291,0,0
137299,106.29,-766.468,0,0
137559,107.322,-764.751,0,0
137819,108.288,-763.452,0,0
138080,108.903,-762.291,0,0
138340.125,109.193,-761.097,0,0
138600.45,109.409,-759.764,0,0
138860.775,109.422,-758.431,0,0
139121.1,109.209,-756.844,0,0
139381.425,109.198,-754.945,0,0
139641.75,109.311,-753.137,0,0
139902.075,109.443,-751.45,0,0
140162.4,109.319,-749.715,0,0
140422.725,109.239,-747.791,0,0
140683.05,109.189,-745.799,0,0
140943.375,109.159,-743.767,0,0
141203.7,109.162,-741.663,0,0
141464.025,109.298,-739.523,0,0
141724.35,109.367,-737.525,0,0
141984.675,109.286,-735.351,0,0
142245.0,109.454,-732.95,0,0
142505.325,109.836,-730.735,0,0
142765.65,110.092,-728.694,0,0
143025.975,110.248,-726.587,0,0
143286.3,110.413,-724.433,0,0
143546.625,110.546,-722.193,0,0
143806.95,110.808,-719.754,0,0
144067.275,111.238,-717.369,0,0
144327.6,111.733,-715.152,0,0
144587.925,112.064,-712.886,0,0
144848.25,112.662,-710.509,0,0
145108.575,113.291,-708.345,0,0
145368.9,113.966,-706.243,0,0
145629.225,114.575,-704.278,0,0
145889.55,115.108,-702.308,0,0
146149.875,115.588,-700.377,0,0
146410.2,115.946,-698.349,0,0
146670.525,116.386,-696.166,0,0
146930.85,117.167,-694.018,0,0
147191.175,117.962,-692.304,0,0
147451.5,118.318,-690.707,0,0
147711.825,118.505,-688.879,0,0
147972.15,118.708,-686.881,0,0
148232.475,118.918,-684.736,0,0
148492.8,119.366,-682.459,0,0
148753.125,119.939,-680.357,0,0
149013.45,120.51,-678.296,0,0
149273.775,121.194,-676.3,0,0
149534.1,121.91,-674.483,0,0
149794.425,122.55,-672.912,0,0
150054.75,122.821,-671.553,0,0
150315.075,122.725,-669.989,0,0
150575.4,122.548,-668.205,0,0
150835.725,122.274,-666.302,0,0
151096.05,121.814,-664.128,0,0
151356.375,121.535,-661.537,0,0
151616.7,121.519,-658.928,0,0
151877.025,121.564,-656.366,0,0
152137.35,121.591,-653.802,0,0
152397.675,121.522,-651.155,0,0
152658.0,121.345,-648.284,0,0
152918.325,121.373,-644.968,0,0
153178.65,121.769,-641.555,0,0
153438.975,122.453,-638.276,0,0
153699.3,123.188,-635.004,0,0
153959.625,123.961,-631.771,0,0
154219.95,124.881,-628.407,0,0
154480,125.95,-625.005,0,0
154741,127.235,-621.59,0,0
155001,128.75,-618.245,0,0
155261,130.361,-615.087,0,0
155522,131.92,-611.815,0,0
155782,133.746,-608.483,0,0
156042,135.902,-605.233,0,0
156303,138.237,-602.265,0,0
156563,140.545,-599.517,0,0
156823,142.876,-596.653,0,0
157084,145.559,-593.87,0,0
157344,148.539,-591.497,0,0
157604,151.436,-589.636,0,0
157864,153.965,-588.076,0,0
158125,156.15,-586.399,0,0
158385,158.342,-584.572,0,0
158645,160.623,-582.832,0,0
158906,162.576,-581.175,0,0
159166,164.351,-579.124,0,0
159426,166.358,-576.672,0,0
159687,168.69,-573.942,0,0
159947,171.662,-571.175,0,0
160207,175.187,-568.802,0,0
160468,178.85,-566.814,0,0
160728,182.695,-565.113,0,0
160988,186.817,-563.805,0,0
161249,191.012,-563.006,0,0
161509,195.135,-562.757,0,0
161769,199.075,-563.041,0,0
162030,202.536,-563.781,0,0
162290,205.357,-564.593,0,0
162550,207.77,-565.254,0,0
162811,210.047,-565.616,0,0
163071,212.407,-565.826,0,0
163331,214.823,-566.153,0,0
163592,217.165,-566.436,0,0
163852,219.664,-566.832,0,0
164112,222.011,-567.411,0,0
164373,224.313,-567.976,0,0
164633,226.579,-568.679,0,0
164893,228.796,-569.299,0,0
165154,231.229,-569.98,0,0
165414,233.703,-571.02,0,0
165674,236.138,-572.195,0,0
165935,238.706,-573.777,0,0
166195,241.039,-575.892,0,0
166455,242.834,-578.442,0,0
166716,243.988,-581.046,0,0
166976,244.725,-583.323,0,0
167236,245.527,-585.518,0,0
167497,246.083,-588,0,0
167757,246.173,-590.432,0,0
168017,246.043,-592.884,0,0
168277,245.445,-595.297,0,0
168538,244.451,-597.426,0,0
168798,243.228,-599.323,0,0
169058,241.726,-600.945,0,0
169319,240.112,-602.36,0,0
169579,238.175,-603.554,0,0
169839,235.947,-604.215,0,0
170100,233.853,-604.355,0,0
170360.075,231.884,-604.145,0,0
170620.4,230.129,-603.559,0,0
170880.725,228.692,-602.859,0,0
171141.05,227.448,-602.145,0,0
171401.375,226.332,-601.409,0,0
171661.7,225.315,-600.735,0,0
171922.025,224.203,-600.086,0,0
172182.35,223.027,-599.24,0,0
172442.675,222.038,-598.171,0,0
172703.0,221.188,-597.147,0,0
172963.325,220.348,-596.077,0,0
173223.65,219.6,-594.931,0,0
173483.975,218.93,-593.74,0,0
173744.3,218.355,-592.516,0,0
174004.625,217.807,-591.231,0,0
174264.95,217.45,-589.823,0,0
174525.275,217.347,-588.615,0,0
174785.6,217.151,-587.414,0,0
175045.925,217.022,-586.344,0,0
175306.25,216.804,-585.169,0,0
175566.575,216.871,-583.803,0,0
175826.9,217.354,-582.78,0,0
176087.225,217.794,-582.214,0,0
176347.55,217.86,-581.802,0,0
176607.875,217.762,-581.423,0,0
176868.2,217.527,-581.034,0,0
177128.525,217.103,-580.526,0,0
177388.85,216.718,-579.818,0,0
177649.175,216.577,-579.11,0,0
177909.5,216.543,-578.715,0,0
178169.825,216.224,-578.678,0,0
178430.15,215.395,-578.612,0,0
178690.475,214.351,-578.226,0,0
178950.8,213.332,-577.674,0,0
179211.125,212.203,-576.914,0,0
179471.45,211.208,-576.059,0,0
179731.775,210.273,-575.247,0,0
179992.1,209.318,-574.601,0,0
180252.425,207.983,-574.004,0,0
180512.75,206.316,-573.056,0,0
180773.075,204.691,-571.775,0,0
181033.4,203.157,-570.321,0,0
181293.725,201.635,-568.691,0,0
181554.05,200.145,-566.902,0,0
181814.375,198.831,-564.902,0,0
182074.7,197.68,-562.909,0,0
182335.025,196.546,-560.971,0,0
182595.35,195.337,-559.066,0,0
182855.675,193.996,-557.011,0,0
183116.0,192.631,-554.772,0,0
183376.325,191.23,-552.358,0,0
183636.65,189.908,-549.625,0,0
183896.975,188.771,-546.724,0,0
184157.3,187.754,-543.692,0,0
184417.625,186.966,-540.521,0,0
184677.95,186.294,-537.356,0,0
184938.275,185.682,-533.959,0,0
185198.6,185.4,-530.365,0,0
185458.925,185.577,-526.877,0,0
185719.25,185.852,-523.689,0,0
185979.575,186.065,-520.545,0,0
186239.9,186.369,-517.308,0,0
186500,186.814,-514.077,0,0
186761,187.479,-511.099,0,0
187021,188.041,-508.091,0,0
187281,188.571,-505.115,0,0
187542,189.345,-502.079,0,0
187802,190.224,-499.149,0,0
188062,191.06,-496.482,0,0
188322,191.697,-493.742,0,0
188583,192.344,-491.014,0,0
188843,192.932,-488.16,0,0
189103,193.605,-485.314,0,0
189364,194.297,-482.287,0,0
189624,194.974,-479.203,0,0
189884,195.835,-476.088,0,0
190145,196.8,-473.067,0,0
190405,197.819,-469.845,0,0
190665,198.978,-466.714,0,0
190926,200.187,-463.694,0,0
191186,201.206,-460.593,0,0
191446,202.25,-457.524,0,0
191707,203.385,-454.161,0,0
191967,204.747,-450.655,0,0
192227,206.27,-447.197,0,0
192488,207.939,-443.916,0,0
192748,209.674,-440.596,0,0
193008,211.415,-437.259,0,0
193269,213.251,-433.811,0,0
193529,215.22,-430.531,0,0
193789,217.276,-427.311,0,0
194050,219.259,-424.042,0,0
194310,221.269,-420.767,0,0
194570,223.352,-417.356,0,0
194831,225.551,-413.836,0,0
195091,227.874,-410.326,0,0
195351,230.418,-406.703,0,0
195612,233.071,-403.157,0,0
195872,235.832,-399.809,0,0
196132,238.546,-396.298,0,0
196393,241.36,-392.635,0,0
196653,244.476,-388.807,0,0
196913,247.903,-385.094,0,0
197174,251.568,-381.602,0,0
197434,255.243,-378.128,0,0
197694,259.094,-374.612,0,0
197955,263.133,-371.115,0,0
198215,267.477,-367.801,0,0
198475,271.98,-364.729,0,0
198735,276.509,-361.891,0,0
198996,281.053,-359.215,0,0
199256,285.421,-356.628,0,0
199516,289.709,-354.056,0,0
199777,293.883,-351.299,0,0
200037,298.185,-348.31,0,0
200297,302.756,-345.094,0,0
200558,307.581,-341.781,0,0
200818,312.853,-338.415,0,0
201078,318.347,-335.031,0,0
201339,324.302,-331.635,0,0
201599,330.618,-328.278,0,0
201859,337.446,-325.103,0,0
202120,344.755,-322.174,0,0
202380.025,352.55,-319.431,0,0
202640.35,360.89,-317.323,0,0
202900.675,369.382,-315.883,0,0
203161.0,377.839,-314.83,0,0
203421.325,386.218,-314.056,0,0
203681.65,394.886,-313.177,0,0
203941.975,404.113,-312.604,0,0
204202.3,413.996,-312.529,0,0
204462.625,424.26,-313.358,0,0
204722.95,434.947,-315.176,0,0
204983.275,445.609,-317.965,0,0
205243.6,456.017,-321.971,0,0
205503.925,465.881,-327.039,0,0
205764.25,474.938,-332.659,0,0
206024.575,483.424,-338.832,0,0
206284.9,491.312,-345.227,0,0
206545.225,498.718,-351.895,0,0
206805.55,505.855,-358.979,0,0
207065.875,512.49,-366.732,0,0
207326.2,518.174,-374.999,0,0
207586.525,522.903,-383.313,0,0
207846.85,526.822,-391.568,0,0
208107.175,530.087,-399.605,0,0
208367.5,532.881,-407.401,0,0
208627.825,535.252,-415.093,0,0
208888.15,537.273,-422.852,0,0
209148.475,538.584,-430.615,0,0
209408.8,539.184,-438.07,0,0
209669.125,539.397,-445.192,0,0
209929.45,539.091,-452.172,0,0
210189.775,537.94,-458.9,0,0
210450.1,536.12,-464.697,0,0
210710.425,534.036,-469.587,0,0
210970.75,532.144,-473.562,0,0
211231.075,530.379,-477.039,0,0
211491.4,528.705,-480.017,0,0
211751.725,527.166,-482.445,0,0
212012.05,525.799,-484.437,0,0
212272.375,524.519,-485.756,0,0
212532.7,523.728,-486.208,0,0
212793.025,524.15,-486.032,0,0
213053.35,525.794,-486.12,0,0
213313.675,528.095,-486.915,0,0
213574.0,530.67,-488.354,0,0
213834.325,533.313,-490.398,0,0
214094.65,535.717,-492.764,0,0
214354.975,537.987,-495.17,0,0
214615.3,540.316,-497.628,0,0
214875.625,542.678,-500.439,0,0
215135.95,544.815,-503.427,0,0
215396.275,546.903,-506.255,0,0
215656.6,549.2,-509.128,0,0
215916.925,551.515,-512.413,0,0
216177.25,553.322,-515.921,0,0
216437.575,554.782,-519.16,0,0
216697.9,556.157,-522.001,0,0
216958.225,557.631,-524.411,0,0
217218.55,559.544,-526.383,0,0
217478.875,562.238,-528.228,0,0
217739.2,565.646,-530.566,0,0
217999.525,569.359,-533.59,0,0
218259.85,572.846,-537.233,0,0
218520,576.115,-541.213,0,0
218780,579.13,-545.145,0,0
219041,582.293,-549.061,0,0
219301,585.594,-552.993,0,0
219561,589.24,-557.196,0,0
219822,593.172,-561.801,0,0
220082,596.991,-566.981,0,0
220342,600.615,-572.514,0,0
220603,604.169,-578.217,0,0
220863,607.891,-584.127,0,0
221123,611.83,-590.411,0,0
221384,615.836,-597.469,0,0
221644,619.625,-605.309,0,0
221904,623.011,-613.777,0,0
222165,625.938,-622.802,0,0
222425,628.365,-632.356,0,0
222685,629.95,-642.494,0,0
222946,630.843,-652.797,0,0
223206,630.871,-663.192,0,0
223466,630.262,-673.506,0,0
223727,629.108,-683.789,0,0
223987,627.322,-694.007,0,0
224247,624.993,-704.016,0,0
224508,622.348,-713.748,0,0
224768,619.344,-723.427,0,0
225028,615.833,-733.04,0,0
225289,611.828,-742.57,0,0
225549,607.601,-751.848,0,0
225809,602.882,-760.783,0,0
226070,598.121,-769.885,0,0
226330,592.822,-779.034,0,0
226590,586.957,-788.119,0,0
226851,580.32,-796.942,0,0
227111,573.168,-805.619,0,0
227371,565.328,-813.642,0,0
227632,557.02,-821.261,0,0
227892,548.239,-828.145,0,0
228152,539.229,-834.624,0,0
228413,529.692,-840.357,0,0
228673,519.988,-845.482,0,0
228933,510.12,-849.777,0,0
229193,500.245,-853.324,0,0
229454,490.739,-856.15,0,0
229714,481.151,-858.496,0,0
229974,471.87,-860.33,0,0
230235,462.87,-861.825,0,0
230495,453.881,-862.644,0,0
230755,445.269,-863.205,0,0
231016,436.827,-863.42,0,0
231276,428.717,-863.17,0,0
231536,421,-862.609,0,0
231797,413.602,-861.843,0,0
232057,406.499,-860.797,0,0
232317,399.821,-859.653,0,0
232578,393.534,-858.383,0,0
232838,387.548,-857.127,0,0
233098,381.839,-855.946,0,0
233359,376.42,-854.818,0,0
233619,371.111,-853.87,0,0
233879,365.855,-852.955,0,0
234140,360.645,-852.121,0,0
234400,355.333,-851.278,0,0
234660.3,350.189,-850.327,0,0
234920.625,345.033,-849.446,0,0
235180.95,339.973,-848.253,0,0
235441.275,335.046,-847.233,0,0
235701.6,330.114,-846.029,0,0
235961.925,325.167,-844.798,0,0
236222.25,320.322,-843.521,0,0
236482.575,315.522,-842.289,0,0
236742.9,310.731,-840.942,0,0
237003.225,305.941,-839.502,0,0
237263.55,301.173,-837.836,0,0
237523.875,296.541,-836.026,0,0
237784.2,292.143,-834.035,0,0
238044.525,287.92,-832.159,0,0
238304.85,283.795,-830.33,0,0
238565.175,279.77,-828.562,0,0
238825.5,275.666,-826.703,0,0
239085.825,271.501,-824.849,0,0
239346.15,267.445,-822.805,0,0
239606.475,263.377,-820.728,0,0
239866.8,259.533,-818.376,0,0
240127.125,255.705,-816.064,0,0
240387.45,252.221,-813.653,0,0
240647.775,248.744,-811.418,0,0
240908.1,245.452,-809.064,0,0
241168.425,242.134,-806.813,0,0
241428.75,238.791,-804.57,0,0
241689.075,235.571,-802.109,0,0
241949.4,232.462,-799.599,0,0
242209.725,229.521,-797.026,0,0
242470.05,226.735,-794.567,0,0
242730.375,224.071,-792.167,0,0
242990.7,221.393,-789.828,0,0
243251.025,218.793,-787.484,0,0
243511.35,216.235,-785.113,0,0
243771.675,213.765,-782.823,0,0
244032.0,211.37,-780.572,0,0
244292.325,208.941,-778.322,0,0
244552.65,206.568,-776.155,0,0
244812.975,204.166,-773.921,0,0
245073.3,201.789,-771.821,0,0
245333.625,199.392,-769.511,0,0
245593.95,196.999,-767.21,0,0
245854.275,194.769,-764.883,0,0
246114.6,192.491,-762.621,0,0
246374.925,190.196,-760.316,0,0
246635.25,187.905,-757.962,0,0
246895.575,185.737,-755.517,0,0
247155.9,183.55,-753.019,0,0
247416.225,181.486,-750.54,0,0
247676.55,179.572,-747.994,0,0
247936.875,177.698,-745.421,0,0
248197.2,175.861,-742.854,0,0
248457.525,174.089,-740.308,0,0
248717.85,172.391,-737.738,0,0
248978.175,170.781,-735.233,0,0
249238.5,169.2,-732.675,0,0
249498.825,167.715,-730.195,0,0
249759.15,166.218,-727.811,0,0
250019.475,164.837,-725.271,0,0
250279.8,163.403,-722.849,0,0
250540,162.077,-720.423,0,0
250800,160.721,-718.02,0,0
251061,159.507,-715.57,0,0
251321,158.202,-713.147,0,0
251581,156.972,-710.734,0,0
251842,155.819,-708.333,0,0
252102,154.578,-705.931,0,0
252362,153.423,-703.48,0,0
252623,152.264,-701.031,0,0
252883,151.18,-698.522,0,0
253143,150.146,-696.012,0,0
253404,149.206,-693.485,0,0
253664,148.245,-690.957,0,0
253924,147.374,-688.431,0,0
254185,146.578,-685.841,0,0
254445,145.828,-683.217,0,0
254705,145.223,-680.575,0,0
254966,144.763,-677.946,0,0
255226,144.365,-675.415,0,0
255486,143.981,-673.071,0,0
255747,143.703,-670.676,0,0
256007,143.367,-668.345,0,0
256267,143.036,-666.052,0,0
256528,142.715,-663.76,0,0
256788,142.453,-661.418,0,0
257048,142.255,-659.11,0,0
257309,142.086,-656.818,0,0
257569,141.938,-654.565,0,0
257829,141.783,-652.278,0,0
258090,141.7,-649.977,0,0
258350,141.65,-647.662,0,0
258610,141.663,-645.269,0,0
258871,141.786,-642.879,0,0
259131,142.028,-640.454,0,0
259391,142.427,-638.074,0,0
259651,142.964,-635.758,0,0
259912,143.605,-633.546,0,0
260172,144.298,-631.413,0,0
260432,145.086,-629.34,0,0
260693,145.997,-627.367,0,0
260953,146.93,-625.596,0,0
261213,147.917,-623.841,0,0
261474,148.922,-622.18,0,0
261734,149.986,-620.677,0,0
261994,150.992,-619.295,0,0
262255,152.096,-617.968,0,0
262515,153.14,-616.744,0,0
262775,154.187,-615.571,0,0
263036,155.211,-614.489,0,0
263296,156.333,-613.445,0,0
263556,157.401,-612.506,0,0
263817,158.538,-611.63,0,0
264077,159.682,-610.844,0,0
264337,160.813,-610.062,0,0
264598,162.007,-609.501,0,0
264858,163.253,-608.982,0,0
265118,164.518,-608.495,0,0
265379,165.879,-608.258,0,0
265639,167.333,-608.293,0,0
265899,168.68,-608.512,0,0
266160,169.956,-608.994,0,0
266420,171.096,-609.746,0,0
266680.25,172.113,-610.758,0,0
266940.575,172.763,-611.939,0,0
267200.9,173.173,-613.298,0,0
267461.225,173.23,-614.725,0,0
267721.55,172.999,-616.157,0,0
267981.875,172.478,-617.558,0,0
268242.2,171.654,-618.938,0,0
268502.525,170.536,-620.166,0,0
268762.85,169.126,-621.302,0,0
269023.175,167.468,-622.188,0,0
269283.5,165.617,-622.769,0,0
269543.825,163.683,-623.119,0,0
269804.15,161.683,-623.235,0,0
270064.475,159.607,-623.037,0,0
270324.8,157.538,-622.619,0,0
270585.125,155.46,-622.045,0,0
270845.45,153.489,-621.206,0,0
271105.775,151.52,-620.088,0,0
271366.1,149.731,-618.844,0,0
271626.425,148.068,-617.401,0,0
271886.75,146.539,-615.859,0,0
272147.075,145.164,-614.164,0,0
272407.4,143.958,-612.393,0,0
272667.725,142.911,-610.578,0,0
272928.05,142.003,-608.748,0,0
273188.375,141.241,-606.828,0,0
273448.7,140.715,-604.888,0,0
273709.025,140.364,-603.016,0,0
273969.35,140.14,-601.219,0,0
274229.675,140,-599.597,0,0
274490.0,139.965,-598.013,0,0
274750.325,139.923,-596.521,0,0
275010.65,139.928,-595.047,0,0
275270.975,139.934,-593.582,0,0
275531.3,140.08,-592.219,0,0
275791.625,140.206,-590.889,0,0
276051.95,140.319,-589.629,0,0
276312.275,140.474,-588.367,0,0
276572.6,140.698,-587.083,0,0
276832.925,140.995,-585.819,0,0
277093.25,141.419,-584.641,0,0
277353.575,141.924,-583.559,0,0
277613.9,142.502,-582.597,0,0
277874.225,143.062,-581.831,0,0
278134.55,143.576,-581.184,0,0
278394.875,144,-580.627,0,0
278655.2,144.364,-580.087,0,0
278915.525,144.739,-579.576,0,0
279175.85,145.041,-579.158,0,0
279436.175,145.328,-578.789,0,0
279696.5,145.583,-578.496,0,0
279956.825,145.787,-578.265,0,0
280217.15,145.88,-578.039,0,0
280477.475,145.921,-577.847,0,0
280737.8,145.912,-577.666,0,0
280998.125,145.874,-577.511,0,0
281258.45,145.793,-577.396,0,0
281518.775,145.654,-577.368,0,0
281779.1,145.349,-577.389,0,0
282039.425,144.893,-577.379,0,0
282299.75,144.254,-577.235,0,0
282560,143.633,-576.945,0,0
282820,143.006,-576.621,0,0
283081,142.359,-576.283,0,0
283341,141.653,-575.898,0,0
283601,140.894,-575.443,0,0
283862,140.11,-574.891,0,0
284122,139.326,-574.256,0,0
284382,138.566,-573.563,0,0
284643,137.833,-572.784,0,0
284903,137.15,-571.962,0,0
285163,136.501,-571.08,0,0
285424,135.926,-570.227,0,0
285684,135.321,-569.396,0,0
285944,134.686,-568.542,0,0
286205,134.001,-567.709,0,0
286465,133.231,-566.799,0,0
286725,132.399,-565.722,0,0
286986,131.601,-564.509,0,0
287246,130.91,-563.174,0,0
287506,130.292,-561.749,0,0
287767,129.729,-560.265,0,0
288027,129.249,-558.646,0,0
288287,128.936,-556.921,0,0
288548,128.813,-555.12,0,0
288808,128.91,-553.305,0,0
289068,129.285,-551.595,0,0
289329,129.827,-550.078,0,0
289589,130.416,-548.74,0,0
289849,131.009,-547.617,0,0
290109,131.598,-546.505,0,0
290370,132.237,-545.512,0,0
290630,132.887,-544.677,0,0
290890,133.477,-543.993,0,0
291151,133.971,-543.364,0,0
291411,134.355,-542.788,0,0
291671,134.706,-542.242,0,0
291932,135.03,-541.73,0,0
292192,135.28,-541.263,0,0
292452,135.432,-540.861,0,0
292713,135.465,-540.474,0,0
292973,135.366,-540.056,0,0
293233,135.144,-539.548,0,0
293494,134.819,-538.957,0,0
293754,134.405,-538.203,0,0
294014,133.951,-537.239,0,0
294275,133.534,-536.08,0,0
294535,133.251,-534.776,0,0
294795,133.096,-533.295,0,0
295056,133.12,-531.709,0,0
295316,133.385,-530.099,0,0
295576,133.836,-528.516,0,0
295837,134.439,-526.994,0,0
296097,135.214,-525.534,0,0
296357,136.113,-524.207,0,0
296618,137.101,-523.023,0,0
296878,138.119,-521.958,0,0
297138,139.155,-521.018,0,0
297399,140.172,-520.164,0,0
297659,141.176,-519.375,0,0
297919,142.167,-518.62,0,0
298180,143.182,-517.882,0,0
298440,144.21,-517.183,0,0
298700.2,145.278,-516.505,0,0
298960.525,146.392,-515.944,0,0
299220.85,147.523,-515.484,0,0
299481.175,148.586,-515.067,0,0
299741.5,149.728,-514.713,0,0
300001.825,150.809,-514.351,0,0
300262.15,151.881,-514.031,0,0
300522.475,152.942,-513.788,0,0
300782.8,153.969,-513.508,0,0
301043.125,155.067,-513.198,0,0
301303.45,156.3,-512.916,0,0
301563.775,157.557,-512.792,0,0
301824.1,158.938,-512.681,0,0
302084.425,160.333,-512.673,0,0
302344.75,161.737,-512.838,0,0
302605.075,163.06,-513.158,0,0
302865.4,164.492,-513.573,0,0
303125.725,165.832,-514.174,0,0
303386.05,167.071,-514.939,0,0
303646.375,168.105,-515.68,0,0
303906.7,169.174,-516.511,0,0
304167.025,170.058,-517.343,0,0
304427.35,170.896,-518.126,0,0
304687.675,171.745,-519.039,0,0
304948.0,172.534,-519.945,0,0
305208.325,173.185,-520.928,0,0
305468.65,173.943,-521.831,0,0
305728.975,174.52,-522.819,0,0
305989.3,175.167,-523.839,0,0
306249.625,175.853,-524.895,0,0
306509.95,176.486,-526.012,0,0
306770.275,177.025,-527.307,0,0
307030.6,177.515,-528.656,0,0
307290.925,177.881,-530.132,0,0
307551.25,178.094,-531.594,0,0
307811.575,178.102,-533.151,0,0
308071.9,178.198,-534.679,0,0
308332.225,177.996,-536.075,0,0
308592.55,177.678,-537.5,0,0
308852.875,177.27,-539,0,0
309113.2,176.843,-540.359,0,0
309373.525,176.348,-541.628,0,0
309633.85,175.736,-542.818,0,0
309894.175,175.227,-543.895,0,0
310154.5,174.758,-545.018,0,0
310414.825,174.273,-546.129,0,0
310675.15,173.761,-547.439,0,0
310935.475,173.163,-548.674,0,0
311195.8,172.51,-550.002,0,0
311456.125,171.721,-551.33,0,0
311716.45,170.779,-552.723,0,0
311976.775,169.718,-554.115,0,0
312237.1,168.626,-555.412,0,0
312497.425,167.274,-556.725,0,0
312757.75,165.785,-557.877,0,0
313018.075,164.289,-558.935,0,0
313278.4,162.637,-559.925,0,0
313538.725,160.969,-560.661,0,0
313799.05,159.241,-561.189,0,0
314059.375,157.652,-561.783,0,0
314319.7,155.965,-562.195,0,0
314580,154.418,-562.626,0,0
314840,152.769,-562.887,0,0
315101,151.17,-563.164,0,0
315361,149.657,-563.301,0,0
315621,148.071,-563.507,0,0
315882,146.652,-563.629,0,0
316142,145.144,-563.783,0,0
316402,143.582,-563.91,0,0
316663,142.107,-563.982,0,0
316923,140.523,-563.995,0,0
317183,138.843,-563.939,0,0
317444,137.298,-563.865,0,0
317704,135.694,-563.625,0,0
317964,134.148,-563.495,0,0
318225,132.479,-563.223,0,0
318485,130.815,-562.814,0,0
318745,129.267,-562.425,0,0
319006,127.712,-562.019,0,0
319266,126.16,-561.445,0,0
319526,124.796,-560.931,0,0
319787,123.238,-560.378,0,0
320047,121.795,-559.733,0,0
320307,120.3,-558.926,0,0
320567,118.894,-558.249,0,0
320828,117.637,-557.385,0,0
321088,116.227,-556.527,0,0
321348,114.998,-555.615,0,0
321609,113.803,-554.769,0,0
321869,112.632,-553.802,0,0
322129,111.579,-552.948,0,0
322390,110.396,-551.908,0,0
322650,109.299,-550.91,0,0
322910,108.325,-549.849,0,0
323171,107.36,-548.719,0,0
323431,106.427,-547.695,0,0
323691,105.571,-546.496,0,0
323952,104.869,-545.346,0,0
324212,104.233,-544.191,0,0
324472,103.67,-542.998,0,0
324733,103.145,-541.928,0,0
324993,102.636,-540.908,0,0
325253,102.249,-539.901,0,0
325514,101.895,-539.015,0,0
325774,101.533,-538.119,0,0
326034,101.146,-537.227,0,0
326295,100.884,-536.409,0,0
326555,100.494,-535.591,0,0
326815,100.217,-534.829,0,0
327076,99.9038,-534.053,0,0
327336,99.661,-533.269,0,0
327596,99.4147,-532.636,0,0
327857,99.1635,-532.002,0,0
328117,99.0052,-531.382,0,0
328377,98.7135,-530.84,0,0
328638,98.4483,-530.254,0,0
328898,98.2834,-529.773,0,0
329158,98.0198,-529.265,0,0
329419,97.7559,-528.859,0,0
329679,97.4739,-528.453,0,0
329939,97.128,-528.165,0,0
330200,96.7766,-527.9,0,0
330460,96.3976,-527.523,0,0
330720.15,95.9271,-527.312,0,0
330980.475,95.4553,-527.002,0,0
331240.8,94.9511,-526.725,0,0
331501.125,94.3983,-526.448,0,0
331761.45,93.7638,-526.136,0,0
332021.775,93.1948,-525.721,0,0
332282.1,92.5632,-525.468,0,0
332542.425,91.893,-525.034,0,0
332802.75,91.2409,-524.621,0,0
333063.075,90.5658,-524.186,0,0
333323.4,89.8327,-523.797,0,0
333583.725,89.1838,-523.361,0,0
333844.05,88.5308,-522.94,0,0
334104.375,87.7112,-522.445,0,0
334364.7,86.9815,-521.966,0,0
334625.025,86.2316,-521.477,0,0
334885.35,85.5788,-520.966,0,0
335145.675,84.7764,-520.322,0,0
335406.0,83.9629,-519.76,0,0
335666.325,83.2754,-519.162,0,0
335926.65,82.4729,-518.526,0,0
336186.975,81.7251,-517.901,0,0
336447.3,81.0005,-517.167,0,0
336707.625,80.2995,-516.42,0,0
336967.95,79.5803,-515.695,0,0
337228.275,78.8447,-514.943,0,0
337488.6,78.2134,-514.188,0,0
337748.925,77.5893,-513.372,0,0
338009.25,76.9406,-512.602,0,0
338269.575,76.3641,-511.788,0,0
338529.9,75.7131,-510.964,0,0
338790.225,75.081,-510.21,0,0
339050.55,74.4862,-509.356,0,0
339310.875,73.9618,-508.582,0,0
339571.2,73.4204,-507.719,0,0
339831.525,72.8565,-506.932,0,0
340091.85,72.3105,-506.004,0,0
340352.175,71.868,-505.191,0,0
340612.5,71.3224,-504.362,0,0
340872.825,70.8617,-503.562,0,0
341133.15,70.4353,-502.731,0,0
341393.475,69.9998,-501.873,0,0
341653.8,69.506,-500.98,0,0
341914.125,69.1058,-500.223,0,0
342174.45,68.6567,-499.385,0,0
342434.775,68.1983,-498.562,0,0
342695.1,67.7791,-497.702,0,0
342955.425,67.3522,-496.949,0,0
343215.75,66.932,-496.142,0,0
343476.075,66.5296,-495.355,0,0
343736.4,66.091,-494.485,0,0
343996.725,65.6939,-493.704,0,0
344257.05,65.2623,-492.822,0,0
344517.375,64.8751,-492,0,0
344777.7,64.419,-491.173,0,0
345038.025,63.9877,-490.303,0,0
345298.35,63.6203,-489.502,0,0
345558.675,63.216,-488.609,0,0
345819.0,62.8035,-487.668,0,0
346079.325,62.4365,-486.736,0,0
346339.65,62.0744,-485.905,0,0
346599.975,61.724,-485.023,0,0
346860,61.3847,-484.097,0,0
347121,61.0676,-483.141,0,0
347381,60.7249,-482.232,0,0
347641,60.3812,-481.345,0,0
347902,60.1394,-480.363,0,0
348162,59.8392,-479.402,0,0
348422,59.6316,-478.468,0,0
348683,59.3506,-477.5,0,0
348943,59.1592,-476.539,0,0
349203,58.9914,-475.606,0,0
349464,58.7788,-474.631,0,0
349724,58.6715,-473.782,0,0
349984,58.5499,-472.81,0,0
350245,58.3872,-471.939,0,0
350505,58.2065,-471.062,0,0
350765,58.1496,-470.139,0,0
351025,58.0526,-469.249,0,0
351286,57.9468,-468.362,0,0
351546,57.8843,-467.479,0,0
351806,57.7915,-466.611,0,0
352067,57.724,-465.855,0,0
352327,57.6984,-464.975,0,0
352587,57.6361,-464.163,0,0
352848,57.5284,-463.354,0,0
353108,57.4797,-462.548,0,0
353368,57.4331,-461.77,0,0
353629,57.3797,-460.965,0,0
353889,57.256,-460.16,0,0
354149,57.2226,-459.289,0,0
354410,57.1489,-458.517,0,0
354670,57.1142,-457.744,0,0
354930,57.0311,-456.967,0,0
355191,56.9702,-456.139,0,0
355451,56.9604,-455.348,0,0
355711,56.8654,-454.489,0,0
355972,56.8962,-453.661,0,0
356232,56.8752,-452.847,0,0
356492,56.8712,-452.042,0,0
356753,56.888,-451.246,0,0
357013,56.9644,-450.442,0,0
357273,56.9891,-449.713,0,0
357534,57.0068,-448.962,0,0
357794,57.1501,-448.19,0,0
358054,57.1508,-447.48,0,0
358315,57.2214,-446.716,0,0
358575,57.2256,-446.052,0,0
358835,57.229,-445.305,0,0
359096,57.2682,-444.576,0,0
359356,57.3563,-443.874,0,0
359616,57.3491,-443.182,0,0
359877,57.3966,-442.491,0,0
360137,57.4452,-441.713,0,0
360397,57.4763,-440.95,0,0
360658,57.5667,-440.27,0,0
360918,57.6292,-439.52,0,0
361178,57.7258,-438.887,0,0
361438,57.7887,-438.172,0,0
361699,57.8956,-437.539,0,0
361959,57.9108,-436.883,0,0
362219,57.9561,-436.194,0,0
362480,57.9737,-435.516,0,0
362740.1,58.0373,-434.818,0,0
363000.425,58.0832,-434.117,0,0
363260.75,58.1577,-433.447,0,0
363521.075,58.2384,-432.743,0,0
363781.4,58.3063,-432.053,0,0
364041.725,58.4069,-431.344,0,0
364302.05,58.4909,-430.647,0,0
364562.375,58.6381,-429.976,0,0
364822.7,58.6761,-429.317,0,0
365083.025,58.79,-428.645,0,0
365343.35,58.8835,-428.019,0,0
365603.675,58.9615,-427.336,0,0
365864.0,59.0616,-426.693,0,0
366124.325,59.1212,-426.034,0,0
366384.65,59.1861,-425.392,0,0
366644.975,59.2646,-424.711,0,0
366905.3,59.3238,-424.013,0,0
367165.625,59.3894,-423.324,0,0
367425.95,59.4318,-422.636,0,0
367686.275,59.4949,-421.895,0,0
367946.6,59.5292,-421.178,0,0
368206.925,59.5713,-420.379,0,0
368467.25,59.6157,-419.537,0,0
368727.575,59.7148,-418.673,0,0
368987.9,59.8302,-417.746,0,0
369248.225,60.0507,-416.792,0,0
369508.55,60.2873,-415.894,0,0
369768.875,60.5653,-414.848,0,0
370029.2,60.975,-413.907,0,0
370289.525,61.423,-412.983,0,0
370549.85,61.9434,-412.072,0,0
370810.175,62.5127,-411.239,0,0
371070.5,63.1732,-410.436,0,0
371330.825,63.798,-409.687,0,0
371591.15,64.4702,-408.982,0,0
371851.475,65.1879,-408.375,0,0
372111.8,65.8809,-407.761,0,0
372372.125,66.5859,-407.27,0,0
372632.45,67.3128,-406.826,0,0
372892.775,67.9925,-406.389,0,0
373153.1,68.6806,-405.999,0,0
373413.425,69.3932,-405.606,0,0
373673.75,70.0674,-405.335,0,0
373934.075,70.7276,-405.042,0,0
374194.4,71.4448,-404.838,0,0
374454.725,72.1091,-404.654,0,0
374715.05,72.7358,-404.577,0,0
374975.375,73.3171,-404.519,0,0
375235.7,73.8741,-404.472,0,0
375496.025,74.3712,-404.41,0,0
375756.35,74.8817,-404.413,0,0
376016.675,75.297,-404.403,0,0
376277.0,75.6897,-404.383,0,0
376537.325,76.0279,-404.37,0,0
376797.65,76.367,-404.38,0,0
377057.975,76.7422,-404.316,0,0
377318.3,77.0992,-404.303,0,0
377578.625,77.4507,-404.275,0,0
377838.95,77.8123,-404.249,0,0
378099.275,78.1175,-404.292,0,0
378359.6,78.4418,-404.299,0,0
378619.925,78.7438,-404.343,0,0
378880,78.9863,-404.388,0,0
379141,79.251,-404.471,0,0
379401,79.4567,-404.5,0,0
379661,79.6592,-404.499,0,0
379922,79.8836,-404.484,0,0
380182,80.1287,-404.494,0,0
380442,80.412,-404.473,0,0
380703,80.7608,-404.495,0,0
380963,81.1033,-404.533,0,0
381223,81.5106,-404.675,0,0
381483,81.8928,-404.909,0,0
381744,82.2138,-405.248,0,0
382004,82.5134,-405.658,0,0
382264,82.7005,-406.122,0,0
382525,82.7705,-406.588,0,0
382785,82.7829,-407.093,0,0
383045,82.693,-407.546,0,0
383306,82.5469,-408.083,0,0
383566,82.3378,-408.501,0,0
383826,82.0478,-408.936,0,0
384087,81.7009,-409.342,0,0
384347,81.2941,-409.686,0,0
384607,80.858,-409.975,0,0
384868,80.3803,-410.274,0,0
385128,79.8291,-410.451,0,0
385388,79.3038,-410.645,0,0
385649,78.7495,-410.766,0,0
385909,78.1537,-410.801,0,0
386169,77.6249,-410.836,0,0
386430,76.9815,-410.863,0,0
386690,76.3348,-410.806,0,0
386950,75.7087,-410.701,0,0
387211,75.1054,-410.525,0,0
387471,74.4528,-410.271,0,0
387731,73.8122,-410.015,0,0
387992,73.241,-409.654,0,0
388252,72.6435,-409.309,0,0
388512,72.1753,-408.852,0,0
388773,71.6968,-408.393,0,0
389033,71.2836,-408.01,0,0
389293,70.9539,-407.523,0,0
389554,70.587,-407.091,0,0
389814,70.2204,-406.659,0,0
390074,69.9907,-406.237,0,0
390335,69.68,-405.844,0,0
390595,69.4632,-405.461,0,0
390855,69.1911,-405.095,0,0
391116,68.9576,-404.736,0,0
391376,68.6828,-404.532,0,0
391636,68.4442,-404.183,0,0
391896,68.1204,-403.858,0,0
392157,67.8326,-403.576,0,0
392417,67.5133,-403.257,0,0
392677,67.1752,-402.977,0,0
392938,66.8449,-402.655,0,0
393198,66.4513,-402.367,0,0
393458,66.0387,-402.081,0,0
393719,65.5828,-401.741,0,0
393979,65.1518,-401.389,0,0
394239,64.7201,-400.983,0,0
394500,64.2387,-400.559,0,0
394760.05,63.8051,-400.101,0,0
395020.375,63.3463,-399.632,0,0
395280.7,62.863,-399.064,0,0
395541.025,62.4152,-398.537,0,0
395801.35,61.987,-397.936,0,0
396061.675,61.5873,-397.316,0,0
396322.0,61.2426,-396.692,0,0
396582.325,60.8866,-396.052,0,0
396842.65,60.5706,-395.385,0,0
397102.975,60.2178,-394.737,0,0
397363.3,59.9781,-394.064,0,0
397623.625,59.7098,-393.416,0,0
397883.95,59.4341,-392.732,0,0
398144.275,59.2302,-392.055,0,0
398404.6,59.0086,-391.399,0,0
398664.925,58.7677,-390.724,0,0
398925.25,58.5803,-390.054,0,0
399185.575,58.3562,-389.392,0,0
399445.9,58.2074,-388.682,0,0
399706.225,57.9915,-388.021,0,0
399966.55,57.7634,-387.29,0,0
400006.6,57.7945,-387.216,0,0