File: Accelerated corrosion test data/2025-10-10_18-00-03/sample_6.csv
Frequency (Hz),Impedance (ohms),Phase (Radians),Temperature (C),Humidity (%)
10000.0,4229.24,-6500.32,0,0
10260.325,4092.57,-6425.38,0,0
10520.65,3960.54,-6350.41,0,0
10780.975,3835.48,-6276.2,0,0
11041.3,3716.2,-6202.22,0,0
11301.625,3602.13,-6129.25,0,0
11561.95,3492.7,-6056.79,0,0
11822.275,3388.31,-5984.61,0,0
12082.6,3287.64,-5913.42,0,0
12342.925,3191.78,-5842.72,0,0
12603.25,3102.19,-5772.35,0,0
12863.575,3014.4,-5703.63,0,0
13123.9,2932.3,-5637.61,0,0
13384.225,2850.6,-5573.36,0,0
13644.55,2772.04,-5508.47,0,0
13904.875,2696.53,-5443.48,0,0
14165.2,2625.01,-5380.38,0,0
14425.525,2555.84,-5317.39,0,0
14685.8,2489.13,-5256.19,0,0
14946.175,2426.92,-5195.66,0,0
15206.5,2364.87,-5136.48,0,0
15466.825,2306.64,-5077.73,0,0
15727.15,2249.54,-5020.95,0,0
15987.5,2195.12,-4964.52,0,0
16247.8,2142.09,-4909.21,0,0
16508.125,2090.98,-4854.61,0,0
16768.45,2041.88,-4801.37,0,0
17028.775,1995.94,-4748.52,0,0
17289.1,1949.68,-4697.38,0,0
17549.425,1905.13,-4647.15,0,0
17809.75,1862.76,-4596.62,0,0
18070.075,1821.84,-4547.31,0,0
18330.4,1781.24,-4499.45,0,0
18590.725,1743.22,-4451.76,0,0
18851.05,1706.84,-4405.78,0,0
19111.375,1671.56,-4360.61,0,0
19371.7,1636.4,-4317.07,0,0
19632.025,1602.94,-4273.39,0,0
19892.35,1570.02,-4229.89,0,0
20152.675,1538.69,-4187.1,0,0
20413.0,1507.28,-4146.92,0,0
20673.3,1476.89,-4105.71,0,0
20933.65,1448.29,-4065.33,0,0
21193.975,1420.67,-4025.14,0,0
21454.3,1393.19,-3985.41,0,0
21714.625,1366.55,-3947.84,0,0
21974.9,1341.18,-3910.07,0,0
22235.275,1316.27,-3872.94,0,0
22495.6,1291.33,-3835.72,0,0
22755.925,1269.45,-3798.2,0,0
23016.25,1249.07,-3763.13,0,0
23276.6,1228.61,-3730.94,0,0
23536.9,1206.75,-3698.25,0,0
23797.225,1185.19,-3665.92,0,0
24057.55,1164.11,-3633.59,0,0
24317.875,1143.81,-3601.26,0,0
24578.2,1124.04,-3569.45,0,0
24838.525,1105.16,-3538.1,0,0
25098.85,1086.63,-3507,0,0
25359.175,1068.58,-3476.82,0,0
25619.5,1051.18,-3446.76,0,0
25879.8,1033.82,-3417.48,0,0
26140.1,1017.31,-3388.4,0,0
26400.5,1001.06,-3359.35,0,0
26660.8,985.878,-3331.16,0,0
26921.1,970.66,-3303.28,0,0
27181.4,955.522,-3276.11,0,0
27441.8,941.745,-3248.8,0,0
27702.1,927.495,-3222.48,0,0
27962.4,913.656,-3196.96,0,0
28222.7,899.9,-3171.1,0,0
28483.1,886.195,-3146.45,0,0
28743.4,873.239,-3121.06,0,0
29003.7,860.169,-3096.12,0,0
29264,847.67,-3071.5,0,0
29524.4,836.099,-3046.24,0,0
29784.7,825.135,-3022.75,0,0
30045,814.154,-2999.25,0,0
30305.3,803.683,-2976.12,0,0
30565.7,792.74,-2954.02,0,0
30826,782.467,-2931.93,0,0
31086.3,771.701,-2910.1,0,0
31346.6,761.528,-2887.83,0,0
31607,751.633,-2865.95,0,0
31867.3,742.68,-2844.3,0,0
32127.6,733.626,-2823,0,0
32387.9,725.575,-2801.96,0,0
32648.3,718.244,-2781.27,0,0
32908.6,711.195,-2762.73,0,0
33168.9,703.201,-2744.14,0,0
33429.2,695.678,-2726.1,0,0
33689.6,687.529,-2708.95,0,0
33949.9,678.986,-2691.73,0,0
34210.2,669.6,-2674.17,0,0
34470.5,660.801,-2656.41,0,0
34730.9,652.914,-2638.18,0,0
34991.2,644.776,-2620.59,0,0
35251.5,637.587,-2603.17,0,0
35511.8,630.039,-2586.68,0,0
35772.2,621.914,-2570.28,0,0
36032.5,613.216,-2554.2,0,0
36292.8,605.166,-2536.77,0,0
36553.1,597.852,-2519.57,0,0
36813.5,590.563,-2502.42,0,0
37073.8,583.95,-2485.8,0,0
37334.1,577.121,-2469.39,0,0
37594.4,570.432,-2453.17,0,0
37854.8,563.94,-2436.99,0,0
38115.1,557.733,-2420.81,0,0
38375.4,551.683,-2404.97,0,0
38635.7,545.924,-2389.15,0,0
38896.1,540.117,-2373.65,0,0
39156.4,535.078,-2357.98,0,0
39416.7,530.299,-2342.24,0,0
39677,525.76,-2327.69,0,0
39937.4,521.225,-2313.26,0,0
40197.7,517.032,-2298.72,0,0
40458,512.561,-2285.15,0,0
40718.3,507.943,-2271.81,0,0
40978.7,503.987,-2258.68,0,0
41239,499.264,-2245.45,0,0
41499.3,494.811,-2232.43,0,0
41759.6,490.802,-2219.53,0,0
42020,486.245,-2207.48,0,0
42280.275,481.152,-2195.53,0,0
42540.6,475.391,-2183.62,0,0
42800.925,470.294,-2170.28,0,0
43061.25,465.467,-2156.67,0,0
43321.575,461.688,-2143.08,0,0
43581.9,458.568,-2130.24,0,0
43842.225,454.488,-2117.76,0,0
44102.55,451.41,-2105.01,0,0
44362.875,448.444,-2092.9,0,0
44623.2,445.838,-2081.22,0,0
44883.525,442.945,-2069.86,0,0
45143.85,440.272,-2058.23,0,0
45404.175,438.117,-2047.42,0,0
45664.5,435.37,-2036.84,0,0
45924.825,433.029,-2026.39,0,0
46185.15,430.79,-2016.22,0,0
46445.475,427.973,-2006.83,0,0
46705.8,425.23,-1997.25,0,0
46966.125,422.701,-1988.03,0,0
47226.45,419.45,-1978.84,0,0
47486.775,416.614,-1969.88,0,0
47747.1,413.025,-1960.89,0,0
48007.425,410.24,-1951.94,0,0
48267.75,406.661,-1943.62,0,0
48528.075,403.052,-1935.04,0,0
48788.4,399.416,-1926.21,0,0
49048.725,396.081,-1918,0,0
49309.05,391.977,-1910.05,0,0
49569.375,387.953,-1901.72,0,0
49829.7,383.471,-1893.46,0,0
50090.025,378.824,-1884.69,0,0
50350.35,374.196,-1875.7,0,0
50610.675,369.984,-1866.86,0,0
50871.0,365.479,-1857.42,0,0
51131.325,361.195,-1847.83,0,0
51391.65,357.892,-1838.1,0,0
51651.975,354.531,-1829.12,0,0
51912.3,350.875,-1820.13,0,0
52172.625,347.239,-1810.93,0,0
52432.95,343.968,-1801.6,0,0
52693.275,341.197,-1792.39,0,0
52953.6,338.156,-1783.88,0,0
53213.925,335.139,-1775.38,0,0
53474.25,331.815,-1766.92,0,0
53734.575,328.296,-1758.42,0,0
53994.9,324.847,-1749.51,0,0
54255.225,321.606,-1740.62,0,0
54515.55,318.713,-1731.81,0,0
54775.875,315.924,-1723.05,0,0
55036.2,313.128,-1714.36,0,0
55296.525,310.171,-1705.81,0,0
55556.85,307.115,-1697.11,0,0
55817.175,304.43,-1688.4,0,0
56077.5,301.772,-1679.37,0,0
56337.825,299.243,-1670.23,0,0
56598.15,297.239,-1661.01,0,0
56858.475,295.79,-1652.19,0,0
57118.8,294.183,-1643.68,0,0
57379.125,292.802,-1635.45,0,0
57639.45,291.53,-1627.37,0,0
57899.775,290.285,-1619.55,0,0
58160.1,288.812,-1612.06,0,0
58420.4,287.29,-1604.52,0,0
58680.7,285.966,-1597.13,0,0
58941.1,284.356,-1589.76,0,0
59201.4,283.019,-1582.29,0,0
59461.7,281.721,-1575.04,0,0
59722,280.385,-1567.85,0,0
59982.4,278.963,-1560.94,0,0
60242.7,277.378,-1553.78,0,0
60503,276.243,-1546.41,0,0
60763.3,275.182,-1539.55,0,0
61023.7,274.221,-1532.6,0,0
61284,273.571,-1526.02,0,0
61544.3,272.753,-1520.03,0,0
61804.6,271.501,-1514.45,0,0
62065,269.344,-1508.8,0,0
62325.3,266.964,-1502.42,0,0
62585.6,264.629,-1495.08,0,0
62845.9,263.393,-1487.32,0,0
63106.3,263.389,-1480.13,0,0
63366.6,263.583,-1474.07,0,0
63626.9,263.027,-1468.47,0,0
63887.2,262.323,-1463.17,0,0
64147.6,261.596,-1458.33,0,0
64407.9,259.956,-1453.58,0,0
64668.2,258.04,-1448.54,0,0
64928.5,255.75,-1443.21,0,0
65188.9,253.533,-1437.44,0,0
65449.2,251.563,-1431.29,0,0
65709.5,249.797,-1425.43,0,0
65969.8,247.894,-1419.4,0,0
66230.2,246.17,-1413.24,0,0
66490.5,244.37,-1407.12,0,0
66750.8,242.733,-1400.94,0,0
67011.1,241.365,-1394.36,0,0
67271.5,240.292,-1388,0,0
67531.8,239.262,-1381.83,0,0
67792.1,238.534,-1375.64,0,0
68052.4,237.863,-1369.75,0,0
68312.8,237.3,-1363.7,0,0
68573.1,236.797,-1358.07,0,0
68833.4,236.372,-1352.63,0,0
69093.7,235.916,-1347.23,0,0
69354.1,235.397,-1341.98,0,0
69614.4,234.962,-1336.77,0,0
69874.7,234.65,-1331.65,0,0
70135,234.282,-1326.84,0,0
70395.4,233.885,-1322.36,0,0
70655.7,233.23,-1317.85,0,0
70916,232.578,-1313.49,0,0
71176.3,231.672,-1309.1,0,0
71436.7,230.715,-1304.92,0,0
71697,229.544,-1300.73,0,0
71957.3,228.039,-1296.49,0,0
72217.6,226.59,-1292.02,0,0
72478,225.237,-1287.29,0,0
72738.3,223.746,-1282.59,0,0
72998.6,222.465,-1277.84,0,0
73258.9,221.167,-1273.08,0,0
73519.3,219.987,-1268.23,0,0
73779.6,218.755,-1263.5,0,0
74039.9,217.701,-1258.56,0,0
74300.225,216.607,-1253.81,0,0
74560.55,215.847,-1248.85,0,0
74820.875,215.075,-1244.21,0,0
75081.2,214.265,-1239.65,0,0
75341.525,213.521,-1235.23,0,0
75601.85,212.718,-1230.81,0,0
75862.175,211.851,-1226.45,0,0
76122.5,210.991,-1222.1,0,0
76382.825,210.207,-1217.81,0,0
76643.15,209.405,-1213.57,0,0
76903.475,208.465,-1209.38,0,0
77163.8,207.538,-1205.27,0,0
77424.125,206.651,-1201.06,0,0
77684.45,205.677,-1196.94,0,0
77944.775,204.695,-1192.78,0,0
78205.1,203.754,-1188.64,0,0
78465.425,202.768,-1184.48,0,0
78725.75,201.829,-1180.4,0,0
78986.075,200.852,-1176.21,0,0
79246.4,199.974,-1172.09,0,0
79506.725,198.978,-1168.17,0,0
79767.05,198.106,-1163.98,0,0
80027.375,197.105,-1160.1,0,0
80287.7,196.151,-1156.08,0,0
80548.025,195.113,-1152.19,0,0
80808.35,194.103,-1148.13,0,0
81068.675,192.973,-1144.19,0,0
81329.0,191.897,-1140.1,0,0
81589.325,190.813,-1136.02,0,0
81849.65,189.769,-1131.96,0,0
82109.975,188.754,-1127.8,0,0
82370.3,187.87,-1123.65,0,0
82630.625,186.939,-1119.6,0,0
82890.95,186,-1115.43,0,0
83151.275,185.089,-1111.31,0,0
83411.6,184.288,-1107.31,0,0
83671.925,183.355,-1103.23,0,0
83932.25,182.534,-1099.14,0,0
84192.575,181.727,-1095.04,0,0
84452.9,180.776,-1091.01,0,0
84713.225,179.965,-1086.86,0,0
84973.55,179.167,-1082.63,0,0
85233.875,178.395,-1078.39,0,0
85494.2,177.786,-1074.26,0,0
85754.525,177.193,-1070.06,0,0
86014.85,176.627,-1065.84,0,0
86275.175,176.19,-1061.65,0,0
86535.5,175.888,-1057.45,0,0
86795.825,175.597,-1053.46,0,0
87056.15,175.512,-1049.44,0,0
87316.475,175.301,-1045.42,0,0
87576.8,175.121,-1041.69,0,0
87837.125,174.877,-1037.69,0,0
88097.45,174.768,-1033.79,0,0
88357.775,174.915,-1029.94,0,0
88618.1,174.984,-1026.22,0,0
88878.425,175.101,-1022.61,0,0
89138.75,175.445,-1019.18,0,0
89399.075,175.719,-1016,0,0
89659.4,176,-1012.82,0,0
89919.725,176.095,-1009.52,0,0
90180,176.221,-1006.76,0,0
90440.4,176.172,-1003.85,0,0
90700.7,176.195,-1001.3,0,0
90961,176.048,-998.79,0,0
91221.3,175.54,-996.437,0,0
91481.7,174.793,-993.788,0,0
91742,173.924,-991.226,0,0
92002.3,172.784,-988.334,0,0
92262.6,171.814,-985.131,0,0
92523,171.135,-981.923,0,0
92783.3,170.237,-978.88,0,0
93043.6,169.355,-975.361,0,0
93303.9,168.684,-971.747,0,0
93564.3,168.314,-968.418,0,0
93824.6,167.8,-964.976,0,0
94084.9,167.422,-961.396,0,0
94345.2,167.28,-957.753,0,0
94605.6,167.402,-954.491,0,0
94865.9,167.375,-951.378,0,0
95126.2,167.499,-948.449,0,0
95386.5,167.524,-945.684,0,0
95646.9,167.417,-942.842,0,0
95907.2,167.267,-940.206,0,0
96167.5,167.1,-937.555,0,0
96427.8,166.827,-935.022,0,0
96688.2,166.531,-932.555,0,0
96948.5,166.009,-930.175,0,0
97208.8,165.222,-927.749,0,0
97469.1,164.265,-925.083,0,0
97729.5,163.336,-922.145,0,0
97989.8,162.449,-919.014,0,0
98250.1,161.747,-915.841,0,0
98510.4,161.268,-912.429,0,0
98770.8,161.132,-909.106,0,0
99031.1,161.061,-906.015,0,0
99291.4,161.025,-903.089,0,0
99551.7,161.025,-900.24,0,0
99812.1,160.954,-897.453,0,0
100072,161.047,-894.729,0,0
100333,161.163,-892.189,0,0
100593,161.249,-889.903,0,0
100853,161.2,-887.86,0,0
101114,160.713,-885.894,0,0
101374,160.125,-883.833,0,0
101634,159.329,-881.569,0,0
101895,158.6,-879.126,0,0
102155,157.999,-876.689,0,0
102415,157.403,-874.208,0,0
102676,156.865,-871.836,0,0
102936,156.353,-869.587,0,0
103196,155.623,-867.434,0,0
103457,154.775,-865.338,0,0
103717,153.708,-863.152,0,0
103977,152.807,-860.891,0,0
104238,151.675,-858.758,0,0
104498,150.223,-856.665,0,0
104758,148.517,-854.229,0,0
105019,146.859,-851.557,0,0
105279,145.086,-848.773,0,0
105539,143.211,-845.751,0,0
105800,141.262,-842.36,0,0
106060,139.51,-838.553,0,0
106320.175,137.976,-834.518,0,0
106580.5,136.695,-830.301,0,0
106840.825,135.823,-825.887,0,0
107101.15,135.229,-821.593,0,0
107361.475,134.932,-817.313,0,0
107621.8,134.705,-813.146,0,0
107882.125,134.775,-808.941,0,0
108142.45,135.014,-804.995,0,0
108402.775,135.452,-801.151,0,0
108663.1,135.872,-797.467,0,0
108923.425,136.253,-794.131,0,0
109183.75,136.35,-790.677,0,0
109444.075,136.667,-786.919,0,0
109704.4,137.228,-783.242,0,0
109964.725,137.991,-779.704,0,0
110225.05,138.702,-776.394,0,0
110485.375,139.388,-773.093,0,0
110745.7,140.085,-769.531,0,0
111006.025,141.182,-766.161,0,0
111266.35,142.507,-762.974,0,0
111526.675,143.743,-760.017,0,0
111787.0,144.962,-757.335,0,0
112047.325,146.465,-754.548,0,0
112307.65,148.025,-752.138,0,0
112567.975,149.421,-750.269,0,0
112828.3,150.429,-748.471,0,0
113088.625,151.127,-746.56,0,0
113348.95,151.998,-744.496,0,0
113609.275,152.933,-742.557,0,0
113869.6,153.686,-740.762,0,0
114129.925,154.32,-738.811,0,0
114390.25,154.931,-736.87,0,0
114650.575,155.638,-734.81,0,0
114910.9,156.569,-732.803,0,0
115171.225,157.547,-730.879,0,0
115431.55,158.908,-729.163,0,0
115691.875,160.208,-727.657,0,0
115952.2,161.612,-726.614,0,0
116212.525,162.819,-726.067,0,0
116472.85,163.84,-725.832,0,0
116733.175,164.488,-726.103,0,0
116993.5,164.355,-726.77,0,0
117253.825,163.268,-727.229,0,0
117514.15,161.451,-727.105,0,0
117774.475,159.478,-726.316,0,0
118034.8,157.361,-724.96,0,0
118295.125,155.425,-722.985,0,0
118555.45,153.852,-720.735,0,0
118815.775,152.379,-718.337,0,0
119076.1,151.051,-715.765,0,0
119336.425,149.938,-712.936,0,0
119596.75,149.174,-709.907,0,0
119857.075,148.483,-706.707,0,0
120117.4,148.62,-703.79,0,0
120377.725,148.693,-700.866,0,0
120638.05,149.355,-698.282,0,0
120898.375,150.167,-696.225,0,0
121158.7,150.795,-694.79,0,0
121419.025,150.857,-693.674,0,0
121679.35,150.501,-692.554,0,0
121939.675,149.716,-691.331,0,0
122200.0,148.607,-689.681,0,0
122460,147.54,-687.629,0,0
122721,146.647,-685.33,0,0
122981,145.946,-683.004,0,0
123241,145.455,-680.565,0,0
123502,145.029,-678.323,0,0
123762,144.604,-675.986,0,0
124022,144.384,-673.764,0,0
124283,144.034,-671.733,0,0
124543,143.543,-669.648,0,0
124803,143.077,-667.486,0,0
125064,142.606,-665.42,0,0
125324,141.931,-663.301,0,0
125584,141.259,-660.995,0,0
125845,140.684,-658.669,0,0
126105,140.105,-656.347,0,0
126365,139.524,-653.953,0,0
126626,138.891,-651.515,0,0
126886,138.28,-648.907,0,0
127146,137.673,-646.257,0,0
127406,137.135,-643.455,0,0
127667,136.712,-640.609,0,0
127927,136.448,-637.604,0,0
128187,136.521,-634.707,0,0
128448,136.73,-631.744,0,0
128708,136.907,-629.089,0,0
128968,137.229,-626.398,0,0
129229,137.803,-623.905,0,0
129489,138.216,-621.776,0,0
129749,138.419,-619.75,0,0
130010,138.482,-617.683,0,0
130270,138.566,-615.564,0,0
130530,138.508,-613.562,0,0
130791,138.298,-611.467,0,0
131051,138.123,-609.201,0,0
131311,137.928,-606.961,0,0
131572,137.766,-604.671,0,0
131832,137.495,-602.398,0,0
132092,137.297,-599.896,0,0
132353,137.141,-597.468,0,0
132613,137.059,-594.944,0,0
132873,137.027,-592.411,0,0
133134,137.076,-589.978,0,0
133394,137.086,-587.568,0,0
133654,137.063,-585.145,0,0
133915,136.949,-582.673,0,0
134175,136.913,-580.134,0,0
134435,136.908,-577.564,0,0
134696,136.961,-574.959,0,0
134956,137.051,-572.355,0,0
135216,137.142,-569.831,0,0
135477,137.23,-567.147,0,0
135737,137.364,-564.496,0,0
135997,137.588,-561.732,0,0
136258,137.847,-558.998,0,0
136518,138.261,-556.203,0,0
136778,138.796,-553.543,0,0
137039,139.308,-550.863,0,0
137299,139.907,-548.291,0,0
137559,140.533,-545.685,0,0
137819,141.191,-543.306,0,0
138080,141.836,-540.944,0,0
138340.125,142.421,-538.583,0,0
138600.45,142.973,-536.128,0,0
138860.775,143.555,-533.799,0,0
139121.1,144.113,-531.413,0,0
139381.425,144.763,-528.954,0,0
139641.75,145.489,-526.569,0,0
139902.075,146.176,-524.183,0,0
140162.4,146.912,-521.866,0,0
140422.725,147.749,-519.51,0,0
140683.05,148.547,-517.159,0,0
140943.375,149.528,-514.858,0,0
141203.7,150.598,-512.656,0,0
141464.025,151.709,-510.806,0,0
141724.35,152.723,-509.053,0,0
141984.675,153.579,-507.401,0,0
142245.0,154.117,-505.718,0,0
142505.325,154.658,-503.977,0,0
142765.65,155.147,-502.162,0,0
143025.975,155.607,-500.371,0,0
143286.3,156.092,-498.539,0,0
143546.625,156.402,-496.663,0,0
143806.95,156.709,-494.707,0,0
144067.275,157.164,-492.594,0,0
144327.6,157.653,-490.581,0,0
144587.925,158.116,-488.511,0,0
144848.25,158.64,-486.286,0,0
145108.575,159.334,-484.168,0,0
145368.9,160.099,-482.178,0,0
145629.225,160.789,-480.345,0,0
145889.55,161.366,-478.643,0,0
146149.875,161.875,-476.807,0,0
146410.2,162.429,-474.985,0,0
146670.525,162.955,-473.224,0,0
146930.85,163.433,-471.653,0,0
147191.175,163.775,-469.949,0,0
147451.5,163.89,-468.341,0,0
147711.825,163.871,-466.594,0,0
147972.15,163.775,-464.649,0,0
148232.475,163.638,-462.614,0,0
148492.8,163.456,-460.31,0,0
148753.125,163.353,-457.978,0,0
149013.45,163.325,-455.447,0,0
149273.775,163.329,-452.788,0,0
149534.1,163.533,-450.058,0,0
149794.425,163.76,-447.323,0,0
150054.75,164.155,-444.482,0,0
150315.075,164.633,-441.649,0,0
150575.4,165.079,-438.873,0,0
150835.725,165.702,-435.84,0,0
151096.05,166.397,-432.845,0,0
151356.375,167.17,-429.744,0,0
151616.7,168.183,-426.527,0,0
151877.025,169.438,-423.356,0,0
152137.35,170.926,-420.254,0,0
152397.675,172.779,-417.196,0,0
152658.0,174.931,-414.602,0,0
152918.325,176.91,-412.462,0,0
153178.65,178.699,-410.52,0,0
153438.975,180.447,-408.619,0,0
153699.3,182.229,-406.863,0,0
153959.625,183.804,-405.421,0,0
154219.95,185.006,-404.141,0,0
154480,185.758,-402.615,0,0
154741,186.375,-400.73,0,0
155001,187.167,-398.533,0,0
155261,188.171,-396.222,0,0
155522,189.361,-393.826,0,0
155782,190.85,-391.433,0,0
156042,192.406,-389.213,0,0
156303,194.224,-387.123,0,0
156563,196.213,-385.329,0,0
156823,198.08,-383.992,0,0
157084,199.68,-382.956,0,0
157344,200.91,-381.897,0,0
157604,201.893,-380.917,0,0
157864,202.699,-379.76,0,0
158125,203.262,-378.583,0,0
158385,203.725,-377.064,0,0
158645,204.219,-375.448,0,0
158906,204.665,-373.766,0,0
159166,204.993,-371.817,0,0
159426,205.553,-369.794,0,0
159687,206.197,-367.761,0,0
159947,206.838,-365.714,0,0
160207,207.499,-363.569,0,0
160468,208.121,-361.389,0,0
160728,208.866,-359.128,0,0
160988,209.734,-356.93,0,0
161249,210.531,-354.709,0,0
161509,211.313,-352.489,0,0
161769,212.149,-350.237,0,0
162030,212.877,-348.024,0,0
162290,213.592,-345.64,0,0
162550,214.25,-343.131,0,0
162811,215.078,-340.458,0,0
163071,216.123,-337.734,0,0
163331,217.269,-335.078,0,0
163592,218.588,-332.462,0,0
163852,219.799,-329.956,0,0
164112,221.055,-327.445,0,0
164373,222.242,-324.965,0,0
164633,223.476,-322.443,0,0
164893,224.692,-319.812,0,0
165154,225.961,-317.106,0,0
165414,227.275,-314.384,0,0
165674,228.769,-311.671,0,0
165935,230.287,-308.961,0,0
166195,231.82,-306.301,0,0
166455,233.465,-303.637,0,0
166716,235.1,-300.938,0,0
166976,236.763,-298.351,0,0
167236,238.403,-295.698,0,0
167497,240.029,-293.018,0,0
167757,241.771,-290.199,0,0
168017,243.646,-287.393,0,0
168277,245.641,-284.666,0,0
168538,247.699,-282.036,0,0
168798,249.778,-279.434,0,0
169058,251.862,-276.868,0,0
169319,253.936,-274.371,0,0
169579,256.055,-272.005,0,0
169839,258.074,-269.567,0,0
170100,260.047,-267.189,0,0
170360.075,261.993,-264.769,0,0
170620.4,264.019,-262.279,0,0
170880.725,265.94,-259.754,0,0
171141.05,267.919,-257.252,0,0
171401.375,269.944,-254.702,0,0
171661.7,271.919,-252.076,0,0
171922.025,273.946,-249.472,0,0
172182.35,276.023,-246.831,0,0
172442.675,278.041,-244.202,0,0
172703.0,280.025,-241.488,0,0
172963.325,282.128,-238.775,0,0
173223.65,284.174,-236.014,0,0
173483.975,286.138,-233.205,0,0
173744.3,288.083,-230.202,0,0
174004.625,290.072,-227.084,0,0
174264.95,292.176,-223.906,0,0
174525.275,294.268,-220.578,0,0
174785.6,296.497,-217.122,0,0
175045.925,298.782,-213.478,0,0
175306.25,301.247,-209.782,0,0
175566.575,303.832,-205.999,0,0
175826.9,306.612,-202.165,0,0
176087.225,309.465,-198.254,0,0
176347.55,312.45,-194.208,0,0
176607.875,315.645,-190.117,0,0
176868.2,319.033,-185.901,0,0
177128.525,322.601,-181.705,0,0
177388.85,326.37,-177.421,0,0
177649.175,330.335,-173.179,0,0
177909.5,334.542,-168.841,0,0
178169.825,339.046,-164.503,0,0
178430.15,343.803,-160.212,0,0
178690.475,348.781,-155.931,0,0
178950.8,354.18,-151.818,0,0
179211.125,359.789,-147.955,0,0
179471.45,365.549,-144.334,0,0
179731.775,371.468,-140.949,0,0
179992.1,377.42,-137.75,0,0
180252.425,383.32,-134.797,0,0
180512.75,389.238,-131.955,0,0
180773.075,395.034,-129.193,0,0
181033.4,400.806,-126.319,0,0
181293.725,406.766,-123.349,0,0
181554.05,412.894,-120.433,0,0
181814.375,419.196,-117.566,0,0
182074.7,425.548,-114.777,0,0
182335.025,432.233,-112.186,0,0
182595.35,438.912,-109.842,0,0
182855.675,445.51,-107.519,0,0
183116.0,452.073,-105.355,0,0
183376.325,458.603,-103.111,0,0
183636.65,465.075,-100.795,0,0
183896.975,471.594,-98.4154,0,0
184157.3,478.125,-95.8276,0,0
184417.625,484.845,-92.974,0,0
184677.95,491.826,-89.9152,0,0
184938.275,499.169,-86.8136,0,0
185198.6,506.924,-83.6318,0,0
185458.925,514.936,-80.3991,0,0
185719.25,523.33,-77.0427,0,0
185979.575,532.321,-73.7075,0,0
186239.9,541.807,-70.5622,0,0
186500,551.71,-67.5211,0,0
186761,562.039,-64.7003,0,0
187021,572.881,-62.1953,0,0
187281,584.023,-59.8534,0,0
187542,595.894,-57.731,0,0
187802,608.231,-55.9173,0,0
188062,621.136,-54.6517,0,0
188322,634.48,-53.955,0,0
188583,648.19,-53.8568,0,0
188843,662.255,-54.3241,0,0
189103,676.675,-55.4379,0,0
189364,691.429,-57.2611,0,0
189624,706.351,-59.865,0,0
189884,721.477,-63.361,0,0
190145,736.613,-67.6551,0,0
190405,751.72,-72.6614,0,0
190665,766.766,-78.6899,0,0
190926,781.499,-85.6023,0,0
191186,795.682,-93.3164,0,0
191446,809.309,-101.493,0,0
191707,822.511,-110.049,0,0
191967,835.284,-118.897,0,0
192227,847.725,-128.001,0,0
192488,859.961,-137.318,0,0
192748,872.009,-146.76,0,0
193008,883.954,-156.463,0,0
193269,895.945,-166.481,0,0
193529,907.943,-176.821,0,0
193789,919.967,-187.658,0,0
194050,932.047,-198.911,0,0
194310,944.078,-210.964,0,0
194570,955.963,-223.674,0,0
194831,967.541,-237.005,0,0
195091,978.978,-251.005,0,0
195351,990.102,-265.579,0,0
195612,1000.89,-281.057,0,0
195872,1011.08,-297.216,0,0
196132,1020.66,-314.14,0,0
196393,1029.78,-331.544,0,0
196653,1038.35,-349.536,0,0
196913,1046.22,-368.218,0,0
197174,1053.32,-387.557,0,0
197434,1059.62,-407.456,0,0
197694,1064.88,-427.865,0,0
197955,1069.19,-448.71,0,0
198215,1072.49,-469.647,0,0
198475,1074.9,-490.876,0,0
198735,1076.35,-512.097,0,0
198996,1076.78,-533.542,0,0
199256,1076.31,-554.783,0,0
199516,1075.08,-576.333,0,0
199777,1072.6,-597.775,0,0
200037,1069.74,-619.212,0,0
200297,1065.75,-640.281,0,0
200558,1060.31,-661.591,0,0
200818,1054.5,-682.509,0,0
201078,1047.28,-703.413,0,0
201339,1039.09,-723.697,0,0
201599,1030.14,-743.681,0,0
201859,1020.05,-762.853,0,0
202120,1008.99,-781.626,0,0
202380.025,997.167,-799.705,0,0
202640.35,984.573,-816.932,0,0
202900.675,971.189,-833.24,0,0
203161.0,957.342,-848.619,0,0
203421.325,943.012,-863.175,0,0
203681.65,927.995,-877.019,0,0
203941.975,912.959,-889.973,0,0
204202.3,897.621,-902.069,0,0
204462.625,881.999,-912.917,0,0
204722.95,866.216,-923.595,0,0
204983.275,850.415,-932.84,0,0
205243.6,834.263,-941.5,0,0
205503.925,818.16,-949.618,0,0
205764.25,802.144,-956.658,0,0
206024.575,785.966,-963.164,0,0
206284.9,769.999,-968.769,0,0
206545.225,754.274,-973.828,0,0
206805.55,738.521,-978.134,0,0
207065.875,723.191,-981.835,0,0
207326.2,707.988,-984.975,0,0
207586.525,692.875,-987.64,0,0
207846.85,678.232,-989.67,0,0
208107.175,663.621,-991.117,0,0
208367.5,649.358,-992.23,0,0
208627.825,635.368,-992.749,0,0
208888.15,621.828,-993.04,0,0
209148.475,608.355,-992.903,0,0
209408.8,595.472,-992.287,0,0
209669.125,582.834,-991.428,0,0
209929.45,570.382,-990.255,0,0
210189.775,557.994,-988.777,0,0
210450.1,546.332,-987.056,0,0
210710.425,534.695,-985.207,0,0
210970.75,523.539,-983.012,0,0
211231.075,512.326,-980.633,0,0
211491.4,501.469,-978.006,0,0
211751.725,490.846,-975.026,0,0
212012.05,480.508,-971.826,0,0
212272.375,470.591,-968.32,0,0
212532.7,461.09,-964.696,0,0
212793.025,452.073,-961.171,0,0
213053.35,443.232,-957.151,0,0
213313.675,434.645,-953.531,0,0
213574.0,426.465,-949.734,0,0
213834.325,418.319,-945.979,0,0
214094.65,410.353,-942.271,0,0
214354.975,402.482,-938.415,0,0
214615.3,394.875,-934.467,0,0
214875.625,387.139,-930.436,0,0
215135.95,379.917,-926.049,0,0
215396.275,372.865,-921.744,0,0
215656.6,365.916,-917.257,0,0
215916.925,359.337,-913.012,0,0
216177.25,352.983,-908.455,0,0
216437.575,346.799,-904.027,0,0
216697.9,340.814,-899.452,0,0
216958.225,334.993,-894.953,0,0
217218.55,329.207,-890.389,0,0
217478.875,323.683,-885.848,0,0
217739.2,318.344,-881.274,0,0
217999.525,313.131,-876.569,0,0
218259.85,308.003,-871.941,0,0
218520,303.043,-867.19,0,0
218780,298.302,-862.493,0,0
219041,293.67,-857.783,0,0
219301,289.154,-853.012,0,0
219561,284.912,-848.182,0,0
219822,280.66,-843.27,0,0
220082,276.703,-838.354,0,0
220342,272.812,-833.608,0,0
220603,269.035,-828.707,0,0
220863,265.595,-823.709,0,0
221123,262.176,-818.748,0,0
221384,258.994,-813.761,0,0
221644,255.897,-808.74,0,0
221904,253.01,-803.729,0,0
222165,250.396,-798.922,0,0
222425,247.752,-793.741,0,0
222685,245.497,-788.87,0,0
222946,243.326,-783.84,0,0
223206,241.546,-778.866,0,0
223466,239.852,-774.052,0,0
223727,238.426,-769.021,0,0
223987,237.193,-764.227,0,0
224247,236.169,-759.66,0,0
224508,235.403,-755.02,0,0
224768,234.764,-750.772,0,0
225028,234.422,-746.598,0,0
225289,234.335,-742.617,0,0
225549,234.166,-739.005,0,0
225809,234.238,-735.569,0,0
226070,234.212,-732.648,0,0
226330,234.258,-729.974,0,0
226590,234.153,-727.279,0,0
226851,233.9,-724.966,0,0
227111,233.525,-722.853,0,0
227371,232.922,-720.813,0,0
227632,232.128,-718.808,0,0
227892,231.3,-716.859,0,0
228152,230.246,-714.766,0,0
228413,228.989,-712.632,0,0
228673,227.72,-710.546,0,0
228933,226.43,-708.203,0,0
229193,225.079,-705.818,0,0
229454,223.661,-703.426,0,0
229714,222.325,-700.911,0,0
229974,221.029,-698.36,0,0
230235,219.745,-695.632,0,0
230495,218.549,-692.884,0,0
230755,217.47,-690.147,0,0
231016,216.394,-687.344,0,0
231276,215.352,-684.396,0,0
231536,214.398,-681.497,0,0
231797,213.613,-678.55,0,0
232057,212.885,-675.636,0,0
232317,212.093,-672.699,0,0
232578,211.52,-669.762,0,0
232838,210.934,-666.823,0,0
233098,210.535,-663.86,0,0
233359,210.076,-660.889,0,0
233619,209.853,-657.93,0,0
233879,209.618,-654.986,0,0
234140,209.546,-652.11,0,0
234400,209.416,-649.23,0,0
234660.3,209.511,-646.293,0,0
234920.625,209.662,-643.456,0,0
235180.95,209.689,-640.698,0,0
235441.275,210.093,-637.879,0,0
235701.6,210.443,-635.215,0,0
235961.925,210.878,-632.516,0,0
236222.25,211.388,-629.888,0,0
236482.575,211.875,-627.326,0,0
236742.9,212.494,-624.83,0,0
237003.225,213.158,-622.317,0,0
237263.55,213.885,-619.872,0,0
237523.875,214.72,-617.499,0,0
237784.2,215.594,-615.176,0,0
238044.525,216.458,-612.892,0,0
238304.85,217.47,-610.677,0,0
238565.175,218.486,-608.513,0,0
238825.5,219.589,-606.374,0,0
239085.825,220.799,-604.355,0,0
239346.15,221.937,-602.477,0,0
239606.475,223.208,-600.528,0,0
239866.8,224.421,-598.795,0,0
240127.125,225.848,-597.106,0,0
240387.45,227.396,-595.348,0,0
240647.775,228.706,-593.823,0,0
240908.1,230.132,-592.249,0,0
241168.425,231.61,-590.916,0,0
241428.75,233.085,-589.546,0,0
241689.075,234.54,-588.398,0,0
241949.4,236.124,-587.249,0,0
242209.725,237.545,-586.033,0,0
242470.05,239.14,-585.059,0,0
242730.375,240.6,-584.035,0,0
242990.7,242.113,-583.132,0,0
243251.025,243.741,-582.168,0,0
243511.35,245.426,-581.258,0,0
243771.675,247.072,-580.492,0,0
244032.0,248.818,-579.763,0,0
244292.325,250.631,-579.268,0,0
244552.65,252.485,-578.756,0,0
244812.975,254.477,-578.392,0,0
245073.3,256.3,-578.189,0,0
245333.625,258.111,-578.216,0,0
245593.95,259.892,-578.376,0,0
245854.275,261.518,-578.607,0,0
246114.6,263.234,-578.907,0,0
246374.925,264.735,-579.277,0,0
246635.25,266.232,-579.741,0,0
246895.575,267.678,-580.186,0,0
247155.9,269.125,-580.721,0,0
247416.225,270.484,-581.276,0,0
247676.55,271.832,-581.893,0,0
247936.875,273.081,-582.667,0,0
248197.2,274.352,-583.447,0,0
248457.525,275.451,-584.219,0,0
248717.85,276.514,-584.999,0,0
248978.175,277.502,-585.684,0,0
249238.5,278.589,-586.367,0,0
249498.825,279.663,-587.094,0,0
249759.15,280.858,-587.494,0,0
250019.475,282.262,-588.168,0,0
250279.8,283.783,-588.912,0,0
250540,285.505,-589.789,0,0
250800,287.315,-591.054,0,0
251061,289.208,-592.601,0,0
251321,291.028,-594.43,0,0
251581,292.638,-596.61,0,0
251842,294.103,-599.038,0,0
252102,295.23,-601.614,0,0
252362,296.272,-604.457,0,0
252623,296.972,-607.349,0,0
252883,297.483,-610.254,0,0
253143,297.762,-613.219,0,0
253404,297.894,-616.185,0,0
253664,297.751,-619.339,0,0
253924,297.461,-622.49,0,0
254185,296.901,-625.587,0,0
254445,296.28,-628.782,0,0
254705,295.214,-631.987,0,0
254966,293.984,-635.153,0,0
255226,292.463,-638.25,0,0
255486,290.748,-641.2,0,0
255747,288.864,-643.945,0,0
256007,286.741,-646.685,0,0
256267,284.462,-649.234,0,0
256528,282.068,-651.622,0,0
256788,279.53,-653.853,0,0
257048,276.872,-655.926,0,0
257309,274.223,-657.755,0,0
257569,271.463,-659.5,0,0
257829,268.639,-661.079,0,0
258090,265.832,-662.466,0,0
258350,262.949,-663.761,0,0
258610,260.101,-664.976,0,0
258871,257.173,-665.9,0,0
259131,254.274,-666.856,0,0
259391,251.424,-667.64,0,0
259651,248.467,-668.336,0,0
259912,245.55,-668.991,0,0
260172,242.65,-669.34,0,0
260432,239.842,-669.827,0,0
260693,236.925,-670.028,0,0
260953,234.093,-670.21,0,0
261213,231.26,-670.275,0,0
261474,228.48,-670.275,0,0
261734,225.736,-670.134,0,0
261994,223.047,-670.008,0,0
262255,220.383,-669.76,0,0
262515,217.796,-669.434,0,0
262775,215.256,-668.959,0,0
263036,212.642,-668.673,0,0
263296,210.223,-668.26,0,0
263556,207.765,-667.706,0,0
263817,205.351,-667.126,0,0
264077,203.027,-666.504,0,0
264337,200.608,-665.932,0,0
264598,198.282,-665.171,0,0
264858,195.916,-664.563,0,0
265118,193.715,-663.733,0,0
265379,191.485,-663.003,0,0
265639,189.208,-662.02,0,0
265899,187.175,-661.151,0,0
266160,185.113,-660.285,0,0
266420,183.124,-659.325,0,0
266680.25,180.994,-658.412,0,0
266940.575,179.014,-657.422,0,0
267200.9,177.071,-656.455,0,0
267461.225,175.173,-655.497,0,0
267721.55,173.307,-654.494,0,0
267981.875,171.393,-653.425,0,0
268242.2,169.616,-652.554,0,0
268502.525,167.809,-651.324,0,0
268762.85,165.961,-650.234,0,0
269023.175,164.216,-649.155,0,0
269283.5,162.476,-648.033,0,0
269543.825,160.807,-646.872,0,0
269804.15,159.083,-645.797,0,0
270064.475,157.445,-644.64,0,0
270324.8,155.851,-643.417,0,0
270585.125,154.346,-642.23,0,0
270845.45,152.712,-641.088,0,0
271105.775,151.11,-639.844,0,0
271366.1,149.606,-638.646,0,0
271626.425,148.152,-637.335,0,0
271886.75,146.669,-636.105,0,0
272147.075,145.184,-634.855,0,0
272407.4,143.857,-633.555,0,0
272667.725,142.425,-632.26,0,0
272928.05,141.124,-630.976,0,0
273188.375,139.752,-629.728,0,0
273448.7,138.484,-628.432,0,0
273709.025,137.23,-627.092,0,0
273969.35,135.976,-625.792,0,0
274229.675,134.822,-624.558,0,0
274490.0,133.582,-623.179,0,0
274750.325,132.38,-621.907,0,0
275010.65,131.288,-620.558,0,0
275270.975,130.108,-619.233,0,0
275531.3,128.979,-617.922,0,0
275791.625,127.888,-616.624,0,0
276051.95,126.824,-615.267,0,0
276312.275,125.797,-613.963,0,0
276572.6,124.767,-612.622,0,0
276832.925,123.764,-611.328,0,0
277093.25,122.791,-609.977,0,0
277353.575,121.846,-608.669,0,0
277613.9,120.895,-607.322,0,0
277874.225,119.977,-606.003,0,0
278134.55,119.077,-604.7,0,0
278394.875,118.18,-603.338,0,0
278655.2,117.332,-602.041,0,0
278915.525,116.456,-600.68,0,0
279175.85,115.643,-599.313,0,0
279436.175,114.803,-597.993,0,0
279696.5,114.074,-596.553,0,0
279956.825,113.358,-595.246,0,0
280217.15,112.7,-593.811,0,0
280477.475,112.031,-592.485,0,0
280737.8,111.454,-591.162,0,0
280998.125,110.91,-589.836,0,0
281258.45,110.38,-588.55,0,0
281518.775,109.88,-587.319,0,0
281779.1,109.377,-586.179,0,0
282039.425,108.866,-585.039,0,0
282299.75,108.342,-583.916,0,0
282560,107.784,-582.797,0,0
282820,107.23,-581.673,0,0
283081,106.69,-580.552,0,0
283341,106.119,-579.423,0,0
283601,105.576,-578.296,0,0
283862,105.035,-577.142,0,0
284122,104.525,-576,0,0
284382,104.015,-574.785,0,0
284643,103.583,-573.643,0,0
284903,103.153,-572.449,0,0
285163,102.79,-571.311,0,0
285424,102.434,-570.193,0,0
285684,102.134,-569.117,0,0
285944,101.872,-568.068,0,0
286205,101.62,-567.119,0,0
286465,101.354,-566.176,0,0
286725,101.057,-565.309,0,0
286986,100.75,-564.514,0,0
287246,100.381,-563.717,0,0
287506,99.9603,-562.947,0,0
287767,99.4976,-562.172,0,0
288027,99.0196,-561.354,0,0
288287,98.5219,-560.544,0,0
288548,97.9988,-559.701,0,0
288808,97.4733,-558.827,0,0
289068,96.9664,-557.947,0,0
289329,96.4279,-557.055,0,0
289589,95.9417,-556.177,0,0
289849,95.4318,-555.192,0,0
290109,94.9744,-554.264,0,0
290370,94.5103,-553.382,0,0
290630,94.078,-552.439,0,0
290890,93.6511,-551.532,0,0
291151,93.2294,-550.63,0,0
291411,92.8128,-549.753,0,0
291671,92.4145,-548.866,0,0
291932,92.0206,-548.029,0,0
292192,91.6358,-547.155,0,0
292452,91.2141,-546.323,0,0
292713,90.825,-545.504,0,0
292973,90.4231,-544.725,0,0
293233,89.992,-543.885,0,0
293494,89.5395,-543.145,0,0
293754,89.0802,-542.351,0,0
294014,88.5865,-541.584,0,0
294275,88.0902,-540.79,0,0
294535,87.5789,-539.992,0,0
294795,87.0457,-539.181,0,0
295056,86.4878,-538.323,0,0
295316,85.908,-537.439,0,0
295576,85.3646,-536.563,0,0
295837,84.7942,-535.638,0,0
296097,84.238,-534.694,0,0
296357,83.7044,-533.694,0,0
296618,83.1818,-532.678,0,0
296878,82.6875,-531.623,0,0
297138,82.2352,-530.552,0,0
297399,81.829,-529.459,0,0
297659,81.4765,-528.361,0,0
297919,81.1729,-527.263,0,0
298180,80.9362,-526.174,0,0
298440,80.728,-525.111,0,0
298700.2,80.5555,-524.13,0,0
298960.525,80.4467,-523.19,0,0
299220.85,80.3093,-522.258,0,0
299481.175,80.1975,-521.458,0,0
299741.5,80.0165,-520.634,0,0
300001.825,79.8454,-519.856,0,0
300262.15,79.6992,-519.086,0,0
300522.475,79.4615,-518.35,0,0
300782.8,79.1866,-517.578,0,0
301043.125,78.9223,-516.843,0,0
301303.45,78.6921,-516.084,0,0
301563.775,78.3504,-515.305,0,0
301824.1,78.0694,-514.501,0,0
302084.425,77.7837,-513.74,0,0
302344.75,77.5076,-512.922,0,0
302605.075,77.2519,-512.201,0,0
302865.4,76.8976,-511.437,0,0
303125.725,76.5919,-510.593,0,0
303386.05,76.3278,-509.752,0,0
303646.375,76.1012,-508.946,0,0
303906.7,75.8197,-508.16,0,0
304167.025,75.641,-507.368,0,0
304427.35,75.4041,-506.535,0,0
304687.675,75.1559,-505.721,0,0
304948.0,74.9646,-504.914,0,0
305208.325,74.7707,-504.152,0,0
305468.65,74.6237,-503.432,0,0
305728.975,74.396,-502.618,0,0
305989.3,74.2108,-501.958,0,0
306249.625,74.0712,-501.197,0,0
306509.95,73.8879,-500.541,0,0
306770.275,73.7006,-499.88,0,0
307030.6,73.4149,-499.184,0,0
307290.925,73.2068,-498.575,0,0
307551.25,73.0108,-497.919,0,0
307811.575,72.7256,-497.275,0,0
308071.9,72.4079,-496.633,0,0
308332.225,72.1282,-495.888,0,0
308592.55,71.8561,-495.231,0,0
308852.875,71.5854,-494.53,0,0
309113.2,71.2769,-493.806,0,0
309373.525,71.0498,-493.141,0,0
309633.85,70.7642,-492.463,0,0
309894.175,70.4653,-491.697,0,0
310154.5,70.256,-491.006,0,0
310414.825,69.985,-490.33,0,0
310675.15,69.739,-489.645,0,0
310935.475,69.5079,-488.922,0,0
311195.8,69.1994,-488.219,0,0
311456.125,68.9731,-487.609,0,0
311716.45,68.6579,-486.929,0,0
311976.775,68.412,-486.198,0,0
312237.1,68.1419,-485.523,0,0
312497.425,67.8817,-484.819,0,0
312757.75,67.5719,-484.132,0,0
313018.075,67.3018,-483.422,0,0
313278.4,67.0192,-482.753,0,0
313538.725,66.7351,-482.022,0,0
313799.05,66.465,-481.276,0,0
314059.375,66.1856,-480.601,0,0
314319.7,65.9016,-479.891,0,0
314580,65.6436,-479.097,0,0
314840,65.4092,-478.387,0,0
315101,65.2013,-477.668,0,0
315361,64.9847,-476.959,0,0
315621,64.7269,-476.225,0,0
315882,64.461,-475.502,0,0
316142,64.2853,-474.802,0,0
316402,64.074,-474.063,0,0
316663,63.8232,-473.36,0,0
316923,63.6307,-472.698,0,0
317183,63.3795,-471.998,0,0
317444,63.1945,-471.284,0,0
317704,62.9932,-470.612,0,0
317964,62.7667,-469.905,0,0
318225,62.5034,-469.172,0,0
318485,62.3042,-468.522,0,0
318745,62.0473,-467.815,0,0
319006,61.8378,-467.096,0,0
319266,61.6137,-466.378,0,0
319526,61.4287,-465.657,0,0
319787,61.2189,-464.981,0,0
320047,61.0011,-464.235,0,0
320307,60.7914,-463.526,0,0
320567,60.5816,-462.85,0,0
320828,60.4195,-462.106,0,0
321088,60.2505,-461.367,0,0
321348,60.0614,-460.679,0,0
321609,59.9343,-459.97,0,0
321869,59.6949,-459.293,0,0
322129,59.5606,-458.548,0,0
322390,59.4145,-457.873,0,0
322650,59.2642,-457.178,0,0
322910,59.1266,-456.53,0,0
323171,58.9661,-455.827,0,0
323431,58.8313,-455.179,0,0
323691,58.6497,-454.494,0,0
323952,58.5263,-453.849,0,0
324212,58.4063,-453.216,0,0
324472,58.2441,-452.571,0,0
324733,58.0572,-451.875,0,0
324993,57.9463,-451.236,0,0
325253,57.7415,-450.642,0,0
325514,57.5735,-449.952,0,0
325774,57.3948,-449.336,0,0
326034,57.2698,-448.691,0,0
326295,57.0532,-448.041,0,0
326555,56.8788,-447.352,0,0
326815,56.7247,-446.733,0,0
327076,56.5056,-446.044,0,0
327336,56.3307,-445.404,0,0
327596,56.2457,-444.742,0,0
327857,56.0757,-444.041,0,0
328117,55.9067,-443.378,0,0
328377,55.7268,-442.754,0,0
328638,55.5533,-442.107,0,0
328898,55.4333,-441.445,0,0
329158,55.2422,-440.752,0,0
329419,55.1251,-440.087,0,0
329679,54.9851,-439.406,0,0
329939,54.7651,-438.734,0,0
330200,54.6725,-438.063,0,0
330460,54.5179,-437.37,0,0
330720.15,54.4037,-436.699,0,0
330980.475,54.3014,-436.044,0,0
331240.8,54.1182,-435.376,0,0
331501.125,53.9973,-434.723,0,0
331761.45,53.8733,-434.044,0,0
332021.775,53.7709,-433.395,0,0
332282.1,53.6451,-432.688,0,0
332542.425,53.586,-432.022,0,0
332802.75,53.4091,-431.313,0,0
333063.075,53.3521,-430.714,0,0
333323.4,53.2421,-430.06,0,0
333583.725,53.1698,-429.401,0,0
333844.05,53.1152,-428.698,0,0
334104.375,53.0519,-428.085,0,0
334364.7,52.9767,-427.472,0,0
334625.025,52.8514,-426.79,0,0
334885.35,52.7744,-426.157,0,0
335145.675,52.7296,-425.489,0,0
335406.0,52.6417,-424.866,0,0
335666.325,52.6054,-424.235,0,0
335926.65,52.5487,-423.601,0,0
336186.975,52.4746,-423.001,0,0
336447.3,52.3894,-422.402,0,0
336707.625,52.3187,-421.779,0,0
336967.95,52.2403,-421.202,0,0
337228.275,52.1938,-420.601,0,0
337488.6,52.1025,-419.989,0,0
337748.925,52.0266,-419.379,0,0
338009.25,51.9546,-418.764,0,0
338269.575,51.8574,-418.163,0,0
338529.9,51.7659,-417.572,0,0
338790.225,51.7152,-416.911,0,0
339050.55,51.6243,-416.307,0,0
339310.875,51.5492,-415.698,0,0
339571.2,51.4842,-415.097,0,0
339831.525,51.4155,-414.478,0,0
340091.85,51.3897,-413.882,0,0
340352.175,51.3149,-413.254,0,0
340612.5,51.2532,-412.644,0,0
340872.825,51.2145,-412.013,0,0
341133.15,51.162,-411.392,0,0
341393.475,51.1334,-410.802,0,0
341653.8,51.0712,-410.175,0,0
341914.125,51.052,-409.555,0,0
342174.45,51.0272,-409.002,0,0
342434.775,51.03,-408.345,0,0
342695.1,50.9941,-407.778,0,0
342955.425,51.0214,-407.224,0,0
343215.75,51.0684,-406.675,0,0
343476.075,51.0584,-406.104,0,0
343736.4,51.0528,-405.602,0,0
343996.725,51.0187,-405.087,0,0
344257.05,50.945,-404.581,0,0
344517.375,50.913,-404.083,0,0
344777.7,50.7905,-403.541,0,0
345038.025,50.7449,-403.046,0,0
345298.35,50.6553,-402.48,0,0
345558.675,50.534,-401.92,0,0
345819.0,50.4382,-401.355,0,0
346079.325,50.3468,-400.769,0,0
346339.65,50.2723,-400.156,0,0
346599.975,50.213,-399.587,0,0
346860,50.1662,-398.963,0,0
347121,50.1129,-398.377,0,0
347381,50.0802,-397.784,0,0
347641,50.0421,-397.204,0,0
347902,50.0234,-396.624,0,0
348162,50.0006,-396.04,0,0
348422,49.982,-395.445,0,0
348683,50.0096,-394.87,0,0
348943,49.9843,-394.262,0,0
349203,49.9783,-393.681,0,0
349464,49.99,-393.14,0,0
349724,49.9739,-392.553,0,0
349984,49.9932,-391.971,0,0
350245,50.0041,-391.455,0,0
350505,50.0181,-390.893,0,0
350765,50.0486,-390.328,0,0
351025,50.0873,-389.768,0,0
351286,50.0569,-389.253,0,0
351546,50.0988,-388.742,0,0
351806,50.1562,-388.175,0,0
352067,50.173,-387.683,0,0
352327,50.211,-387.15,0,0
352587,50.2369,-386.597,0,0
352848,50.2677,-386.132,0,0
353108,50.2744,-385.618,0,0
353368,50.3346,-385.155,0,0
353629,50.3818,-384.646,0,0
353889,50.3858,-384.162,0,0
354149,50.4453,-383.687,0,0
354410,50.4395,-383.249,0,0
354670,50.4414,-382.781,0,0
354930,50.4797,-382.308,0,0
355191,50.4699,-381.851,0,0
355451,50.4561,-381.357,0,0
355711,50.4392,-380.931,0,0
355972,50.4553,-380.494,0,0
356232,50.3625,-380.045,0,0
356492,50.3828,-379.564,0,0
356753,50.3853,-379.082,0,0
357013,50.3503,-378.615,0,0
357273,50.3687,-378.135,0,0
357534,50.2815,-377.67,0,0
357794,50.3032,-377.209,0,0
358054,50.3075,-376.74,0,0
358315,50.271,-376.311,0,0
358575,50.2559,-375.84,0,0
358835,50.2762,-375.384,0,0
359096,50.2532,-374.913,0,0
359356,50.2326,-374.456,0,0
359616,50.2166,-373.983,0,0
359877,50.1574,-373.544,0,0
360137,50.1491,-373.152,0,0
360397,50.1138,-372.709,0,0
360658,50.0937,-372.259,0,0
360918,50.0125,-371.825,0,0
361178,49.9868,-371.373,0,0
361438,49.9392,-370.903,0,0
361699,49.8793,-370.427,0,0
361959,49.7984,-369.991,0,0
362219,49.7212,-369.52,0,0
362480,49.6838,-369.072,0,0
362740.1,49.6401,-368.568,0,0
363000.425,49.5915,-368.101,0,0
363260.75,49.5518,-367.64,0,0
363521.075,49.4849,-367.15,0,0
363781.4,49.4552,-366.623,0,0
364041.725,49.3998,-366.136,0,0
364302.05,49.3581,-365.662,0,0
364562.375,49.3429,-365.17,0,0
364822.7,49.3201,-364.68,0,0
365083.025,49.2617,-364.189,0,0
365343.35,49.2655,-363.7,0,0
365603.675,49.2207,-363.19,0,0
365864.0,49.1894,-362.712,0,0
366124.325,49.1869,-362.235,0,0
366384.65,49.2065,-361.761,0,0
366644.975,49.1782,-361.245,0,0
366905.3,49.1864,-360.776,0,0
367165.625,49.2,-360.281,0,0
367425.95,49.2073,-359.833,0,0
367686.275,49.1948,-359.358,0,0
367946.6,49.1631,-358.9,0,0
368206.925,49.1557,-358.42,0,0
368467.25,49.1537,-357.993,0,0
368727.575,49.1355,-357.505,0,0
368987.9,49.1442,-357.056,0,0
369248.225,49.1281,-356.593,0,0
369508.55,49.1203,-356.139,0,0
369768.875,49.1065,-355.691,0,0
370029.2,49.0937,-355.177,0,0
370289.525,49.0814,-354.688,0,0
370549.85,49.0975,-354.226,0,0
370810.175,49.1133,-353.78,0,0
371070.5,49.1107,-353.349,0,0
371330.825,49.1479,-352.841,0,0
371591.15,49.158,-352.396,0,0
371851.475,49.2011,-351.961,0,0
372111.8,49.2373,-351.501,0,0
372372.125,49.259,-351.068,0,0
372632.45,49.2817,-350.655,0,0
372892.775,49.3529,-350.2,0,0
373153.1,49.3268,-349.812,0,0
373413.425,49.3854,-349.424,0,0
373673.75,49.4176,-349.05,0,0
373934.075,49.3831,-348.72,0,0
374194.4,49.4098,-348.339,0,0
374454.725,49.3578,-347.965,0,0
374715.05,49.3266,-347.605,0,0
374975.375,49.221,-347.239,0,0
375235.7,49.1728,-346.889,0,0
375496.025,49.0956,-346.507,0,0
375756.35,48.9922,-346.062,0,0
376016.675,48.8791,-345.636,0,0
376277.0,48.7787,-345.251,0,0
376537.325,48.6751,-344.801,0,0
376797.65,48.5909,-344.341,0,0
377057.975,48.5064,-343.877,0,0
377318.3,48.4116,-343.418,0,0
377578.625,48.3513,-342.974,0,0
377838.95,48.2404,-342.478,0,0
378099.275,48.2073,-342.039,0,0
378359.6,48.0926,-341.551,0,0
378619.925,48.0621,-341.08,0,0
378880,47.9565,-340.613,0,0
379141,47.898,-340.119,0,0
379401,47.8119,-339.648,0,0
379661,47.7447,-339.145,0,0
379922,47.6627,-338.651,0,0
380182,47.6042,-338.152,0,0
380442,47.573,-337.632,0,0
380703,47.479,-337.153,0,0
380963,47.4496,-336.618,0,0
381223,47.3944,-336.089,0,0
381483,47.355,-335.567,0,0
381744,47.3232,-335.008,0,0
382004,47.3162,-334.481,0,0
382264,47.2763,-333.934,0,0
382525,47.3275,-333.378,0,0
382785,47.3925,-332.866,0,0
383045,47.4934,-332.338,0,0
383306,47.5398,-331.874,0,0
383566,47.6457,-331.417,0,0
383826,47.6997,-331.013,0,0
384087,47.7332,-330.617,0,0
384347,47.6833,-330.219,0,0
384607,47.6761,-329.81,0,0
384868,47.575,-329.383,0,0
385128,47.5858,-328.947,0,0
385388,47.5378,-328.471,0,0
385649,47.4954,-327.993,0,0
385909,47.4508,-327.529,0,0
386169,47.3679,-327.047,0,0
386430,47.3257,-326.583,0,0
386690,47.2901,-326.106,0,0
386950,47.248,-325.583,0,0
387211,47.2311,-325.092,0,0
387471,47.2097,-324.595,0,0
387731,47.1953,-324.089,0,0
387992,47.1619,-323.574,0,0
388252,47.1367,-323.095,0,0
388512,47.1317,-322.59,0,0
388773,47.1151,-322.098,0,0
389033,47.1007,-321.599,0,0
389293,47.07,-321.066,0,0
389554,47.084,-320.579,0,0
389814,47.0611,-320.068,0,0
390074,47.0557,-319.564,0,0
390335,47.0583,-319.037,0,0
390595,47.0537,-318.549,0,0
390855,47.0565,-318.023,0,0
391116,47.0483,-317.548,0,0
391376,47.0564,-317.039,0,0
391636,47.0292,-316.523,0,0
391896,47.0549,-316.011,0,0
392157,47.0458,-315.484,0,0
392417,47.0554,-314.986,0,0
392677,47.0558,-314.461,0,0
392938,47.0545,-313.96,0,0
393198,47.071,-313.445,0,0
393458,47.08,-312.936,0,0
393719,47.0773,-312.39,0,0
393979,47.0834,-311.879,0,0
394239,47.1025,-311.361,0,0
394500,47.1265,-310.827,0,0
394760.05,47.1463,-310.298,0,0
395020.375,47.1601,-309.773,0,0
395280.7,47.1909,-309.252,0,0
395541.025,47.1971,-308.717,0,0
395801.35,47.1954,-308.185,0,0
396061.675,47.2414,-307.671,0,0
396322.0,47.2587,-307.137,0,0
396582.325,47.2752,-306.58,0,0
396842.65,47.3314,-306.061,0,0
397102.975,47.3615,-305.52,0,0
397363.3,47.39,-304.985,0,0
397623.625,47.4528,-304.448,0,0
397883.95,47.4721,-303.917,0,0
398144.275,47.4951,-303.378,0,0
398404.6,47.5458,-302.83,0,0
398664.925,47.5975,-302.273,0,0
398925.25,47.6372,-301.738,0,0
399185.575,47.7057,-301.196,0,0
399445.9,47.7393,-300.656,0,0
399706.225,47.806,-300.112,0,0
399966.55,47.8478,-299.556,0,0
400006.6,47.878,-299.493,0,0