File: Accelerated corrosion test data/2025-10-16_18-00-04/sample_2.csv
Frequency (Hz),Impedance (ohms),Phase (Radians),Temperature (C),Humidity (%)
10000.0,230.304,-11426.7,0,0
10260.325,224.657,-11139.1,0,0
10520.65,219.435,-10865.7,0,0
10780.975,214.45,-10605.2,0,0
11041.3,209.376,-10357.5,0,0
11301.625,204.864,-10120.2,0,0
11561.95,201.03,-9892.73,0,0
11822.275,200.252,-9684.46,0,0
12082.6,193.412,-9473.9,0,0
12342.925,188.756,-9277.28,0,0
12603.25,184.31,-9085.66,0,0
12863.575,180.971,-8901.88,0,0
13123.9,178.126,-8728.83,0,0
13384.225,173.925,-8558.1,0,0
13644.55,171.361,-8392.86,0,0
13904.875,186.639,-8239.35,0,0
14165.2,166.274,-8094.64,0,0
14425.525,162.545,-7946.81,0,0
14685.8,164.418,-7799.16,0,0
14946.175,160.215,-7670.42,0,0
15206.5,164.93,-7549.54,0,0
15466.825,160.393,-7414.55,0,0
15727.15,152.012,-7301.55,0,0
15987.5,149.116,-7180.05,0,0
16247.8,149.317,-7065.9,0,0
16508.125,143.759,-6955.39,0,0
16768.45,141.388,-6847.41,0,0
17028.775,139.717,-6743.26,0,0
17289.1,138.493,-6642.84,0,0
17549.425,135.119,-6543.42,0,0
17809.75,132.997,-6448,0,0
18070.075,131.141,-6355.5,0,0
18330.4,130.001,-6264.53,0,0
18590.725,128.68,-6176.12,0,0
18851.05,127.372,-6090.32,0,0
19111.375,128.534,-6008.51,0,0
19371.7,128.612,-5931,0,0
19632.025,123.345,-5853.16,0,0
19892.35,120.9,-5775.23,0,0
20152.675,119.219,-5699.52,0,0
20413.0,118.587,-5625.47,0,0
20673.3,117.799,-5552.83,0,0
20933.65,118.353,-5481.6,0,0
21193.975,123.491,-5413.95,0,0
21454.3,130.511,-5352.42,0,0
21714.625,127.545,-5296.34,0,0
21974.9,121.409,-5231.33,0,0
22235.275,118.806,-5177.16,0,0
22495.6,114.931,-5116.32,0,0
22755.925,111.866,-5055.76,0,0
23016.25,112.818,-5000.35,0,0
23276.6,112.838,-4945.62,0,0
23536.9,108.639,-4891.49,0,0
23797.225,107.446,-4836.29,0,0
24057.55,107.008,-4785.68,0,0
24317.875,102.83,-4734.46,0,0
24578.2,101.514,-4683.74,0,0
24838.525,100.017,-4633.74,0,0
25098.85,99.217,-4584.78,0,0
25359.175,97.9761,-4537.53,0,0
25619.5,97.29,-4490.72,0,0
25879.8,96.4987,-4444.61,0,0
26140.1,96.3091,-4400.2,0,0
26400.5,95.3886,-4356.83,0,0
26660.8,96.5774,-4314.92,0,0
26921.1,94.8481,-4272.7,0,0
27181.4,93.6559,-4233.18,0,0
27441.8,92.5126,-4192.68,0,0
27702.1,90.736,-4152.38,0,0
27962.4,89.8817,-4111.98,0,0
28222.7,90.3499,-4073.65,0,0
28483.1,89.9417,-4035.83,0,0
28743.4,89.0729,-3998.81,0,0
29003.7,90.4631,-3961.35,0,0
29264,90.0104,-3925.48,0,0
29524.4,93.1846,-3890.04,0,0
29784.7,96.1973,-3860.62,0,0
30045,92.7791,-3829.06,0,0
30305.3,93.8175,-3795.97,0,0
30565.7,90.8562,-3768.36,0,0
30826,87.8112,-3735.73,0,0
31086.3,86.5721,-3703.52,0,0
31346.6,84.6025,-3672.33,0,0
31607,85.1991,-3641.35,0,0
31867.3,83.1969,-3612.03,0,0
32127.6,82.0902,-3581.64,0,0
32387.9,82.3146,-3551.43,0,0
32648.3,83.227,-3523.29,0,0
32908.6,83.0164,-3497.19,0,0
33168.9,81.9512,-3470.44,0,0
33429.2,79.7767,-3442.97,0,0
33689.6,79.5078,-3415.95,0,0
33949.9,78.9418,-3390.4,0,0
34210.2,77.0871,-3364.27,0,0
34470.5,76.0487,-3337.92,0,0
34730.9,75.6678,-3312.36,0,0
34991.2,75.0982,-3287.47,0,0
35251.5,74.5816,-3262.68,0,0
35511.8,74.173,-3238.22,0,0
35772.2,73.7257,-3214.54,0,0
36032.5,73.0963,-3191.12,0,0
36292.8,72.6373,-3167.64,0,0
36553.1,71.8604,-3144.66,0,0
36813.5,71.5296,-3122,0,0
37073.8,71.3372,-3099.64,0,0
37334.1,70.8979,-3077.63,0,0
37594.4,70.5366,-3055.93,0,0
37854.8,70.1913,-3034.77,0,0
38115.1,69.8412,-3014.24,0,0
38375.4,69.231,-2993.26,0,0
38635.7,68.6733,-2972.63,0,0
38896.1,68.3783,-2951.93,0,0
39156.4,68.1105,-2932.26,0,0
39416.7,67.6673,-2912.46,0,0
39677,67.3421,-2893.01,0,0
39937.4,66.9461,-2873.62,0,0
40197.7,66.6425,-2854.58,0,0
40458,66.1545,-2835.93,0,0
40718.3,66.225,-2817.02,0,0
40978.7,66.0001,-2799.1,0,0
41239,65.5493,-2780.83,0,0
41499.3,65.7376,-2763.09,0,0
41759.6,65.281,-2745.45,0,0
42020,64.9569,-2728.06,0,0
42280.275,65.1109,-2711.23,0,0
42540.6,64.3546,-2694.2,0,0
42800.925,64.0497,-2677.7,0,0
43061.25,63.8365,-2661.1,0,0
43321.575,63.465,-2644.39,0,0
43581.9,63.3368,-2628.3,0,0
43842.225,62.9308,-2612.4,0,0
44102.55,62.7044,-2596.33,0,0
44362.875,62.6963,-2580.83,0,0
44623.2,62.2264,-2565.41,0,0
44883.525,61.867,-2550.03,0,0
45143.85,61.8143,-2534.66,0,0
45404.175,62.0846,-2519.65,0,0
45664.5,61.5225,-2505.13,0,0
45924.825,61.7424,-2490.24,0,0
46185.15,61.8998,-2476.34,0,0
46445.475,61.137,-2462.36,0,0
46705.8,60.81,-2447.64,0,0
46966.125,60.818,-2433.61,0,0
47226.45,60.8602,-2419.7,0,0
47486.775,61.1681,-2406.28,0,0
47747.1,60.3153,-2393.19,0,0
48007.425,60.4009,-2379.22,0,0
48267.75,60.9548,-2365.48,0,0
48528.075,61.4376,-2353.75,0,0
48788.4,60.9504,-2341.23,0,0
49048.725,60.5734,-2328.92,0,0
49309.05,60.0751,-2316.61,0,0
49569.375,59.3211,-2304.1,0,0
49829.7,58.6694,-2291.52,0,0
50090.025,58.4526,-2279.17,0,0
50350.35,57.7888,-2267.01,0,0
50610.675,57.6023,-2254.53,0,0
50871.0,57.762,-2242.45,0,0
51131.325,57.5112,-2230.97,0,0
51391.65,57.0829,-2219.3,0,0
51651.975,56.566,-2207.82,0,0
51912.3,56.1972,-2196.21,0,0
52172.625,55.7753,-2184.57,0,0
52432.95,55.5158,-2173.06,0,0
52693.275,55.3927,-2161.82,0,0
52953.6,55.1076,-2150.59,0,0
53213.925,55.0557,-2139.34,0,0
53474.25,54.7224,-2128.35,0,0
53734.575,54.5324,-2117.5,0,0
53994.9,54.4329,-2106.56,0,0
54255.225,54.3516,-2095.82,0,0
54515.55,54.3013,-2085.24,0,0
54775.875,54.2332,-2074.82,0,0
55036.2,54.0974,-2064.41,0,0
55296.525,53.9147,-2054.03,0,0
55556.85,53.9362,-2043.89,0,0
55817.175,53.9727,-2033.73,0,0
56077.5,53.8666,-2023.76,0,0
56337.825,53.7992,-2013.88,0,0
56598.15,53.7294,-2003.88,0,0
56858.475,53.8617,-1994.04,0,0
57118.8,53.8389,-1984.49,0,0
57379.125,53.8573,-1974.84,0,0
57639.45,53.9023,-1965.33,0,0
57899.775,54.0534,-1955.92,0,0
58160.1,54.075,-1946.73,0,0
58420.4,53.9977,-1937.55,0,0
58680.7,54.0196,-1928.19,0,0
58941.1,54.1198,-1918.89,0,0
59201.4,54.3106,-1909.75,0,0
59461.7,54.6741,-1900.74,0,0
59722,54.8645,-1891.82,0,0
59982.4,55.5112,-1883,0,0
60242.7,56.1682,-1874.81,0,0
60503,56.2564,-1866.66,0,0
60763.3,56.3148,-1858.26,0,0
61023.7,56.6264,-1849.85,0,0
61284,57.3508,-1841.7,0,0
61544.3,57.9558,-1833.84,0,0
61804.6,58.7786,-1826.43,0,0
62065,58.879,-1820.01,0,0
62325.3,57.9645,-1812.55,0,0
62585.6,57.9142,-1805.08,0,0
62845.9,57.7369,-1798.1,0,0
63106.3,56.6805,-1791.31,0,0
63366.6,55.4956,-1783.42,0,0
63626.9,54.9827,-1775.62,0,0
63887.2,54.3599,-1767.86,0,0
64147.6,53.9498,-1760.09,0,0
64407.9,53.4841,-1752.67,0,0
64668.2,52.9841,-1745.08,0,0
64928.5,52.3119,-1737.91,0,0
65188.9,51.1871,-1730.13,0,0
65449.2,50.6139,-1721.81,0,0
65709.5,50.5636,-1713.69,0,0
65969.8,50.7055,-1705.85,0,0
66230.2,50.8623,-1698.26,0,0
66490.5,51.1068,-1690.8,0,0
66750.8,51.0653,-1683.66,0,0
67011.1,51.0471,-1676.13,0,0
67271.5,51.4249,-1668.61,0,0
67531.8,51.9509,-1661.41,0,0
67792.1,52.4583,-1654.36,0,0
68052.4,53.2082,-1647.63,0,0
68312.8,53.5082,-1641.5,0,0
68573.1,53.451,-1634.72,0,0
68833.4,54.0874,-1627.96,0,0
69093.7,54.8437,-1621.68,0,0
69354.1,55.2612,-1615.97,0,0
69614.4,55.5014,-1609.91,0,0
69874.7,55.8529,-1604.51,0,0
70135,55.5859,-1599.08,0,0
70395.4,55.342,-1593.86,0,0
70655.7,54.23,-1588.55,0,0
70916,53.1485,-1582.45,0,0
71176.3,52.3615,-1576.3,0,0
71436.7,51.7868,-1570.08,0,0
71697,51.2671,-1564.24,0,0
71957.3,50.1734,-1558.54,0,0
72217.6,48.951,-1552.38,0,0
72478,47.8344,-1545.73,0,0
72738.3,47.1229,-1539.09,0,0
72998.6,46.5537,-1532.31,0,0
73258.9,46.2648,-1525.83,0,0
73519.3,45.7253,-1519.39,0,0
73779.6,45.23,-1512.88,0,0
74039.9,44.9829,-1506.09,0,0
74300.225,45.0174,-1499.49,0,0
74560.55,45.1189,-1493.19,0,0
74820.875,45.1219,-1486.79,0,0
75081.2,45.2774,-1480.47,0,0
75341.525,45.458,-1474.23,0,0
75601.85,45.7039,-1468.08,0,0
75862.175,46.0494,-1461.99,0,0
76122.5,46.5777,-1455.97,0,0
76382.825,47.0174,-1450.11,0,0
76643.15,47.4337,-1444.35,0,0
76903.475,47.9039,-1438.56,0,0
77163.8,48.3907,-1432.86,0,0
77424.125,49.0738,-1427.18,0,0
77684.45,49.8185,-1421.87,0,0
77944.775,50.5707,-1416.54,0,0
78205.1,51.335,-1411.52,0,0
78465.425,52.0616,-1406.72,0,0
78725.75,52.584,-1402.18,0,0
78986.075,53.0603,-1397.7,0,0
79246.4,53.3139,-1393.29,0,0
79506.725,53.4747,-1389.17,0,0
79767.05,53.1641,-1384.98,0,0
80027.375,52.6119,-1380.71,0,0
80287.7,51.7743,-1376.15,0,0
80548.025,51.1247,-1371.22,0,0
80808.35,50.4884,-1366.29,0,0
81068.675,50.0061,-1361.17,0,0
81329.0,49.6139,-1356.11,0,0
81589.325,49.2519,-1351.04,0,0
81849.65,48.8721,-1345.95,0,0
82109.975,48.5683,-1340.78,0,0
82370.3,48.4089,-1335.67,0,0
82630.625,48.1963,-1330.56,0,0
82890.95,48.1378,-1325.32,0,0
83151.275,48.174,-1320.21,0,0
83411.6,48.2843,-1315.15,0,0
83671.925,48.4972,-1310.22,0,0
83932.25,48.6463,-1305.31,0,0
84192.575,48.8181,-1300.54,0,0
84452.9,49.0573,-1295.86,0,0
84713.225,49.1768,-1291.21,0,0
84973.55,49.2902,-1286.51,0,0
85233.875,49.3915,-1281.75,0,0
85494.2,49.5745,-1277,0,0
85754.525,49.9504,-1272.43,0,0
86014.85,50.2449,-1268.06,0,0
86275.175,50.4871,-1263.68,0,0
86535.5,50.6416,-1259.41,0,0
86795.825,50.6422,-1255.02,0,0
87056.15,50.7928,-1250.59,0,0
87316.475,51.1662,-1246.31,0,0
87576.8,51.3576,-1242.23,0,0
87837.125,51.2759,-1238.02,0,0
88097.45,51.2279,-1233.82,0,0
88357.775,51.2838,-1229.43,0,0
88618.1,51.3912,-1225.52,0,0
88878.425,50.9994,-1221.26,0,0
89138.75,51.1305,-1216.57,0,0
89399.075,51.4388,-1212.31,0,0
89659.4,51.5951,-1208.08,0,0
89919.725,52.0316,-1203.94,0,0
90180,52.2793,-1200.17,0,0
90440.4,51.9878,-1196.52,0,0
90700.7,51.4777,-1192.2,0,0
90961,51.5326,-1187.38,0,0
91221.3,52.2345,-1182.96,0,0
91481.7,52.5824,-1179.15,0,0
91742,52.704,-1175.07,0,0
92002.3,53.0861,-1170.99,0,0
92262.6,53.5464,-1166.88,0,0
92523,54.1707,-1163.05,0,0
92783.3,54.5371,-1159.41,0,0
93043.6,54.8459,-1155.76,0,0
93303.9,55.3603,-1152.05,0,0
93564.3,55.7761,-1148.6,0,0
93824.6,56.2567,-1145.37,0,0
94084.9,56.3254,-1142.37,0,0
94345.2,55.8897,-1139.21,0,0
94605.6,55.4989,-1135.46,0,0
94865.9,55.6337,-1131.8,0,0
95126.2,55.4959,-1128.58,0,0
95386.5,54.7461,-1124.94,0,0
95646.9,54.3172,-1120.57,0,0
95907.2,54.5927,-1116.06,0,0
96167.5,55.3523,-1111.93,0,0
96427.8,56.24,-1108.5,0,0
96688.2,56.7463,-1105.24,0,0
96948.5,57.4087,-1101.89,0,0
97208.8,58.0773,-1098.92,0,0
97469.1,58.5959,-1096.4,0,0
97729.5,58.387,-1093.96,0,0
97989.8,58.0801,-1091.1,0,0
98250.1,57.8611,-1088.08,0,0
98510.4,57.7627,-1085.29,0,0
98770.8,57.3581,-1082.7,0,0
99031.1,56.6969,-1079.95,0,0
99291.4,55.8483,-1077.13,0,0
99551.7,54.6567,-1074.09,0,0
99812.1,53.4456,-1070.55,0,0
100072,52.7007,-1066.57,0,0
100333,52.4823,-1062.82,0,0
100593,52.2344,-1059.64,0,0
100853,51.4362,-1056.49,0,0
101114,50.5448,-1052.98,0,0
101374,49.6891,-1049.48,0,0
101634,48.5284,-1045.69,0,0
101895,47.6053,-1041.42,0,0
102155,47.0865,-1037,0,0
102415,46.9413,-1032.81,0,0
102676,46.7239,-1028.84,0,0
102936,46.289,-1024.79,0,0
103196,46.0206,-1020.48,0,0
103457,45.939,-1016.08,0,0
103717,46.0969,-1011.7,0,0
103977,46.4634,-1007.39,0,0
104238,46.9192,-1003.15,0,0
104498,47.6732,-998.938,0,0
104758,48.5596,-995.076,0,0
105019,49.4493,-991.484,0,0
105279,50.1449,-987.932,0,0
105539,50.8664,-984.233,0,0
105800,51.9431,-980.611,0,0
106060,53.0832,-977.409,0,0
106320.175,54.1886,-974.415,0,0
106580.5,55.252,-971.597,0,0
106840.825,56.2182,-969.075,0,0
107101.15,56.9771,-966.719,0,0
107361.475,57.5382,-964.537,0,0
107621.8,57.683,-962.519,0,0
107882.125,57.5703,-960.201,0,0
108142.45,57.4818,-957.943,0,0
108402.775,57.0163,-955.576,0,0
108663.1,56.5381,-952.997,0,0
108923.425,56.0147,-950.312,0,0
109183.75,55.3674,-947.531,0,0
109444.075,54.7222,-944.48,0,0
109704.4,54.1813,-941.393,0,0
109964.725,53.5584,-938.331,0,0
110225.05,52.8358,-934.959,0,0
110485.375,52.351,-931.385,0,0
110745.7,51.9834,-927.856,0,0
111006.025,51.7204,-924.2,0,0
111266.35,51.6777,-920.531,0,0
111526.675,51.6275,-917.128,0,0
111787.0,51.6388,-913.56,0,0
112047.325,51.8172,-909.896,0,0
112307.65,51.9891,-906.503,0,0
112567.975,52.0842,-903.086,0,0
112828.3,52.2838,-899.588,0,0
113088.625,52.5203,-896.064,0,0
113348.95,52.7926,-892.493,0,0
113609.275,53.2483,-889.104,0,0
113869.6,53.6792,-885.817,0,0
114129.925,54.0326,-882.431,0,0
114390.25,54.5295,-879.071,0,0
114650.575,55.0102,-875.756,0,0
114910.9,55.5072,-872.427,0,0
115171.225,56.2013,-869.092,0,0
115431.55,56.8932,-865.941,0,0
115691.875,57.5637,-862.813,0,0
115952.2,58.2127,-859.729,0,0
116212.525,58.9013,-856.639,0,0
116472.85,59.7057,-853.623,0,0
116733.175,60.5598,-850.698,0,0
116993.5,61.2959,-847.852,0,0
117253.825,62.0113,-845.046,0,0
117514.15,62.7647,-842.211,0,0
117774.475,63.6588,-839.445,0,0
118034.8,64.5828,-836.841,0,0
118295.125,65.4304,-834.412,0,0
118555.45,66.1026,-832.008,0,0
118815.775,66.8156,-829.542,0,0
119076.1,67.6062,-827.283,0,0
119336.425,68.1614,-825.132,0,0
119596.75,68.663,-822.862,0,0
119857.075,69.227,-820.751,0,0
120117.4,69.6152,-818.678,0,0
120377.725,69.9146,-816.716,0,0
120638.05,70.0485,-814.656,0,0
120898.375,70.0927,-812.66,0,0
121158.7,69.9204,-810.534,0,0
121419.025,69.7299,-808.204,0,0
121679.35,69.601,-805.847,0,0
121939.675,69.4457,-803.511,0,0
122200.0,69.1695,-801.07,0,0
122460,68.8982,-798.467,0,0
122721,68.7128,-795.783,0,0
122981,68.6206,-793.138,0,0
123241,68.4774,-790.459,0,0
123502,68.3643,-787.741,0,0
123762,68.2402,-785.075,0,0
124022,68.0452,-782.29,0,0
124283,67.9353,-779.44,0,0
124543,67.832,-776.531,0,0
124803,67.7919,-773.608,0,0
125064,67.7341,-770.6,0,0
125324,67.8044,-767.573,0,0
125584,67.9349,-764.529,0,0
125845,68.1104,-761.477,0,0
126105,68.3673,-758.441,0,0
126365,68.6642,-755.397,0,0
126626,68.9673,-752.39,0,0
126886,69.2747,-749.427,0,0
127146,69.7731,-746.362,0,0
127406,70.2333,-743.414,0,0
127667,70.8254,-740.436,0,0
127927,71.4443,-737.584,0,0
128187,72.0635,-734.839,0,0
128448,72.6472,-732.133,0,0
128708,73.2217,-729.415,0,0
128968,73.792,-726.77,0,0
129229,74.39,-724.197,0,0
129489,74.8723,-721.712,0,0
129749,75.2249,-719.128,0,0
130010,75.5994,-716.464,0,0
130270,76.0952,-713.772,0,0
130530,76.6122,-711.145,0,0
130791,77.1712,-708.555,0,0
131051,77.6951,-706.076,0,0
131311,78.1435,-703.686,0,0
131572,78.4321,-701.259,0,0
131832,78.7022,-698.754,0,0
132092,78.9478,-696.279,0,0
132353,79.0583,-693.698,0,0
132613,79.1718,-690.977,0,0
132873,79.3983,-688.155,0,0
133134,79.667,-685.327,0,0
133394,80.0003,-682.513,0,0
133654,80.3544,-679.694,0,0
133915,80.7542,-676.974,0,0
134175,81.0656,-674.239,0,0
134435,81.2821,-671.457,0,0
134696,81.5003,-668.508,0,0
134956,81.8265,-665.547,0,0
135216,82.1935,-662.47,0,0
135477,82.6101,-659.41,0,0
135737,83.167,-656.32,0,0
135997,83.739,-653.289,0,0
136258,84.3165,-650.272,0,0
136518,84.9763,-647.266,0,0
136778,85.602,-644.321,0,0
137039,86.1977,-641.313,0,0
137299,86.8,-638.216,0,0
137559,87.5043,-635.181,0,0
137819,88.2602,-632.095,0,0
138080,89.0676,-629.142,0,0
138340.125,89.7566,-626.241,0,0
138600.45,90.3648,-623.216,0,0
138860.775,90.9987,-620.082,0,0
139121.1,91.7198,-616.914,0,0
139381.425,92.4913,-613.75,0,0
139641.75,93.232,-610.65,0,0
139902.075,93.8306,-607.429,0,0
140162.4,94.4119,-603.956,0,0
140422.725,95.1869,-600.289,0,0
140683.05,96.1919,-596.507,0,0
140943.375,97.3931,-592.762,0,0
141203.7,98.7065,-588.981,0,0
141464.025,100.263,-585.145,0,0
141724.35,101.982,-581.472,0,0
141984.675,103.814,-577.881,0,0
142245.0,105.768,-574.344,0,0
142505.325,107.849,-570.933,0,0
142765.65,110.024,-567.634,0,0
143025.975,112.226,-564.499,0,0
143286.3,114.325,-561.532,0,0
143546.625,116.419,-558.462,0,0
143806.95,118.564,-555.367,0,0
144067.275,120.8,-552.372,0,0
144327.6,123.067,-549.42,0,0
144587.925,125.28,-546.509,0,0
144848.25,127.473,-543.466,0,0
145108.575,129.913,-540.334,0,0
145368.9,132.526,-537.359,0,0
145629.225,135.212,-534.449,0,0
145889.55,137.954,-531.691,0,0
146149.875,140.669,-528.973,0,0
146410.2,143.442,-526.223,0,0
146670.525,146.337,-523.48,0,0
146930.85,149.314,-520.854,0,0
147191.175,152.303,-518.166,0,0
147451.5,155.5,-515.445,0,0
147711.825,158.953,-512.855,0,0
147972.15,162.439,-510.41,0,0
148232.475,166.008,-507.968,0,0
148492.8,169.842,-505.499,0,0
148753.125,173.951,-503.165,0,0
149013.45,178.338,-500.901,0,0
149273.775,183.295,-498.936,0,0
149534.1,188.506,-497.605,0,0
149794.425,193.743,-496.798,0,0
150054.75,198.975,-496.455,0,0
150315.075,204.301,-496.445,0,0
150575.4,209.853,-497.101,0,0
150835.725,215.208,-498.835,0,0
151096.05,219.709,-501.256,0,0
151356.375,223.493,-503.77,0,0
151616.7,226.972,-506.388,0,0
151877.025,230.096,-509.412,0,0
152137.35,232.41,-512.757,0,0
152397.675,234.052,-515.924,0,0
152658.0,235.163,-518.911,0,0
152918.325,235.893,-521.653,0,0
153178.65,236.342,-524.186,0,0
153438.975,236.61,-526.667,0,0
153699.3,236.381,-529.144,0,0
153959.625,235.633,-531.321,0,0
154219.95,234.44,-533.005,0,0
154480,233.243,-534.109,0,0
154741,232.031,-534.807,0,0
155001,230.945,-535.264,0,0
155261,229.83,-535.433,0,0
155522,229.067,-535.477,0,0
155782,228.263,-535.596,0,0
156042,227.289,-535.824,0,0
156303,225.943,-535.789,0,0
156563,224.578,-535.259,0,0
156823,223.507,-534.658,0,0
157084,222.21,-534.028,0,0
157344,220.662,-532.79,0,0
157604,219.456,-530.818,0,0
157864,219.04,-528.779,0,0
158125,218.933,-527.075,0,0
158385,218.844,-525.326,0,0
158645,218.961,-523.482,0,0
158906,219.59,-521.91,0,0
159166,220.035,-520.642,0,0
159426,220.584,-519.627,0,0
159687,220.844,-518.53,0,0
159947,221.219,-517.54,0,0
160207,221.467,-516.561,0,0
160468,221.514,-515.756,0,0
160728,221.447,-514.533,0,0
160988,221.41,-513.044,0,0
161249,221.879,-511.106,0,0
161509,223.26,-509.423,0,0
161769,224.717,-508.523,0,0
162030,226.463,-508.008,0,0
162290,228.242,-508.595,0,0
162550,229.19,-510.001,0,0
162811,229.035,-511.581,0,0
163071,228.091,-512.938,0,0
163331,226.422,-513.994,0,0
163592,224.387,-514.486,0,0
163852,222.291,-514.612,0,0
164112,219.833,-514.631,0,0
164373,216.819,-513.879,0,0
164633,213.927,-512.517,0,0
164893,211.321,-510.676,0,0
165154,208.614,-508.742,0,0
165414,205.998,-506.479,0,0
165674,203.15,-503.723,0,0
165935,200.764,-500.306,0,0
166195,198.759,-496.782,0,0
166455,196.904,-493.166,0,0
166716,195.261,-489.352,0,0
166976,193.792,-485.071,0,0
167236,192.984,-480.958,0,0
167497,192.094,-477.026,0,0
167757,191.266,-472.786,0,0
168017,190.482,-468.398,0,0
168277,190.071,-463.818,0,0
168538,190.076,-459.274,0,0
168798,190.395,-454.771,0,0
169058,190.68,-450.556,0,0
169319,190.958,-446.374,0,0
169579,191.098,-441.809,0,0
169839,191.598,-437.055,0,0
170100,192.58,-432.281,0,0
170360.075,193.784,-427.882,0,0
170620.4,194.9,-423.797,0,0
170880.725,195.56,-419.523,0,0
171141.05,196.328,-414.722,0,0
171401.375,197.58,-409.67,0,0
171661.7,199.177,-404.831,0,0
171922.025,200.984,-400.051,0,0
172182.35,202.89,-395.406,0,0
172442.675,204.728,-390.608,0,0
172703.0,206.872,-385.725,0,0
172963.325,209.273,-380.886,0,0
173223.65,211.822,-376.219,0,0
173483.975,214.266,-371.538,0,0
173744.3,216.87,-366.515,0,0
174004.625,219.949,-361.411,0,0
174264.95,223.341,-356.405,0,0
174525.275,227.005,-351.371,0,0
174785.6,231.141,-346.413,0,0
175045.925,235.677,-341.816,0,0
175306.25,240.385,-337.393,0,0
175566.575,245.403,-333.179,0,0
175826.9,250.804,-329.344,0,0
176087.225,256.454,-326.134,0,0
176347.55,261.971,-323.571,0,0
176607.875,267.019,-321.324,0,0
176868.2,271.86,-318.993,0,0
177128.525,276.768,-316.447,0,0
177388.85,282.223,-313.906,0,0
177649.175,288.129,-311.98,0,0
177909.5,294.093,-310.995,0,0
178169.825,299.663,-310.721,0,0
178430.15,304.401,-310.817,0,0
178690.475,308.887,-310.837,0,0
178950.8,313.179,-311.234,0,0
179211.125,316.728,-311.967,0,0
179471.45,319.848,-312.794,0,0
179731.775,321.859,-313.837,0,0
179992.1,323.8,-312.752,0,0
180252.425,324.914,-312.512,0,0
180512.75,325.717,-311.448,0,0
180773.075,326.54,-309.788,0,0
181033.4,327.205,-307.544,0,0
181293.725,327.706,-304.428,0,0
181554.05,328.87,-300.182,0,0
181814.375,331.055,-295.459,0,0
182074.7,334.124,-290.883,0,0
182335.025,337.862,-286.713,0,0
182595.35,341.488,-283.045,0,0
182855.675,344.751,-279.271,0,0
183116.0,348.079,-274.886,0,0
183376.325,352.126,-269.898,0,0
183636.65,357.007,-265.001,0,0
183896.975,362.259,-260.624,0,0
184157.3,367.5,-256.227,0,0
184417.625,373.089,-251.576,0,0
184677.95,379.431,-246.797,0,0
184938.275,386.602,-242.464,0,0
185198.6,394.055,-238.876,0,0
185458.925,401.552,-235.835,0,0
185719.25,408.891,-232.951,0,0
185979.575,416.331,-230.321,0,0
186239.9,423.977,-227.606,0,0
186500,431.95,-225.255,0,0
186761,439.942,-223.559,0,0
187021,447.394,-221.678,0,0
187281,455.205,-219.379,0,0
187542,463.79,-217.318,0,0
187802,472.672,-215.76,0,0
188062,481.55,-214.913,0,0
188322,490.438,-214.079,0,0
188583,499.455,-213.757,0,0
188843,508.392,-214.168,0,0
189103,516.299,-214.782,0,0
189364,523.742,-214.632,0,0
189624,531.712,-213.909,0,0
189884,540.011,-213.007,0,0
190145,548.79,-211.889,0,0
190405,558.296,-211.025,0,0
190665,568.071,-210.432,0,0
190926,578.051,-209.861,0,0
191186,588.554,-209.16,0,0
191446,599.989,-208.573,0,0
191707,612.177,-208.724,0,0
191967,624.795,-209.432,0,0
192227,637.888,-210.757,0,0
192488,651.408,-212.668,0,0
192748,665.511,-215.206,0,0
193008,680.297,-218.609,0,0
193269,695.614,-223.287,0,0
193529,711.09,-229.427,0,0
193789,726.38,-236.988,0,0
194050,741.3,-246.048,0,0
194310,755.218,-256.284,0,0
194570,768.244,-267.281,0,0
194831,780.683,-278.886,0,0
195091,792.34,-291.207,0,0
195351,802.998,-304.266,0,0
195612,812.564,-317.493,0,0
195872,821.328,-330.594,0,0
196132,829.709,-343.647,0,0
196393,837.849,-356.952,0,0
196653,845.367,-370.534,0,0
196913,852.333,-384.137,0,0
197174,859.063,-397.607,0,0
197434,865.821,-411.176,0,0
197694,872.733,-425.166,0,0
197955,879.73,-440.115,0,0
198215,886.165,-456.282,0,0
198475,891.512,-473.489,0,0
198735,895.372,-491.303,0,0
198996,897.769,-509.093,0,0
199256,898.901,-526.594,0,0
199516,899.201,-543.391,0,0
199777,899.432,-559.813,0,0
200037,899.463,-576.169,0,0
200297,899.217,-593.15,0,0
200558,898.024,-610.556,0,0
200818,895.882,-628.281,0,0
201078,892.81,-646.128,0,0
201339,888.162,-664.43,0,0
201599,881.387,-682.251,0,0
201859,873.298,-698.31,0,0
202120,865.139,-712.808,0,0
202380.025,857.482,-726.834,0,0
202640.35,849.396,-741.19,0,0
202900.675,840.052,-755.607,0,0
203161.0,829.425,-768.95,0,0
203421.325,817.965,-780.742,0,0
203681.65,806.726,-791.102,0,0
203941.975,796.007,-800.727,0,0
204202.3,785.429,-810.143,0,0
204462.625,774.672,-819.119,0,0
204722.95,764.065,-827.72,0,0
204983.275,753.307,-836.409,0,0
205243.6,741.576,-845.159,0,0
205503.925,728.533,-853.142,0,0
205764.25,714.728,-859.142,0,0
206024.575,701.266,-863.418,0,0
206284.9,688.734,-866.488,0,0
206545.225,676.951,-868.988,0,0
206805.55,665.782,-870.951,0,0
207065.875,654.924,-872.491,0,0
207326.2,644.45,-873.392,0,0
207586.525,634.76,-873.733,0,0
207846.85,625.899,-873.827,0,0
208107.175,617.991,-873.927,0,0
208367.5,610.625,-874.323,0,0
208627.825,603.586,-874.868,0,0
208888.15,597.013,-875.729,0,0
209148.475,590.96,-877.066,0,0
209408.8,584.842,-879.415,0,0
209669.125,577.977,-882.271,0,0
209929.45,570.264,-885.168,0,0
210189.775,561.73,-887.562,0,0
210450.1,553.154,-889.191,0,0
210710.425,544.51,-890.658,0,0
210970.75,535.609,-891.737,0,0
211231.075,526.405,-892.245,0,0
211491.4,517.102,-892.092,0,0
211751.725,507.877,-891.161,0,0
212012.05,499.066,-889.207,0,0
212272.375,491.099,-886.83,0,0
212532.7,483.756,-884.417,0,0
212793.025,476.804,-882.132,0,0
213053.35,470.049,-879.717,0,0
213313.675,463.539,-877.127,0,0
213574.0,457.336,-874.436,0,0
213834.325,451.416,-871.579,0,0
214094.65,445.813,-868.675,0,0
214354.975,440.553,-865.774,0,0
214615.3,435.379,-862.872,0,0
214875.625,430.57,-860.026,0,0
215135.95,425.899,-857.228,0,0
215396.275,421.348,-854.507,0,0
215656.6,416.835,-851.488,0,0
215916.925,412.572,-848.381,0,0
216177.25,408.634,-845.147,0,0
216437.575,404.946,-842.054,0,0
216697.9,401.422,-838.976,0,0
216958.225,398.181,-835.827,0,0
217218.55,395.066,-832.677,0,0
217478.875,392.303,-829.583,0,0
217739.2,389.732,-826.656,0,0
217999.525,387.282,-823.915,0,0
218259.85,384.839,-821.235,0,0
218520,382.449,-818.423,0,0
218780,380.291,-815.545,0,0
219041,378.535,-812.782,0,0
219301,376.876,-810.157,0,0
219561,375.364,-807.52,0,0
219822,374.127,-805.103,0,0
220082,372.909,-802.873,0,0
220342,371.767,-800.75,0,0
220603,370.613,-798.754,0,0
220863,369.479,-796.747,0,0
221123,368.615,-794.636,0,0
221384,367.967,-792.671,0,0
221644,367.521,-790.949,0,0
221904,367.093,-789.336,0,0
222165,366.911,-787.864,0,0
222425,366.921,-786.662,0,0
222685,366.897,-785.75,0,0
222946,366.957,-785.206,0,0
223206,366.852,-785.061,0,0
223466,366.5,-785.103,0,0
223727,365.81,-785.227,0,0
223987,365.001,-785.038,0,0
224247,364.278,-784.89,0,0
224508,363.581,-784.951,0,0
224768,362.861,-785.129,0,0
225028,361.811,-785.297,0,0
225289,360.718,-785.38,0,0
225549,359.551,-785.267,0,0
225809,358.531,-785.112,0,0
226070,357.746,-784.959,0,0
226330,356.959,-784.851,0,0
226590,356.338,-784.817,0,0
226851,355.909,-784.85,0,0
227111,355.635,-785.15,0,0
227371,355.393,-785.833,0,0
227632,355.043,-786.619,0,0
227892,354.644,-787.728,0,0
228152,354.145,-788.984,0,0
228413,353.603,-790.618,0,0
228673,352.832,-792.478,0,0
228933,351.695,-794.503,0,0
229193,350.245,-796.678,0,0
229454,348.462,-798.97,0,0
229714,346.345,-801.114,0,0
229974,343.964,-803.223,0,0
230235,341.252,-805.26,0,0
230495,338.3,-807.015,0,0
230755,335.117,-808.586,0,0
231016,331.897,-810.131,0,0
231276,328.542,-811.368,0,0
231536,325.143,-812.401,0,0
231797,321.635,-813.348,0,0
232057,318.238,-814.178,0,0
232317,314.734,-814.929,0,0
232578,311.078,-815.588,0,0
232838,307.364,-816.064,0,0
233098,303.632,-816.367,0,0
233359,299.84,-816.515,0,0
233619,296.151,-816.566,0,0
233879,292.397,-816.427,0,0
234140,288.671,-816.22,0,0
234400,284.918,-815.875,0,0
234660.3,281.214,-815.372,0,0
234920.625,277.522,-814.6,0,0
235180.95,274.073,-813.962,0,0
235441.275,270.565,-813.237,0,0
235701.6,267.086,-812.468,0,0
235961.925,263.701,-811.604,0,0
236222.25,260.254,-810.703,0,0
236482.575,256.855,-809.778,0,0
236742.9,253.401,-808.75,0,0
237003.225,249.929,-807.626,0,0
237263.55,246.492,-806.388,0,0
237523.875,243.096,-805.053,0,0
237784.2,239.735,-803.593,0,0
238044.525,236.435,-802.012,0,0
238304.85,233.244,-800.318,0,0
238565.175,230.156,-798.605,0,0
238825.5,227.111,-796.836,0,0
239085.825,224.134,-795.051,0,0
239346.15,221.288,-793.222,0,0
239606.475,218.378,-791.244,0,0
239866.8,215.681,-789.273,0,0
240127.125,213.004,-787.173,0,0
240387.45,210.441,-785.123,0,0
240647.775,207.988,-783.029,0,0
240908.1,205.687,-780.963,0,0
241168.425,203.418,-778.902,0,0
241428.75,201.162,-776.928,0,0
241689.075,198.961,-774.989,0,0
241949.4,196.689,-772.963,0,0
242209.725,194.529,-770.753,0,0
242470.05,192.553,-768.549,0,0
242730.375,190.715,-766.453,0,0
242990.7,188.976,-764.411,0,0
243251.025,187.291,-762.522,0,0
243511.35,185.595,-760.612,0,0
243771.675,183.896,-758.88,0,0
244032.0,182.161,-757.19,0,0
244292.325,180.393,-755.488,0,0
244552.65,178.63,-753.759,0,0
244812.975,176.935,-752.09,0,0
245073.3,175.215,-750.517,0,0
245333.625,173.387,-748.931,0,0
245593.95,171.544,-747.431,0,0
245854.275,169.652,-745.94,0,0
246114.6,167.624,-744.603,0,0
246374.925,165.439,-743.158,0,0
246635.25,163.018,-741.63,0,0
246895.575,160.555,-739.923,0,0
247155.9,157.952,-738.008,0,0
247416.225,155.457,-735.826,0,0
247676.55,152.929,-733.55,0,0
247936.875,150.465,-731.084,0,0
248197.2,148.196,-728.516,0,0
248457.525,146.017,-725.828,0,0
248717.85,143.885,-723.098,0,0
248978.175,141.839,-720.321,0,0
249238.5,139.875,-717.445,0,0
249498.825,138.027,-714.531,0,0
249759.15,136.26,-711.503,0,0
250019.475,134.52,-708.502,0,0
250279.8,132.9,-705.43,0,0
250540,131.289,-702.19,0,0
250800,129.851,-698.937,0,0
251061,128.565,-695.572,0,0
251321,127.388,-692.157,0,0
251581,126.371,-688.726,0,0
251842,125.562,-685.296,0,0
252102,124.899,-681.876,0,0
252362,124.416,-678.555,0,0
252623,124.028,-675.324,0,0
252883,123.661,-672.15,0,0
253143,123.37,-669.057,0,0
253404,123.125,-665.981,0,0
253664,122.912,-662.936,0,0
253924,122.733,-659.896,0,0
254185,122.607,-656.86,0,0
254445,122.579,-653.853,0,0
254705,122.553,-650.77,0,0
254966,122.606,-647.691,0,0
255226,122.669,-644.601,0,0
255486,122.932,-641.467,0,0
255747,123.347,-638.298,0,0
256007,123.944,-635.135,0,0
256267,124.693,-632.066,0,0
256528,125.608,-629.099,0,0
256788,126.599,-626.256,0,0
257048,127.718,-623.562,0,0
257309,128.861,-620.948,0,0
257569,130.058,-618.473,0,0
257829,131.255,-616.112,0,0
258090,132.484,-613.773,0,0
258350,133.742,-611.501,0,0
258610,135.037,-609.318,0,0
258871,136.359,-607.212,0,0
259131,137.731,-605.103,0,0
259391,139.167,-603.043,0,0
259651,140.658,-601.021,0,0
259912,142.309,-599.1,0,0
260172,143.999,-597.267,0,0
260432,145.731,-595.56,0,0
260693,147.559,-594.041,0,0
260953,149.401,-592.602,0,0
261213,151.26,-591.338,0,0
261474,153.11,-590.176,0,0
261734,154.97,-589.148,0,0
261994,156.793,-588.215,0,0
262255,158.612,-587.397,0,0
262515,160.403,-586.679,0,0
262775,162.204,-586.059,0,0
263036,164.001,-585.579,0,0
263296,165.74,-585.248,0,0
263556,167.428,-585.054,0,0
263817,169.016,-584.969,0,0
264077,170.509,-584.981,0,0
264337,171.94,-585.074,0,0
264598,173.246,-585.217,0,0
264858,174.48,-585.475,0,0
265118,175.572,-585.788,0,0
265379,176.549,-586.101,0,0
265639,177.383,-586.488,0,0
265899,178.082,-586.805,0,0
266160,178.685,-587.098,0,0
266420,179.198,-587.299,0,0
266680.25,179.782,-587.493,0,0
266940.575,180.315,-587.689,0,0
267200.9,180.742,-587.931,0,0
267461.225,181.127,-588.109,0,0
267721.55,181.491,-588.338,0,0
267981.875,181.747,-588.546,0,0
268242.2,181.904,-588.742,0,0
268502.525,181.925,-588.87,0,0
268762.85,181.888,-588.883,0,0
269023.175,181.812,-588.78,0,0
269283.5,181.702,-588.529,0,0
269543.825,181.61,-588.15,0,0
269804.15,181.597,-587.684,0,0
270064.475,181.62,-587.034,0,0
270324.8,181.729,-586.297,0,0
270585.125,182.029,-585.446,0,0
270845.45,182.424,-584.521,0,0
271105.775,183.094,-583.574,0,0
271366.1,183.922,-582.691,0,0
271626.425,184.896,-581.891,0,0
271886.75,185.967,-581.18,0,0
272147.075,187.136,-580.503,0,0
272407.4,188.413,-579.859,0,0
272667.725,189.882,-579.259,0,0
272928.05,191.552,-578.793,0,0
273188.375,193.393,-578.483,0,0
273448.7,195.373,-578.381,0,0
273709.025,197.463,-578.481,0,0
273969.35,199.659,-578.821,0,0
274229.675,202,-579.392,0,0
274490.0,204.443,-580.301,0,0
274750.325,206.967,-581.588,0,0
275010.65,209.464,-583.316,0,0
275270.975,211.849,-585.56,0,0
275531.3,213.99,-588.281,0,0
275791.625,215.785,-591.439,0,0
276051.95,217.151,-594.956,0,0
276312.275,217.914,-598.756,0,0
276572.6,218.079,-602.703,0,0
276832.925,217.612,-606.578,0,0
277093.25,216.584,-610.254,0,0
277353.575,215.178,-613.617,0,0
277613.9,213.455,-616.7,0,0
277874.225,211.541,-619.474,0,0
278134.55,209.479,-621.974,0,0
278394.875,207.312,-624.243,0,0
278655.2,205.044,-626.307,0,0
278915.525,202.71,-628.202,0,0
279175.85,200.305,-629.938,0,0
279436.175,197.795,-631.475,0,0
279696.5,195.279,-632.893,0,0
279956.825,192.658,-634.165,0,0
280217.15,189.952,-635.237,0,0
280477.475,187.202,-636.122,0,0
280737.8,184.442,-636.764,0,0
280998.125,181.773,-637.22,0,0
281258.45,179.214,-637.614,0,0
281518.775,176.692,-637.989,0,0
281779.1,174.114,-638.363,0,0
282039.425,171.455,-638.694,0,0
282299.75,168.635,-638.942,0,0
282560,165.678,-639.016,0,0
282820,162.577,-638.814,0,0
283081,159.441,-638.273,0,0
283341,156.415,-637.365,0,0
283601,153.633,-636.163,0,0
283862,151.205,-634.78,0,0
284122,149.121,-633.426,0,0
284382,147.278,-632.3,0,0
284643,145.424,-631.398,0,0
284903,143.461,-630.731,0,0
285163,141.22,-630.023,0,0
285424,138.722,-629.218,0,0
285684,136.077,-628.212,0,0
285944,133.319,-626.942,0,0
286205,130.511,-625.334,0,0
286465,127.681,-623.377,0,0
286725,124.966,-621.077,0,0
286986,122.482,-618.419,0,0
287246,120.284,-615.483,0,0
287506,118.339,-612.396,0,0
287767,116.709,-609.149,0,0
288027,115.359,-605.829,0,0
288287,114.194,-602.367,0,0
288548,113.32,-598.737,0,0
288808,112.804,-594.919,0,0
289068,112.767,-590.993,0,0
289329,113.273,-587.073,0,0
289589,114.276,-583.321,0,0
289849,115.738,-579.795,0,0
290109,117.588,-576.594,0,0
290370,119.767,-573.751,0,0
290630,122.19,-571.236,0,0
290890,124.925,-569.094,0,0
291151,127.88,-567.411,0,0
291411,131,-566.249,0,0
291671,134.198,-565.655,0,0
291932,137.357,-565.658,0,0
292192,140.374,-566.219,0,0
292452,143.095,-567.396,0,0
292713,145.387,-569.117,0,0
292973,147.023,-571.177,0,0
293233,147.951,-573.397,0,0
293494,148.276,-575.499,0,0
293754,148.106,-577.369,0,0
294014,147.536,-578.919,0,0
294275,146.739,-580.073,0,0
294535,145.856,-580.797,0,0
294795,145.023,-581.182,0,0
295056,144.38,-581.231,0,0
295316,143.935,-581.14,0,0
295576,143.806,-580.918,0,0
295837,144.059,-580.701,0,0
296097,144.699,-580.68,0,0
296357,145.665,-581.126,0,0
296618,146.652,-582.218,0,0
296878,147.339,-583.953,0,0
297138,147.475,-586.035,0,0
297399,146.981,-588.236,0,0
297659,145.937,-590.312,0,0
297919,144.453,-592.125,0,0
298180,142.684,-593.636,0,0
298440,140.73,-594.796,0,0
298700.2,138.709,-595.635,0,0
298960.525,136.702,-596.224,0,0
299220.85,134.731,-596.601,0,0
299481.175,132.809,-596.828,0,0
299741.5,130.902,-596.95,0,0
300001.825,128.938,-596.947,0,0
300262.15,127.004,-596.745,0,0
300522.475,125.084,-596.365,0,0
300782.8,123.268,-595.824,0,0
301043.125,121.578,-595.083,0,0
301303.45,120.064,-594.214,0,0
301563.775,118.79,-593.294,0,0
301824.1,117.723,-592.398,0,0
302084.425,116.826,-591.57,0,0
302344.75,116.063,-590.843,0,0
302605.075,115.423,-590.266,0,0
302865.4,114.803,-589.879,0,0
303125.725,114.163,-589.64,0,0
303386.05,113.455,-589.542,0,0
303646.375,112.631,-589.551,0,0
303906.7,111.694,-589.612,0,0
304167.025,110.609,-589.704,0,0
304427.35,109.412,-589.797,0,0
304687.675,108.049,-589.852,0,0
304948.0,106.578,-589.861,0,0
305208.325,104.997,-589.781,0,0
305468.65,103.339,-589.552,0,0
305728.975,101.623,-589.212,0,0
305989.3,99.8778,-588.754,0,0
306249.625,98.1461,-588.145,0,0
306509.95,96.4261,-587.455,0,0
306770.275,94.7331,-586.662,0,0
307030.6,93.0807,-585.769,0,0
307290.925,91.4526,-584.79,0,0
307551.25,89.9039,-583.724,0,0
307811.575,88.4101,-582.602,0,0
308071.9,86.9862,-581.411,0,0
308332.225,85.617,-580.184,0,0
308592.55,84.3274,-578.936,0,0
308852.875,83.0868,-577.627,0,0
309113.2,81.9299,-576.298,0,0
309373.525,80.8627,-574.96,0,0
309633.85,79.8591,-573.64,0,0
309894.175,78.9124,-572.344,0,0
310154.5,77.9654,-571.075,0,0
310414.825,77.0686,-569.826,0,0
310675.15,76.1642,-568.561,0,0
310935.475,75.3084,-567.306,0,0
311195.8,74.449,-566.015,0,0
311456.125,73.6417,-564.744,0,0
311716.45,72.8412,-563.469,0,0
311976.775,72.065,-562.192,0,0
312237.1,71.3042,-560.898,0,0
312497.425,70.5649,-559.582,0,0
312757.75,69.8719,-558.245,0,0
313018.075,69.2137,-556.924,0,0
313278.4,68.6006,-555.591,0,0
313538.725,68.0331,-554.287,0,0
313799.05,67.4786,-552.991,0,0
314059.375,66.968,-551.713,0,0
314319.7,66.4569,-550.434,0,0
314580,65.9486,-549.189,0,0
314840,65.4346,-547.884,0,0
315101,65.0025,-546.686,0,0
315361,64.6007,-545.372,0,0
315621,64.1361,-544.083,0,0
315882,63.7452,-542.907,0,0
316142,63.3568,-541.655,0,0
316402,62.9563,-540.448,0,0
316663,62.6012,-539.171,0,0
316923,62.2514,-537.945,0,0
317183,61.9575,-536.69,0,0
317444,61.7183,-535.469,0,0
317704,61.4742,-534.186,0,0
317964,61.2231,-533.056,0,0
318225,61.1098,-531.886,0,0
318485,60.8214,-530.712,0,0
318745,60.7715,-529.619,0,0
319006,60.5622,-528.526,0,0
319266,60.383,-527.486,0,0
319526,60.1981,-526.387,0,0
319787,60.0545,-525.358,0,0
320047,59.7634,-524.342,0,0
320307,59.6369,-523.303,0,0
320567,59.4207,-522.27,0,0
320828,59.2713,-521.257,0,0
321088,59.0395,-520.272,0,0
321348,58.7932,-519.206,0,0
321609,58.5605,-518.128,0,0
321869,58.3631,-517.083,0,0
322129,58.2067,-515.985,0,0
322390,57.9715,-514.892,0,0
322650,57.7337,-513.875,0,0
322910,57.5336,-512.786,0,0
323171,57.3043,-511.651,0,0
323431,57.1986,-510.481,0,0
323691,56.9361,-509.262,0,0
323952,56.7896,-508.025,0,0
324212,56.6802,-506.714,0,0
324472,56.7142,-505.39,0,0
324733,56.7161,-504.094,0,0
324993,56.8253,-502.666,0,0
325253,57.0653,-501.325,0,0
325514,57.3719,-499.922,0,0
325774,57.8041,-498.619,0,0
326034,58.3698,-497.417,0,0
326295,58.9107,-496.287,0,0
326555,59.5566,-495.27,0,0
326815,60.2957,-494.361,0,0
327076,61.0353,-493.718,0,0
327336,61.6699,-493.004,0,0
327596,62.2927,-492.52,0,0
327857,62.808,-492.017,0,0
328117,63.2526,-491.616,0,0
328377,63.6255,-491.152,0,0
328638,63.9845,-490.8,0,0
328898,64.3533,-490.349,0,0
329158,64.6627,-490.013,0,0
329419,64.9182,-489.62,0,0
329679,65.1975,-489.268,0,0
329939,65.4647,-489.031,0,0
330200,65.6988,-488.745,0,0
330460,65.8931,-488.542,0,0
330720.15,66.0904,-488.307,0,0
330980.475,66.2384,-488.142,0,0
331240.8,66.2993,-488.007,0,0
331501.125,66.3287,-487.948,0,0
331761.45,66.3185,-487.822,0,0
332021.775,66.1972,-487.744,0,0
332282.1,66.0206,-487.725,0,0
332542.425,65.7884,-487.609,0,0
332802.75,65.5076,-487.465,0,0
333063.075,65.0764,-487.322,0,0
333323.4,64.5895,-487.163,0,0
333583.725,64.0871,-486.896,0,0
333844.05,63.5082,-486.541,0,0
334104.375,63.0405,-486.112,0,0
334364.7,62.5316,-485.628,0,0
334625.025,61.9654,-485.038,0,0
334885.35,61.516,-484.533,0,0
335145.675,61.0876,-483.84,0,0
335406.0,60.606,-483.207,0,0
335666.325,60.1747,-482.479,0,0
335926.65,59.7771,-481.86,0,0
336186.975,59.3568,-481.185,0,0
336447.3,59.0344,-480.459,0,0
336707.625,58.6984,-479.727,0,0
336967.95,58.2851,-479.003,0,0
337228.275,57.9736,-478.163,0,0
337488.6,57.6029,-477.402,0,0
337748.925,57.2899,-476.642,0,0
338009.25,57.0238,-475.753,0,0
338269.575,56.7589,-475.001,0,0
338529.9,56.5537,-474.206,0,0
338790.225,56.2719,-473.364,0,0
339050.55,56.023,-472.504,0,0
339310.875,55.7859,-471.7,0,0
339571.2,55.5951,-470.841,0,0
339831.525,55.4108,-469.922,0,0
340091.85,55.258,-469.069,0,0
340352.175,55.0917,-468.153,0,0
340612.5,55.0234,-467.315,0,0
340872.825,54.888,-466.433,0,0
341133.15,54.8435,-465.505,0,0
341393.475,54.7757,-464.607,0,0
341653.8,54.7349,-463.731,0,0
341914.125,54.7907,-462.9,0,0
342174.45,54.7363,-462.046,0,0
342434.775,54.6966,-461.204,0,0
342695.1,54.751,-460.311,0,0
342955.425,54.794,-459.475,0,0
343215.75,54.7821,-458.584,0,0
343476.075,54.8622,-457.747,0,0
343736.4,54.9513,-456.892,0,0
343996.725,55.0878,-456.011,0,0
344257.05,55.1689,-455.176,0,0
344517.375,55.2813,-454.338,0,0
344777.7,55.4831,-453.559,0,0
345038.025,55.6358,-452.698,0,0
345298.35,55.8124,-451.932,0,0
345558.675,55.9873,-451.134,0,0
345819.0,56.2585,-450.351,0,0
346079.325,56.4494,-449.615,0,0
346339.65,56.6691,-448.908,0,0
346599.975,56.9432,-448.176,0,0
346860,57.2014,-447.46,0,0
347121,57.4248,-446.752,0,0
347381,57.7764,-446.064,0,0
347641,57.9902,-445.39,0,0
347902,58.2651,-444.806,0,0
348162,58.5816,-444.155,0,0
348422,58.876,-443.529,0,0
348683,59.1458,-442.893,0,0
348943,59.4659,-442.265,0,0
349203,59.7719,-441.747,0,0
349464,60.1144,-441.161,0,0
349724,60.4367,-440.635,0,0
349984,60.7678,-440.138,0,0
350245,61.131,-439.604,0,0
350505,61.4565,-439.195,0,0
350765,61.8023,-438.723,0,0
351025,62.0923,-438.287,0,0
351286,62.3978,-437.866,0,0
351546,62.7136,-437.477,0,0
351806,62.9702,-437.13,0,0
352067,63.2664,-436.792,0,0
352327,63.514,-436.43,0,0
352587,63.7068,-436.094,0,0
352848,63.8967,-435.725,0,0
353108,64.0797,-435.409,0,0
353368,64.2549,-435.041,0,0
353629,64.4261,-434.606,0,0
353889,64.5939,-434.245,0,0
354149,64.7884,-433.848,0,0
354410,65.0352,-433.434,0,0
354670,65.261,-433.039,0,0
354930,65.4761,-432.674,0,0
355191,65.6932,-432.297,0,0
355451,65.9062,-431.9,0,0
355711,66.1606,-431.589,0,0
355972,66.3984,-431.268,0,0
356232,66.6745,-430.917,0,0
356492,66.8899,-430.569,0,0
356753,67.1685,-430.199,0,0
357013,67.4935,-429.936,0,0
357273,67.7285,-429.634,0,0
357534,68.0421,-429.281,0,0
357794,68.4065,-429.061,0,0
358054,68.747,-428.857,0,0
358315,69.0594,-428.685,0,0
358575,69.4056,-428.529,0,0
358835,69.7083,-428.378,0,0
359096,69.9977,-428.367,0,0
359356,70.2979,-428.306,0,0
359616,70.5636,-428.278,0,0
359877,70.7355,-428.315,0,0
360137,70.932,-428.372,0,0
360397,71.0561,-428.461,0,0
360658,71.1598,-428.556,0,0
360918,71.2377,-428.59,0,0
361178,71.2217,-428.669,0,0
361438,71.2315,-428.723,0,0
361699,71.2292,-428.807,0,0
361959,71.1519,-428.837,0,0
362219,71.0212,-428.871,0,0
362480,70.9435,-428.919,0,0
362740.1,70.7586,-428.893,0,0
363000.425,70.6033,-428.887,0,0
363260.75,70.4088,-428.923,0,0
363521.075,70.2353,-428.831,0,0
363781.4,70.0562,-428.776,0,0
364041.725,69.812,-428.719,0,0
364302.05,69.5541,-428.663,0,0
364562.375,69.3143,-428.586,0,0
364822.7,69.046,-428.461,0,0
365083.025,68.7979,-428.327,0,0
365343.35,68.4668,-428.182,0,0
365603.675,68.1723,-427.982,0,0
365864.0,67.8575,-427.768,0,0
366124.325,67.5487,-427.54,0,0
366384.65,67.2707,-427.24,0,0
366644.975,66.9413,-426.916,0,0
366905.3,66.7062,-426.567,0,0
367165.625,66.4544,-426.174,0,0
367425.95,66.2604,-425.805,0,0
367686.275,66.0933,-425.42,0,0
367946.6,65.9969,-425.038,0,0
368206.925,65.937,-424.647,0,0
368467.25,65.9072,-424.295,0,0
368727.575,65.9173,-424.056,0,0
368987.9,65.9536,-423.771,0,0
369248.225,65.913,-423.598,0,0
369508.55,65.8511,-423.482,0,0
369768.875,65.8388,-423.39,0,0
370029.2,65.6586,-423.278,0,0
370289.525,65.4791,-423.189,0,0
370549.85,65.2725,-423.102,0,0
370810.175,65.0496,-422.949,0,0
371070.5,64.7304,-422.791,0,0
371330.825,64.4587,-422.611,0,0
371591.15,64.185,-422.402,0,0
371851.475,63.8713,-422.146,0,0
372111.8,63.6401,-421.836,0,0
372372.125,63.3894,-421.619,0,0
372632.45,63.1574,-421.355,0,0
372892.775,62.8933,-421.076,0,0
373153.1,62.6672,-420.811,0,0
373413.425,62.4391,-420.582,0,0
373673.75,62.2023,-420.292,0,0
373934.075,62.0083,-420.086,0,0
374194.4,61.7418,-419.804,0,0
374454.725,61.4722,-419.557,0,0
374715.05,61.2598,-419.349,0,0
374975.375,60.9686,-419.12,0,0
375235.7,60.6755,-418.857,0,0
375496.025,60.3712,-418.636,0,0
375756.35,60.0038,-418.337,0,0
376016.675,59.7272,-418.064,0,0
376277.0,59.4036,-417.767,0,0
376537.325,59.0898,-417.454,0,0
376797.65,58.8091,-417.15,0,0
377057.975,58.4907,-416.816,0,0
377318.3,58.2194,-416.51,0,0
377578.625,58,-416.207,0,0
377838.95,57.6943,-415.965,0,0
378099.275,57.4245,-415.722,0,0
378359.6,57.1274,-415.519,0,0
378619.925,56.7209,-415.395,0,0
378880,56.1848,-415.175,0,0
379141,55.6731,-414.964,0,0
379401,55.0341,-414.633,0,0
379661,54.3514,-414.208,0,0
379922,53.7163,-413.598,0,0
380182,53.1044,-412.952,0,0
380442,52.5903,-412.144,0,0
380703,52.2103,-411.32,0,0
380963,51.9994,-410.47,0,0
381223,51.8805,-409.614,0,0
381483,51.902,-408.928,0,0
381744,51.9832,-408.355,0,0
382004,52.0634,-407.837,0,0
382264,52.0379,-407.544,0,0
382525,52.0263,-407.195,0,0
382785,51.8963,-406.939,0,0
383045,51.6938,-406.681,0,0
383306,51.4533,-406.411,0,0
383566,51.104,-406.141,0,0
383826,50.7937,-405.806,0,0
384087,50.4289,-405.471,0,0
384347,50.0724,-405.087,0,0
384607,49.6462,-404.659,0,0
384868,49.2209,-404.225,0,0
385128,48.7909,-403.731,0,0
385388,48.384,-403.202,0,0
385649,48.0037,-402.611,0,0
385909,47.624,-402.033,0,0
386169,47.2101,-401.427,0,0
386430,46.9134,-400.797,0,0
386690,46.5554,-400.12,0,0
386950,46.263,-399.424,0,0
387211,46.0394,-398.731,0,0
387471,45.7858,-398.019,0,0
387731,45.5706,-397.374,0,0
387992,45.3717,-396.68,0,0
388252,45.1811,-395.998,0,0
388512,44.9964,-395.285,0,0
388773,44.838,-394.59,0,0
389033,44.7049,-393.896,0,0
389293,44.6206,-393.147,0,0
389554,44.5485,-392.467,0,0
389814,44.5194,-391.748,0,0
390074,44.5463,-391.078,0,0
390335,44.5714,-390.427,0,0
390595,44.635,-389.838,0,0
390855,44.6714,-389.297,0,0
391116,44.7551,-388.792,0,0
391376,44.8232,-388.346,0,0
391636,44.8331,-387.943,0,0
391896,44.8032,-387.583,0,0
392157,44.7394,-387.246,0,0
392417,44.6162,-386.92,0,0
392677,44.3999,-386.586,0,0
392938,44.1521,-386.17,0,0
393198,43.8987,-385.762,0,0
393458,43.5267,-385.313,0,0
393719,43.262,-384.785,0,0
393979,42.9394,-384.233,0,0
394239,42.5849,-383.655,0,0
394500,42.2449,-383.064,0,0
394760.05,41.9511,-382.342,0,0
395020.375,41.6769,-381.637,0,0
395280.7,41.3971,-380.863,0,0
395541.025,41.1724,-380.113,0,0
395801.35,41.0278,-379.313,0,0
396061.675,40.8304,-378.532,0,0
396322.0,40.7438,-377.693,0,0
396582.325,40.6777,-376.904,0,0
396842.65,40.6101,-376.075,0,0
397102.975,40.5785,-375.28,0,0
397363.3,40.5658,-374.497,0,0
397623.625,40.585,-373.676,0,0
397883.95,40.634,-372.946,0,0
398144.275,40.6827,-372.149,0,0
398404.6,40.7801,-371.381,0,0
398664.925,40.876,-370.659,0,0
398925.25,40.9595,-369.93,0,0
399185.575,41.0933,-369.232,0,0
399445.9,41.243,-368.545,0,0
399706.225,41.3372,-367.88,0,0
399966.55,41.4918,-367.194,0,0
400006.6,41.5011,-367.107,0,0