File: Accelerated corrosion test data/2025-10-16_18-00-04/sample_1.csv
Frequency (Hz),Impedance (ohms),Phase (Radians),Temperature (C),Humidity (%)
10000.0,242.136,-12196.3,0,0
10260.325,242.329,-11881.7,0,0
10520.65,230.517,-11602.4,0,0
10780.975,226.804,-11317.8,0,0
11041.3,220.642,-11058.8,0,0
11301.625,215.867,-10801.9,0,0
11561.95,211.146,-10558.4,0,0
11822.275,208.144,-10319.4,0,0
12082.6,229.038,-10089.8,0,0
12342.925,211.653,-9916.16,0,0
12603.25,195.443,-9702.78,0,0
12863.575,192.193,-9500.67,0,0
13123.9,200.85,-9308.38,0,0
13384.225,186.614,-9138.74,0,0
13644.55,182.08,-8957.68,0,0
13904.875,183,-8779.51,0,0
14165.2,192.93,-8645.57,0,0
14425.525,211.549,-8474.95,0,0
14685.8,202.073,-8312.92,0,0
14946.175,177.28,-8212.52,0,0
15206.5,186.351,-8047,0,0
15466.825,174.02,-7934.03,0,0
15727.15,172.776,-7799.36,0,0
15987.5,160.324,-7672.46,0,0
16247.8,157.082,-7546.08,0,0
16508.125,155.04,-7423.34,0,0
16768.45,159.061,-7305.91,0,0
17028.775,162.943,-7198.11,0,0
17289.1,154.747,-7095.52,0,0
17549.425,152.495,-6992.79,0,0
17809.75,145.76,-6888.52,0,0
18070.075,148.894,-6786.63,0,0
18330.4,141.867,-6692.33,0,0
18590.725,138.41,-6598.88,0,0
18851.05,138.572,-6500.49,0,0
19111.375,136.311,-6419.91,0,0
19371.7,133.577,-6327.52,0,0
19632.025,132.821,-6239.08,0,0
19892.35,137.963,-6152.21,0,0
20152.675,136.379,-6066.14,0,0
20413.0,156.325,-5977.1,0,0
20673.3,167.455,-5936.16,0,0
20933.65,149.471,-5867,0,0
21193.975,162.414,-5805.06,0,0
21454.3,141.498,-5732.18,0,0
21714.625,137.23,-5659.95,0,0
21974.9,140.373,-5578.85,0,0
22235.275,173.247,-5535.12,0,0
22495.6,142.395,-5493.51,0,0
22755.925,127.327,-5424.95,0,0
23016.25,123.154,-5357.63,0,0
23276.6,119.344,-5296.89,0,0
23536.9,116.365,-5235.89,0,0
23797.225,112.981,-5174.95,0,0
24057.55,115.62,-5114.55,0,0
24317.875,113.135,-5066.3,0,0
24578.2,111.401,-5006.14,0,0
24838.525,111.222,-4955.7,0,0
25098.85,111.48,-4901.62,0,0
25359.175,106.234,-4852.45,0,0
25619.5,105.619,-4801.88,0,0
25879.8,103.684,-4750.22,0,0
26140.1,103.765,-4701.09,0,0
26400.5,103.174,-4651.45,0,0
26660.8,105.289,-4601.11,0,0
26921.1,115.151,-4553.1,0,0
27181.4,121.684,-4520.73,0,0
27441.8,110.956,-4486.69,0,0
27702.1,103.81,-4437.94,0,0
27962.4,111.075,-4387.75,0,0
28222.7,110.68,-4349.01,0,0
28483.1,120.524,-4306.49,0,0
28743.4,129.485,-4288.05,0,0
29003.7,117.594,-4250.55,0,0
29264,118.453,-4217.08,0,0
29524.4,106.894,-4183.38,0,0
29784.7,105.679,-4140.84,0,0
30045,101.565,-4109.34,0,0
30305.3,99.5151,-4070.94,0,0
30565.7,97.479,-4031.97,0,0
30826,101.092,-3996.6,0,0
31086.3,103.677,-3968.45,0,0
31346.6,99.7858,-3938.66,0,0
31607,93.9742,-3901.77,0,0
31867.3,97.6886,-3869.41,0,0
32127.6,98.1888,-3838.46,0,0
32387.9,97.9156,-3811.68,0,0
32648.3,94.1096,-3780.27,0,0
32908.6,95.7142,-3752.1,0,0
33168.9,90.9891,-3723.8,0,0
33429.2,89.1731,-3694.84,0,0
33689.6,86.0925,-3665.32,0,0
33949.9,85.1991,-3634.15,0,0
34210.2,87.1424,-3607.91,0,0
34470.5,83.5752,-3581.29,0,0
34730.9,82.0426,-3553.11,0,0
34991.2,81.2625,-3526.17,0,0
35251.5,80.5361,-3499.36,0,0
35511.8,79.3961,-3473.09,0,0
35772.2,79.3012,-3447.66,0,0
36032.5,78.1488,-3422.09,0,0
36292.8,77.485,-3396.77,0,0
36553.1,76.7003,-3372.07,0,0
36813.5,76.2357,-3347.48,0,0
37073.8,76.2247,-3323.59,0,0
37334.1,75.4918,-3300.11,0,0
37594.4,74.8294,-3276.45,0,0
37854.8,74.4405,-3254.03,0,0
38115.1,73.4599,-3231.02,0,0
38375.4,73.1715,-3208.29,0,0
38635.7,72.9359,-3186.41,0,0
38896.1,72.556,-3164.21,0,0
39156.4,72.5594,-3142.27,0,0
39416.7,72.227,-3122.2,0,0
39677,71.282,-3101.02,0,0
39937.4,71.4072,-3079.77,0,0
40197.7,71.1022,-3059.3,0,0
40458,71.0496,-3039.11,0,0
40718.3,70.9874,-3018.4,0,0
40978.7,72.2799,-2999.06,0,0
41239,72.0908,-2980.89,0,0
41499.3,71.6386,-2962.6,0,0
41759.6,70.8371,-2943.94,0,0
42020,70.2176,-2925.15,0,0
42280.275,70.1361,-2906.92,0,0
42540.6,70.7765,-2888.81,0,0
42800.925,70.0908,-2871.86,0,0
43061.25,69.1596,-2853.86,0,0
43321.575,68.9726,-2836.78,0,0
43581.9,68.6671,-2819.48,0,0
43842.225,67.7938,-2802.08,0,0
44102.55,68.2474,-2784.41,0,0
44362.875,68.7682,-2767.47,0,0
44623.2,68.8402,-2752.14,0,0
44883.525,68.3554,-2736.39,0,0
45143.85,68.3429,-2720.7,0,0
45404.175,68.4799,-2704.78,0,0
45664.5,67.508,-2690.14,0,0
45924.825,66.4944,-2674.7,0,0
46185.15,66.3647,-2659.11,0,0
46445.475,65.2562,-2644.17,0,0
46705.8,65.0951,-2628.68,0,0
46966.125,64.8851,-2614.36,0,0
47226.45,64.2608,-2599.07,0,0
47486.775,64.4034,-2584.53,0,0
47747.1,63.7421,-2570.53,0,0
48007.425,63.629,-2556.07,0,0
48267.75,63.3923,-2542.12,0,0
48528.075,62.4487,-2528.85,0,0
48788.4,61.7066,-2514.66,0,0
49048.725,61.3811,-2500.34,0,0
49309.05,61.3301,-2486.5,0,0
49569.375,61.1475,-2473.54,0,0
49829.7,60.8931,-2460.61,0,0
50090.025,60.0185,-2447.3,0,0
50350.35,59.3635,-2433.97,0,0
50610.675,59.4453,-2420.71,0,0
50871.0,59.2498,-2407.79,0,0
51131.325,59.1888,-2395.09,0,0
51391.65,59.0892,-2382.68,0,0
51651.975,58.5642,-2370.36,0,0
51912.3,58.2207,-2357.87,0,0
52172.625,58.0861,-2345.63,0,0
52432.95,57.9008,-2333.51,0,0
52693.275,57.6568,-2321.5,0,0
52953.6,57.6392,-2309.52,0,0
53213.925,57.6694,-2297.79,0,0
53474.25,57.2837,-2286.24,0,0
53734.575,57.1739,-2274.77,0,0
53994.9,57.1234,-2263.63,0,0
54255.225,56.6667,-2252.52,0,0
54515.55,56.2294,-2241.08,0,0
54775.875,55.8648,-2229.93,0,0
55036.2,55.8743,-2218.62,0,0
55296.525,55.8459,-2207.76,0,0
55556.85,55.7809,-2197.24,0,0
55817.175,55.4347,-2186.74,0,0
56077.5,54.8796,-2175.92,0,0
56337.825,54.9084,-2165.11,0,0
56598.15,54.8349,-2154.4,0,0
56858.475,54.816,-2144.18,0,0
57118.8,54.5854,-2134.03,0,0
57379.125,54.44,-2123.64,0,0
57639.45,54.5985,-2113.32,0,0
57899.775,54.4581,-2103.5,0,0
58160.1,54.492,-2093.56,0,0
58420.4,54.4612,-2083.9,0,0
58680.7,54.1768,-2074.28,0,0
58941.1,54.2122,-2064.31,0,0
59201.4,54.4291,-2054.77,0,0
59461.7,54.2618,-2045.63,0,0
59722,54.0986,-2036.16,0,0
59982.4,54.0995,-2026.8,0,0
60242.7,54.1226,-2017.62,0,0
60503,54.2096,-2008.45,0,0
60763.3,54.4523,-1999.83,0,0
61023.7,53.9639,-1991.2,0,0
61284,53.4466,-1982.31,0,0
61544.3,53.2428,-1973.07,0,0
61804.6,53.4406,-1964.39,0,0
62065,53.0184,-1955.9,0,0
62325.3,52.6792,-1946.99,0,0
62585.6,52.4834,-1938.12,0,0
62845.9,52.4049,-1929.36,0,0
63106.3,52.5388,-1920.8,0,0
63366.6,52.3941,-1912.36,0,0
63626.9,52.4154,-1903.84,0,0
63887.2,52.4773,-1895.35,0,0
64147.6,52.5215,-1886.93,0,0
64407.9,52.6998,-1878.55,0,0
64668.2,52.9202,-1870.26,0,0
64928.5,53.3804,-1862.12,0,0
65188.9,54.0169,-1854.31,0,0
65449.2,54.686,-1846.58,0,0
65709.5,55.1943,-1839.47,0,0
65969.8,55.0218,-1832.5,0,0
66230.2,54.8783,-1825.05,0,0
66490.5,54.9972,-1817.86,0,0
66750.8,54.6173,-1810.91,0,0
67011.1,54.2669,-1803.67,0,0
67271.5,53.6872,-1796.06,0,0
67531.8,53.9061,-1788.35,0,0
67792.1,54.3252,-1781.26,0,0
68052.4,54.1807,-1775,0,0
68312.8,53.4563,-1767.86,0,0
68573.1,53.3815,-1760.41,0,0
68833.4,53.4802,-1753.34,0,0
69093.7,53.3589,-1746.8,0,0
69354.1,52.8865,-1739.91,0,0
69614.4,52.7776,-1733.23,0,0
69874.7,51.9947,-1726.54,0,0
70135,51.6931,-1719.67,0,0
70395.4,50.9883,-1712.81,0,0
70655.7,50.5562,-1705.67,0,0
70916,50.4198,-1698.71,0,0
71176.3,50.2972,-1691.97,0,0
71436.7,50.1227,-1685.35,0,0
71697,49.8482,-1678.67,0,0
71957.3,49.2205,-1672.01,0,0
72217.6,48.6099,-1665.29,0,0
72478,48.3588,-1658.24,0,0
72738.3,48.2151,-1651.31,0,0
72998.6,48.2762,-1644.58,0,0
73258.9,48.3147,-1637.95,0,0
73519.3,48.2112,-1631.44,0,0
73779.6,48.0564,-1624.87,0,0
74039.9,48.0435,-1618.24,0,0
74300.225,48.0898,-1611.75,0,0
74560.55,48.1408,-1605.3,0,0
74820.875,48.3077,-1598.78,0,0
75081.2,48.4939,-1592.61,0,0
75341.525,48.5369,-1586.45,0,0
75601.85,48.5183,-1580.12,0,0
75862.175,48.669,-1573.85,0,0
76122.5,48.9103,-1567.72,0,0
76382.825,49.1107,-1561.62,0,0
76643.15,49.4607,-1555.63,0,0
76903.475,49.5868,-1549.71,0,0
77163.8,49.9595,-1543.82,0,0
77424.125,50.0502,-1538.03,0,0
77684.45,50.3197,-1532.19,0,0
77944.775,50.4259,-1526.44,0,0
78205.1,50.8611,-1520.6,0,0
78465.425,51.4396,-1514.98,0,0
78725.75,51.8679,-1509.89,0,0
78986.075,51.8341,-1504.77,0,0
79246.4,51.9243,-1499.58,0,0
79506.725,51.7025,-1494.41,0,0
79767.05,51.2269,-1488.95,0,0
80027.375,51.3048,-1483.5,0,0
80287.7,51.1968,-1478.28,0,0
80548.025,50.759,-1472.82,0,0
80808.35,50.5916,-1467.23,0,0
81068.675,50.4456,-1461.69,0,0
81329.0,50.4768,-1455.97,0,0
81589.325,50.5302,-1450.44,0,0
81849.65,50.7237,-1444.93,0,0
82109.975,50.9302,-1439.58,0,0
82370.3,51.105,-1434.29,0,0
82630.625,51.1881,-1429.02,0,0
82890.95,51.2505,-1423.57,0,0
83151.275,51.57,-1418.18,0,0
83411.6,51.9911,-1412.95,0,0
83671.925,52.2216,-1407.88,0,0
83932.25,52.4613,-1402.7,0,0
84192.575,52.8031,-1397.58,0,0
84452.9,53.0852,-1392.55,0,0
84713.225,53.4322,-1387.47,0,0
84973.55,53.8617,-1382.43,0,0
85233.875,54.3782,-1377.35,0,0
85494.2,54.9174,-1372.81,0,0
85754.525,55.3098,-1368.25,0,0
86014.85,55.5292,-1363.63,0,0
86275.175,55.7269,-1359.07,0,0
86535.5,55.871,-1354.4,0,0
86795.825,55.9884,-1349.78,0,0
87056.15,56.0745,-1345.05,0,0
87316.475,56.3877,-1340.33,0,0
87576.8,56.5433,-1335.98,0,0
87837.125,56.3844,-1331.35,0,0
88097.45,56.3094,-1326.56,0,0
88357.775,56.2382,-1321.5,0,0
88618.1,56.6166,-1316.28,0,0
88878.425,57.3648,-1311.47,0,0
89138.75,57.4693,-1306.68,0,0
89399.075,58.1224,-1301.71,0,0
89659.4,58.8126,-1297.01,0,0
89919.725,59.5736,-1292.4,0,0
90180,60.3702,-1287.87,0,0
90440.4,60.8873,-1283.5,0,0
90700.7,61.4169,-1278.65,0,0
90961,62.5343,-1273.86,0,0
91221.3,63.876,-1269.17,0,0
91481.7,65.5367,-1265.11,0,0
91742,66.742,-1261.37,0,0
92002.3,67.8774,-1257.66,0,0
92262.6,68.9828,-1253.76,0,0
92523,70.4361,-1249.88,0,0
92783.3,72.105,-1246.32,0,0
93043.6,73.7679,-1243.5,0,0
93303.9,75.2291,-1240.86,0,0
93564.3,76.8027,-1238.13,0,0
93824.6,79.0459,-1236.85,0,0
94084.9,79.2363,-1237.66,0,0
94345.2,76.4135,-1237.19,0,0
94605.6,73.7084,-1233.84,0,0
94865.9,72.5523,-1230.53,0,0
95126.2,70.721,-1227.17,0,0
95386.5,69.3864,-1223.31,0,0
95646.9,67.9678,-1219.26,0,0
95907.2,66.8032,-1214.98,0,0
96167.5,66.1971,-1210.21,0,0
96427.8,66.179,-1205.98,0,0
96688.2,66.0209,-1202.31,0,0
96948.5,65.4073,-1198.48,0,0
97208.8,64.7893,-1194.43,0,0
97469.1,64.4252,-1190.15,0,0
97729.5,64.0792,-1185.9,0,0
97989.8,64.0069,-1181.68,0,0
98250.1,63.9951,-1177.54,0,0
98510.4,64.2038,-1173.64,0,0
98770.8,64.0949,-1169.94,0,0
99031.1,63.8746,-1166.09,0,0
99291.4,63.7206,-1162.19,0,0
99551.7,63.5301,-1158.22,0,0
99812.1,63.3565,-1154.16,0,0
100072,63.3875,-1150.09,0,0
100333,63.3403,-1146.16,0,0
100593,63.1969,-1142.05,0,0
100853,63.2889,-1138.05,0,0
101114,63.311,-1134.05,0,0
101374,63.2661,-1130.04,0,0
101634,63.1754,-1125.85,0,0
101895,63.1422,-1121.6,0,0
102155,63.1849,-1117.01,0,0
102415,63.5738,-1112.4,0,0
102676,64.2523,-1107.7,0,0
102936,65.3301,-1103.36,0,0
103196,66.3548,-1099.17,0,0
103457,67.4166,-1095.08,0,0
103717,68.4923,-1091.12,0,0
103977,69.5944,-1087.03,0,0
104238,71.2396,-1082.95,0,0
104498,73.1445,-1079.67,0,0
104758,74.5609,-1076.74,0,0
105019,75.5354,-1073.86,0,0
105279,76.2347,-1070.58,0,0
105539,77.4159,-1067.04,0,0
105800,78.8303,-1063.72,0,0
106060,80.2827,-1060.62,0,0
106320.175,81.8071,-1057.73,0,0
106580.5,83.2869,-1055.09,0,0
106840.825,84.685,-1052.63,0,0
107101.15,85.826,-1050.17,0,0
107361.475,87.1254,-1047.77,0,0
107621.8,88.3329,-1045.64,0,0
107882.125,89.1971,-1043.6,0,0
108142.45,90.0799,-1041.47,0,0
108402.775,90.8871,-1039.29,0,0
108663.1,91.7865,-1037.17,0,0
108923.425,92.557,-1035.26,0,0
109183.75,93.317,-1033.32,0,0
109444.075,94.0489,-1031.71,0,0
109704.4,94.4437,-1030.23,0,0
109964.725,94.4404,-1028.83,0,0
110225.05,94.2393,-1027.04,0,0
110485.375,93.5813,-1025.06,0,0
110745.7,93.2464,-1022.42,0,0
111006.025,93.1804,-1019.57,0,0
111266.35,93.6358,-1017.15,0,0
111526.675,93.9815,-1014.46,0,0
111787.0,94.4883,-1012.41,0,0
112047.325,94.9636,-1010.36,0,0
112307.65,95.3757,-1008.54,0,0
112567.975,95.7224,-1006.72,0,0
112828.3,95.842,-1005.05,0,0
113088.625,95.8806,-1003.45,0,0
113348.95,95.818,-1001.82,0,0
113609.275,95.5603,-1000.27,0,0
113869.6,94.9708,-998.67,0,0
114129.925,94.3292,-996.869,0,0
114390.25,93.6242,-994.889,0,0
114650.575,92.9719,-992.815,0,0
114910.9,92.4482,-990.828,0,0
115171.225,91.6794,-988.858,0,0
115431.55,90.7958,-986.787,0,0
115691.875,89.8552,-984.633,0,0
115952.2,88.7177,-982.193,0,0
116212.525,87.8189,-979.579,0,0
116472.85,87.0174,-976.887,0,0
116733.175,86.3107,-974.329,0,0
116993.5,85.4184,-971.734,0,0
117253.825,84.4724,-968.95,0,0
117514.15,83.6616,-965.993,0,0
117774.475,82.9269,-962.953,0,0
118034.8,82.3019,-959.841,0,0
118295.125,81.887,-956.647,0,0
118555.45,81.4864,-953.621,0,0
118815.775,81.1285,-950.497,0,0
119076.1,80.8406,-947.28,0,0
119336.425,80.7958,-944.137,0,0
119596.75,80.7681,-941.138,0,0
119857.075,80.8192,-938.061,0,0
120117.4,81.0714,-935.228,0,0
120377.725,81.1756,-932.47,0,0
120638.05,81.3357,-929.771,0,0
120898.375,81.518,-927.276,0,0
121158.7,81.4025,-924.993,0,0
121419.025,81.0806,-922.447,0,0
121679.35,80.7669,-919.897,0,0
121939.675,80.3924,-917.226,0,0
122200.0,80.0322,-914.425,0,0
122460,79.732,-911.537,0,0
122721,79.5009,-908.635,0,0
122981,79.3635,-905.744,0,0
123241,79.1302,-902.874,0,0
123502,78.9673,-899.881,0,0
123762,78.8974,-896.879,0,0
124022,78.8911,-893.898,0,0
124283,78.9041,-890.861,0,0
124543,79.0216,-887.886,0,0
124803,79.1113,-884.97,0,0
125064,79.2424,-882.056,0,0
125324,79.3566,-879.057,0,0
125584,79.5992,-876.087,0,0
125845,79.8762,-873.213,0,0
126105,80.1293,-870.395,0,0
126365,80.4007,-867.482,0,0
126626,80.6859,-864.636,0,0
126886,80.8956,-861.804,0,0
127146,81.1315,-858.911,0,0
127406,81.6138,-856.081,0,0
127667,81.9265,-853.253,0,0
127927,82.2622,-850.381,0,0
128187,82.6876,-847.447,0,0
128448,83.2567,-844.559,0,0
128708,83.9156,-841.847,0,0
128968,84.4701,-839.175,0,0
129229,84.8538,-836.507,0,0
129489,85.2902,-833.616,0,0
129749,85.8796,-830.734,0,0
130010,86.6699,-827.708,0,0
130270,87.7153,-824.946,0,0
130530,88.753,-822.367,0,0
130791,89.7392,-819.9,0,0
131051,90.724,-817.563,0,0
131311,91.7542,-815.302,0,0
131572,92.7706,-813.187,0,0
131832,93.5789,-811.209,0,0
132092,94.3431,-809.252,0,0
132353,94.9544,-807.379,0,0
132613,95.3841,-805.373,0,0
132873,95.8891,-803.168,0,0
133134,96.506,-801.061,0,0
133394,97.0146,-799.033,0,0
133654,97.5345,-797.006,0,0
133915,97.9188,-794.856,0,0
134175,98.4553,-792.644,0,0
134435,99.0662,-790.536,0,0
134696,99.6343,-788.48,0,0
134956,100.11,-786.357,0,0
135216,100.636,-784.277,0,0
135477,101.101,-782.169,0,0
135737,101.704,-779.996,0,0
135997,102.237,-777.78,0,0
136258,102.8,-775.619,0,0
136518,103.487,-773.345,0,0
136778,104.459,-771.132,0,0
137039,105.497,-769.186,0,0
137299,106.537,-767.421,0,0
137559,107.575,-765.844,0,0
137819,108.453,-764.537,0,0
138080,109.063,-763.427,0,0
138340.125,109.271,-762.217,0,0
138600.45,109.465,-760.815,0,0
138860.775,109.538,-759.461,0,0
139121.1,109.407,-757.963,0,0
139381.425,109.274,-756.177,0,0
139641.75,109.265,-754.356,0,0
139902.075,109.264,-752.544,0,0
140162.4,109.251,-750.66,0,0
140422.725,109.258,-748.793,0,0
140683.05,109.162,-746.875,0,0
140943.375,109.073,-744.841,0,0
141203.7,109.061,-742.682,0,0
141464.025,109.209,-740.513,0,0
141724.35,109.318,-738.518,0,0
141984.675,109.27,-736.442,0,0
142245.0,109.282,-734.083,0,0
142505.325,109.558,-731.752,0,0
142765.65,109.852,-729.648,0,0
143025.975,110,-727.486,0,0
143286.3,110.186,-725.221,0,0
143546.625,110.352,-722.799,0,0
143806.95,110.823,-720.467,0,0
144067.275,111.29,-718.185,0,0
144327.6,111.737,-716.078,0,0
144587.925,112.013,-713.876,0,0
144848.25,112.428,-711.398,0,0
145108.575,113.146,-709.122,0,0
145368.9,113.86,-707.019,0,0
145629.225,114.453,-705.054,0,0
145889.55,115.017,-702.982,0,0
146149.875,115.652,-700.949,0,0
146410.2,116.241,-699.085,0,0
146670.525,116.673,-697.117,0,0
146930.85,117.31,-695.11,0,0
147191.175,117.94,-693.364,0,0
147451.5,118.322,-691.664,0,0
147711.825,118.637,-689.875,0,0
147972.15,118.909,-688.113,0,0
148232.475,118.883,-686.205,0,0
148492.8,118.993,-684.003,0,0
148753.125,119.248,-681.733,0,0
149013.45,119.638,-679.392,0,0
149273.775,120.261,-677.077,0,0
149534.1,121.14,-674.969,0,0
149794.425,121.917,-673.337,0,0
150054.75,122.294,-671.796,0,0
150315.075,122.491,-670.179,0,0
150575.4,122.502,-668.537,0,0
150835.725,122.329,-666.837,0,0
151096.05,121.858,-664.817,0,0
151356.375,121.451,-662.377,0,0
151616.7,121.236,-659.747,0,0
151877.025,121.188,-657.105,0,0
152137.35,121.168,-654.509,0,0
152397.675,121.014,-651.718,0,0
152658.0,120.88,-648.662,0,0
152918.325,120.985,-645.306,0,0
153178.65,121.486,-641.894,0,0
153438.975,122.126,-638.546,0,0
153699.3,122.913,-635.24,0,0
153959.625,123.799,-632.001,0,0
154219.95,124.716,-628.622,0,0
154480,125.861,-625.143,0,0
154741,127.326,-621.761,0,0
155001,128.877,-618.627,0,0
155261,130.336,-615.546,0,0
155522,131.766,-612.25,0,0
155782,133.54,-608.789,0,0
156042,135.691,-605.391,0,0
156303,138.131,-602.202,0,0
156563,140.74,-599.369,0,0
156823,143.358,-596.689,0,0
157084,146.039,-594.138,0,0
157344,149.02,-591.881,0,0
157604,151.903,-590.187,0,0
157864,154.351,-588.752,0,0
158125,156.399,-587.14,0,0
158385,158.538,-585.348,0,0
158645,160.643,-583.75,0,0
158906,162.297,-582.053,0,0
159166,163.909,-579.756,0,0
159426,165.917,-577.091,0,0
159687,168.29,-574.218,0,0
159947,171.312,-571.361,0,0
160207,174.924,-568.833,0,0
160468,178.638,-566.814,0,0
160728,182.526,-564.992,0,0
160988,186.68,-563.617,0,0
161249,190.967,-562.767,0,0
161509,195.102,-562.375,0,0
161769,199.084,-562.327,0,0
162030,203.034,-562.778,0,0
162290,206.498,-563.741,0,0
162550,209.383,-564.787,0,0
162811,211.927,-565.783,0,0
163071,214.086,-566.725,0,0
163331,215.941,-567.411,0,0
163592,217.784,-567.628,0,0
163852,219.991,-567.776,0,0
164112,222.35,-568.057,0,0
164373,224.851,-568.576,0,0
164633,227.173,-569.351,0,0
164893,229.336,-570.055,0,0
165154,231.832,-570.802,0,0
165414,234.195,-571.904,0,0
165674,236.52,-573.15,0,0
165935,238.95,-574.7,0,0
166195,241.153,-576.821,0,0
166455,242.797,-579.257,0,0
166716,243.895,-581.661,0,0
166976,244.667,-583.858,0,0
167236,245.412,-585.907,0,0
167497,246.084,-588.22,0,0
167757,246.305,-590.61,0,0
168017,246.234,-592.963,0,0
168277,245.818,-595.247,0,0
168538,245.08,-597.466,0,0
168798,244.025,-599.476,0,0
169058,242.738,-601.351,0,0
169319,241.041,-603.07,0,0
169579,238.958,-604.463,0,0
169839,236.578,-605.224,0,0
170100,234.293,-605.437,0,0
170360.075,232.058,-605.172,0,0
170620.4,230.276,-604.432,0,0
170880.725,228.844,-603.912,0,0
171141.05,227.199,-603.358,0,0
171401.375,225.548,-602.285,0,0
171661.7,224.393,-600.966,0,0
171922.025,223.578,-599.738,0,0
172182.35,222.855,-598.514,0,0
172442.675,222.437,-597.34,0,0
172703.0,222.13,-596.46,0,0
172963.325,221.733,-595.805,0,0
173223.65,221.103,-595.173,0,0
173483.975,220.294,-594.395,0,0
173744.3,219.498,-593.421,0,0
174004.625,218.735,-592.247,0,0
174264.95,218.202,-590.872,0,0
174525.275,217.912,-589.52,0,0
174785.6,217.788,-588.352,0,0
175045.925,217.595,-587.268,0,0
175306.25,217.424,-586.046,0,0
175566.575,217.614,-584.9,0,0
175826.9,217.966,-584.027,0,0
176087.225,218.119,-583.585,0,0
176347.55,217.937,-583.18,0,0
176607.875,217.523,-582.636,0,0
176868.2,217.094,-581.82,0,0
177128.525,216.875,-580.929,0,0
177388.85,216.813,-580.111,0,0
177649.175,216.897,-579.501,0,0
177909.5,216.941,-579.295,0,0
178169.825,216.535,-579.32,0,0
178430.15,215.754,-579.233,0,0
178690.475,214.788,-578.899,0,0
178950.8,213.775,-578.508,0,0
179211.125,212.581,-577.917,0,0
179471.45,211.441,-577.106,0,0
179731.775,210.46,-576.377,0,0
179992.1,209.154,-575.841,0,0
180252.425,207.469,-575.06,0,0
180512.75,205.719,-573.763,0,0
180773.075,204.178,-572.27,0,0
181033.4,202.694,-570.691,0,0
181293.725,201.209,-568.962,0,0
181554.05,199.875,-567.022,0,0
181814.375,198.692,-565.081,0,0
182074.7,197.473,-563.253,0,0
182335.025,196.092,-561.221,0,0
182595.35,194.819,-558.933,0,0
182855.675,193.698,-556.564,0,0
183116.0,192.662,-554.209,0,0
183376.325,191.539,-551.804,0,0
183636.65,190.448,-549.152,0,0
183896.975,189.483,-546.378,0,0
184157.3,188.63,-543.476,0,0
184417.625,187.88,-540.547,0,0
184677.95,187.164,-537.515,0,0
184938.275,186.511,-534.212,0,0
185198.6,186.153,-530.625,0,0
185458.925,186.361,-527.147,0,0
185719.25,186.739,-524.002,0,0
185979.575,187.02,-520.991,0,0
186239.9,187.367,-517.993,0,0
186500,187.802,-515.047,0,0
186761,188.004,-512.197,0,0
187021,188.161,-509.134,0,0
187281,188.527,-505.809,0,0
187542,189.295,-502.43,0,0
187802,190.361,-499.349,0,0
188062,191.271,-496.621,0,0
188322,192.081,-493.976,0,0
188583,192.775,-491.087,0,0
188843,193.526,-488.21,0,0
189103,194.392,-485.346,0,0
189364,195.284,-482.495,0,0
189624,196.137,-479.71,0,0
189884,196.932,-476.923,0,0
190145,197.663,-473.983,0,0
190405,198.505,-470.964,0,0
190665,199.447,-467.866,0,0
190926,200.472,-464.757,0,0
191186,201.458,-461.599,0,0
191446,202.544,-458.481,0,0
191707,203.579,-455.174,0,0
191967,204.801,-451.763,0,0
192227,206.223,-448.253,0,0
192488,207.729,-444.766,0,0
192748,209.337,-441.359,0,0
193008,210.996,-437.886,0,0
193269,212.928,-434.299,0,0
193529,214.903,-430.976,0,0
193789,216.884,-427.537,0,0
194050,218.933,-424.214,0,0
194310,221.09,-420.836,0,0
194570,223.292,-417.43,0,0
194831,225.445,-413.933,0,0
195091,227.805,-410.303,0,0
195351,230.322,-406.621,0,0
195612,233.117,-403.031,0,0
195872,236.034,-399.464,0,0
196132,238.943,-396.023,0,0
196393,241.944,-392.554,0,0
196653,245.097,-388.934,0,0
196913,248.465,-385.43,0,0
197174,251.817,-381.923,0,0
197434,255.434,-378.372,0,0
197694,259.235,-374.87,0,0
197955,263.245,-371.441,0,0
198215,267.502,-368.15,0,0
198475,271.803,-364.968,0,0
198735,276.253,-361.92,0,0
198996,280.698,-359.062,0,0
199256,285.077,-356.299,0,0
199516,289.364,-353.405,0,0
199777,293.692,-350.354,0,0
200037,298.347,-347.039,0,0
200297,303.388,-343.873,0,0
200558,308.551,-340.696,0,0
200818,314,-337.533,0,0
201078,319.75,-334.357,0,0
201339,325.619,-331.299,0,0
201599,331.953,-328.214,0,0
201859,338.556,-325.044,0,0
202120,345.837,-322.132,0,0
202380.025,353.561,-319.432,0,0
202640.35,361.762,-317.255,0,0
202900.675,370.296,-315.703,0,0
203161.0,378.762,-314.754,0,0
203421.325,387.28,-313.912,0,0
203681.65,396.017,-313.099,0,0
203941.975,405.366,-312.618,0,0
204202.3,415.316,-312.624,0,0
204462.625,425.628,-313.506,0,0
204722.95,436.185,-315.543,0,0
204983.275,446.764,-318.477,0,0
205243.6,456.955,-322.322,0,0
205503.925,466.709,-327.133,0,0
205764.25,475.972,-332.509,0,0
206024.575,484.768,-338.59,0,0
206284.9,492.902,-345.142,0,0
206545.225,500.527,-352.282,0,0
206805.55,507.567,-359.928,0,0
207065.875,513.69,-368.059,0,0
207326.2,518.652,-376.184,0,0
207586.525,523.048,-383.929,0,0
207846.85,527.203,-391.66,0,0
208107.175,530.958,-399.623,0,0
208367.5,533.911,-407.683,0,0
208627.825,536.231,-415.545,0,0
208888.15,538.039,-423.227,0,0
209148.475,539.449,-430.785,0,0
209408.8,540.319,-438.181,0,0
209669.125,540.887,-445.529,0,0
209929.45,540.753,-452.966,0,0
210189.775,539.486,-460.113,0,0
210450.1,537.268,-466.373,0,0
210710.425,534.69,-471.387,0,0
210970.75,532.117,-475.437,0,0
211231.075,529.79,-478.578,0,0
211491.4,527.839,-481.139,0,0
211751.725,526.13,-483.22,0,0
212012.05,524.577,-484.727,0,0
212272.375,523.345,-485.521,0,0
212532.7,522.984,-485.52,0,0
212793.025,523.646,-485.403,0,0
213053.35,525.245,-485.532,0,0
213313.675,527.368,-486.147,0,0
213574.0,529.848,-487.157,0,0
213834.325,532.593,-488.68,0,0
214094.65,535.493,-490.645,0,0
214354.975,538.3,-493.06,0,0
214615.3,540.871,-495.537,0,0
214875.625,543.341,-498.263,0,0
215135.95,545.784,-501.019,0,0
215396.275,548.218,-503.774,0,0
215656.6,550.819,-506.729,0,0
215916.925,553.299,-510.009,0,0
216177.25,555.51,-513.373,0,0
216437.575,557.447,-516.551,0,0
216697.9,559.492,-519.546,0,0
216958.225,561.533,-522.34,0,0
217218.55,563.981,-525.104,0,0
217478.875,566.761,-528.06,0,0
217739.2,569.551,-531.286,0,0
217999.525,572.334,-534.682,0,0
218259.85,575.083,-538.19,0,0
218520,577.828,-541.62,0,0
218780,580.843,-544.982,0,0
219041,584.181,-548.518,0,0
219301,587.796,-552.186,0,0
219561,591.707,-556.233,0,0
219822,595.993,-560.851,0,0
220082,600.251,-566.02,0,0
220342,604.296,-571.753,0,0
220603,608.293,-577.91,0,0
220863,612.039,-584.298,0,0
221123,616.029,-590.953,0,0
221384,619.956,-598.419,0,0
221644,623.595,-606.603,0,0
221904,626.759,-615.304,0,0
222165,629.555,-624.49,0,0
222425,631.623,-634.192,0,0
222685,633.267,-644.184,0,0
222946,634.094,-654.536,0,0
223206,634.125,-665.184,0,0
223466,633.349,-675.588,0,0
223727,632.005,-685.984,0,0
223987,630.105,-696.379,0,0
224247,627.656,-706.351,0,0
224508,624.926,-716.149,0,0
224768,621.669,-726.012,0,0
225028,618.05,-735.626,0,0
225289,614.064,-745.279,0,0
225549,609.456,-754.81,0,0
225809,604.47,-763.873,0,0
226070,598.952,-772.861,0,0
226330,593.268,-781.543,0,0
226590,586.978,-790.017,0,0
226851,580.376,-798.249,0,0
227111,573.504,-806.097,0,0
227371,566.228,-813.884,0,0
227632,558.575,-821.408,0,0
227892,550.218,-828.595,0,0
228152,541.338,-835.199,0,0
228413,531.973,-841.138,0,0
228673,522.388,-846.291,0,0
228933,512.753,-850.671,0,0
229193,503.076,-854.361,0,0
229454,493.635,-857.532,0,0
229714,484.247,-860.125,0,0
229974,474.99,-862.281,0,0
230235,465.692,-863.975,0,0
230495,456.677,-865.049,0,0
230755,447.79,-865.656,0,0
231016,439.326,-865.909,0,0
231276,431.188,-865.803,0,0
231536,423.349,-865.392,0,0
231797,415.743,-864.763,0,0
232057,408.528,-863.912,0,0
232317,401.549,-862.825,0,0
232578,394.817,-861.573,0,0
232838,388.686,-860.182,0,0
233098,382.823,-858.882,0,0
233359,377.235,-857.567,0,0
233619,371.821,-856.41,0,0
233879,366.504,-855.285,0,0
234140,361.217,-854.109,0,0
234400,356.146,-852.904,0,0
234660.3,351.41,-851.726,0,0
234920.625,346.732,-850.703,0,0
235180.95,342.132,-849.941,0,0
235441.275,337.199,-849.326,0,0
235701.6,332.205,-848.549,0,0
235961.925,327.153,-847.616,0,0
236222.25,322.124,-846.509,0,0
236482.575,317.13,-845.258,0,0
236742.9,312.229,-843.984,0,0
237003.225,307.421,-842.599,0,0
237263.55,302.593,-841.078,0,0
237523.875,297.699,-839.527,0,0
237784.2,292.953,-837.71,0,0
238044.525,288.453,-835.806,0,0
238304.85,284.025,-833.985,0,0
238565.175,279.61,-831.986,0,0
238825.5,275.108,-829.883,0,0
239085.825,270.987,-827.533,0,0
239346.15,266.97,-825.284,0,0
239606.475,263.036,-822.958,0,0
239866.8,259.182,-820.576,0,0
240127.125,255.536,-818.212,0,0
240387.45,252.039,-815.792,0,0
240647.775,248.717,-813.287,0,0
240908.1,245.453,-811.021,0,0
241168.425,242.21,-808.734,0,0
241428.75,238.993,-806.459,0,0
241689.075,235.763,-804.149,0,0
241949.4,232.596,-801.663,0,0
242209.725,229.55,-799.156,0,0
242470.05,226.659,-796.593,0,0
242730.375,223.878,-794.088,0,0
242990.7,221.228,-791.574,0,0
243251.025,218.674,-789.076,0,0
243511.35,216.268,-786.656,0,0
243771.675,213.921,-784.346,0,0
244032.0,211.527,-782.085,0,0
244292.325,209.208,-779.874,0,0
244552.65,206.923,-777.729,0,0
244812.975,204.623,-775.624,0,0
245073.3,202.171,-773.434,0,0
245333.625,199.849,-771.224,0,0
245593.95,197.427,-769.084,0,0
245854.275,195.13,-766.887,0,0
246114.6,192.83,-764.582,0,0
246374.925,190.483,-762.343,0,0
246635.25,188.123,-759.934,0,0
246895.575,185.836,-757.444,0,0
247155.9,183.683,-754.972,0,0
247416.225,181.602,-752.43,0,0
247676.55,179.575,-749.838,0,0
247936.875,177.624,-747.23,0,0
248197.2,175.825,-744.607,0,0
248457.525,174.114,-742.042,0,0
248717.85,172.446,-739.455,0,0
248978.175,170.809,-736.94,0,0
249238.5,169.243,-734.419,0,0
249498.825,167.66,-731.912,0,0
249759.15,166.253,-729.431,0,0
250019.475,164.807,-726.849,0,0
250279.8,163.405,-724.396,0,0
250540,162.121,-721.981,0,0
250800,160.743,-719.577,0,0
251061,159.469,-717.155,0,0
251321,158.168,-714.652,0,0
251581,156.942,-712.231,0,0
251842,155.741,-709.789,0,0
252102,154.586,-707.322,0,0
252362,153.47,-704.857,0,0
252623,152.349,-702.428,0,0
252883,151.241,-699.977,0,0
253143,150.154,-697.463,0,0
253404,149.143,-694.844,0,0
253664,148.246,-692.263,0,0
253924,147.419,-689.669,0,0
254185,146.744,-687.04,0,0
254445,146.09,-684.461,0,0
254705,145.48,-681.901,0,0
254966,145.01,-679.383,0,0
255226,144.51,-676.857,0,0
255486,144.229,-674.461,0,0
255747,143.822,-672.103,0,0
256007,143.572,-669.83,0,0
256267,143.183,-667.543,0,0
256528,142.806,-665.19,0,0
256788,142.497,-662.862,0,0
257048,142.3,-660.518,0,0
257309,142.14,-658.199,0,0
257569,141.999,-655.925,0,0
257829,141.87,-653.627,0,0
258090,141.795,-651.328,0,0
258350,141.769,-649.009,0,0
258610,141.782,-646.652,0,0
258871,141.912,-644.246,0,0
259131,142.141,-641.853,0,0
259391,142.523,-639.478,0,0
259651,143.012,-637.198,0,0
259912,143.573,-634.928,0,0
260172,144.337,-632.749,0,0
260432,145.167,-630.646,0,0
260693,146.059,-628.657,0,0
260953,147.015,-626.8,0,0
261213,147.991,-625.077,0,0
261474,148.996,-623.444,0,0
261734,150.008,-621.939,0,0
261994,151.049,-620.472,0,0
262255,152.095,-619.074,0,0
262515,153.222,-617.771,0,0
262775,154.324,-616.578,0,0
263036,155.494,-615.456,0,0
263296,156.649,-614.458,0,0
263556,157.81,-613.539,0,0
263817,158.969,-612.724,0,0
264077,160.138,-612.014,0,0
264337,161.302,-611.383,0,0
264598,162.472,-610.829,0,0
264858,163.696,-610.339,0,0
265118,164.877,-609.939,0,0
265379,166.212,-609.758,0,0
265639,167.515,-609.706,0,0
265899,168.842,-609.948,0,0
266160,170.134,-610.385,0,0
266420,171.267,-611.113,0,0
266680.25,172.232,-612.119,0,0
266940.575,172.948,-613.259,0,0
267200.9,173.368,-614.611,0,0
267461.225,173.419,-616.051,0,0
267721.55,173.137,-617.481,0,0
267981.875,172.559,-618.821,0,0
268242.2,171.767,-620.108,0,0
268502.525,170.741,-621.306,0,0
268762.85,169.431,-622.414,0,0
269023.175,167.89,-623.338,0,0
269283.5,166.118,-624.081,0,0
269543.825,164.176,-624.582,0,0
269804.15,162.117,-624.802,0,0
270064.475,159.93,-624.732,0,0
270324.8,157.706,-624.389,0,0
270585.125,155.59,-623.751,0,0
270845.45,153.425,-622.892,0,0
271105.775,151.411,-621.708,0,0
271366.1,149.595,-620.375,0,0
271626.425,147.874,-618.889,0,0
271886.75,146.286,-617.242,0,0
272147.075,144.908,-615.495,0,0
272407.4,143.7,-613.642,0,0
272667.725,142.662,-611.742,0,0
272928.05,141.81,-609.793,0,0
273188.375,141.136,-607.835,0,0
273448.7,140.671,-605.964,0,0
273709.025,140.304,-604.123,0,0
273969.35,140.072,-602.319,0,0
274229.675,139.964,-600.599,0,0
274490.0,139.897,-598.933,0,0
274750.325,139.925,-597.388,0,0
275010.65,140.037,-595.867,0,0
275270.975,140.188,-594.465,0,0
275531.3,140.372,-593.151,0,0
275791.625,140.515,-591.871,0,0
276051.95,140.715,-590.632,0,0
276312.275,140.923,-589.401,0,0
276572.6,141.196,-588.222,0,0
276832.925,141.5,-587.088,0,0
277093.25,141.872,-585.986,0,0
277353.575,142.299,-584.982,0,0
277613.9,142.77,-584.053,0,0
277874.225,143.245,-583.245,0,0
278134.55,143.709,-582.532,0,0
278394.875,144.163,-581.927,0,0
278655.2,144.573,-581.383,0,0
278915.525,144.969,-580.945,0,0
279175.85,145.29,-580.607,0,0
279436.175,145.52,-580.271,0,0
279696.5,145.693,-579.973,0,0
279956.825,145.793,-579.746,0,0
280217.15,145.845,-579.517,0,0
280477.475,145.877,-579.277,0,0
280737.8,145.826,-579.066,0,0
280998.125,145.768,-578.905,0,0
281258.45,145.658,-578.769,0,0
281518.775,145.476,-578.701,0,0
281779.1,145.165,-578.69,0,0
282039.425,144.676,-578.663,0,0
282299.75,144.081,-578.521,0,0
282560,143.395,-578.289,0,0
282820,142.647,-577.962,0,0
283081,141.881,-577.521,0,0
283341,141.094,-576.98,0,0
283601,140.319,-576.312,0,0
283862,139.653,-575.545,0,0
284122,139.04,-574.77,0,0
284382,138.467,-573.99,0,0
284643,137.928,-573.18,0,0
284903,137.38,-572.421,0,0
285163,136.891,-571.632,0,0
285424,136.381,-570.898,0,0
285684,135.841,-570.155,0,0
285944,135.282,-569.445,0,0
286205,134.661,-568.716,0,0
286465,133.902,-567.957,0,0
286725,133.041,-567.108,0,0
286986,132.139,-566.081,0,0
287246,131.214,-564.864,0,0
287506,130.34,-563.488,0,0
287767,129.56,-561.898,0,0
288027,128.974,-560.141,0,0
288287,128.588,-558.26,0,0
288548,128.457,-556.367,0,0
288808,128.549,-554.515,0,0
289068,128.876,-552.729,0,0
289329,129.378,-551.122,0,0
289589,129.928,-549.645,0,0
289849,130.593,-548.283,0,0
290109,131.361,-547.088,0,0
290370,132.148,-546.109,0,0
290630,132.844,-545.329,0,0
290890,133.337,-544.667,0,0
291151,133.825,-543.993,0,0
291411,134.285,-543.337,0,0
291671,134.708,-542.743,0,0
291932,135.137,-542.222,0,0
292192,135.465,-541.87,0,0
292452,135.616,-541.516,0,0
292713,135.621,-541.154,0,0
292973,135.498,-540.685,0,0
293233,135.262,-540.141,0,0
293494,134.961,-539.463,0,0
293754,134.667,-538.653,0,0
294014,134.362,-537.71,0,0
294275,134.1,-536.633,0,0
294535,133.868,-535.443,0,0
294795,133.698,-534.14,0,0
295056,133.654,-532.673,0,0
295316,133.797,-531.106,0,0
295576,134.142,-529.518,0,0
295837,134.668,-527.939,0,0
296097,135.393,-526.427,0,0
296357,136.266,-525.002,0,0
296618,137.277,-523.718,0,0
296878,138.384,-522.609,0,0
297138,139.489,-521.647,0,0
297399,140.578,-520.828,0,0
297659,141.611,-520.097,0,0
297919,142.586,-519.377,0,0
298180,143.611,-518.687,0,0
298440,144.638,-518.006,0,0
298700.2,145.735,-517.383,0,0
298960.525,146.822,-516.764,0,0
299220.85,147.875,-516.375,0,0
299481.175,148.894,-515.881,0,0
299741.5,149.907,-515.41,0,0
300001.825,150.985,-514.972,0,0
300262.15,152.08,-514.546,0,0
300522.475,153.222,-514.217,0,0
300782.8,154.32,-513.876,0,0
301043.125,155.541,-513.545,0,0
301303.45,156.85,-513.18,0,0
301563.775,158.237,-512.95,0,0
301824.1,159.89,-512.796,0,0
302084.425,161.461,-512.91,0,0
302344.75,163.019,-513.301,0,0
302605.075,164.485,-513.784,0,0
302865.4,165.763,-514.513,0,0
303125.725,167.05,-515.209,0,0
303386.05,168.122,-516.018,0,0
303646.375,169.126,-516.806,0,0
303906.7,170.076,-517.589,0,0
304167.025,170.949,-518.368,0,0
304427.35,171.887,-519.148,0,0
304687.675,172.728,-520.064,0,0
304948.0,173.505,-521.083,0,0
305208.325,174.194,-521.972,0,0
305468.65,174.833,-522.915,0,0
305728.975,175.604,-523.893,0,0
305989.3,176.321,-524.961,0,0
306249.625,176.927,-526.191,0,0
306509.95,177.605,-527.375,0,0
306770.275,178.068,-528.804,0,0
307030.6,178.552,-530.211,0,0
307290.925,178.821,-531.794,0,0
307551.25,178.954,-533.3,0,0
307811.575,178.889,-534.84,0,0
308071.9,178.788,-536.437,0,0
308332.225,178.428,-537.837,0,0
308592.55,178.011,-539.184,0,0
308852.875,177.631,-540.474,0,0
309113.2,177.067,-541.672,0,0
309373.525,176.609,-542.717,0,0
309633.85,176.136,-543.749,0,0
309894.175,175.755,-544.861,0,0
310154.5,175.431,-546.017,0,0
310414.825,175.065,-547.237,0,0
310675.15,174.605,-548.56,0,0
310935.475,174.039,-549.842,0,0
311195.8,173.396,-551.265,0,0
311456.125,172.665,-552.675,0,0
311716.45,171.842,-554.134,0,0
311976.775,170.768,-555.63,0,0
312237.1,169.581,-557.104,0,0
312497.425,168.216,-558.451,0,0
312757.75,166.745,-559.674,0,0
313018.075,165.06,-560.792,0,0
313278.4,163.362,-561.726,0,0
313538.725,161.625,-562.516,0,0
313799.05,159.917,-563.183,0,0
314059.375,158.125,-563.71,0,0
314319.7,156.488,-564.134,0,0
314580,154.84,-564.444,0,0
314840,153.137,-564.7,0,0
315101,151.661,-564.916,0,0
315361,150.011,-565.106,0,0
315621,148.583,-565.281,0,0
315882,147.11,-565.622,0,0
316142,145.445,-565.848,0,0
316402,143.832,-565.901,0,0
316663,142.103,-565.951,0,0
316923,140.441,-565.905,0,0
317183,138.854,-565.851,0,0
317444,137.221,-565.61,0,0
317704,135.597,-565.415,0,0
317964,134.053,-565.094,0,0
318225,132.51,-564.708,0,0
318485,130.906,-564.422,0,0
318745,129.343,-564.026,0,0
319006,127.902,-563.598,0,0
319266,126.25,-563.185,0,0
319526,124.834,-562.558,0,0
319787,123.301,-561.996,0,0
320047,121.827,-561.336,0,0
320307,120.313,-560.604,0,0
320567,118.969,-559.852,0,0
320828,117.506,-558.991,0,0
321088,116.221,-558.123,0,0
321348,114.947,-557.274,0,0
321609,113.787,-556.349,0,0
321869,112.586,-555.348,0,0
322129,111.369,-554.329,0,0
322390,110.3,-553.359,0,0
322650,109.247,-552.352,0,0
322910,108.186,-551.191,0,0
323171,107.301,-550.071,0,0
323431,106.464,-548.872,0,0
323691,105.673,-547.698,0,0
323952,104.928,-546.627,0,0
324212,104.4,-545.487,0,0
324472,103.767,-544.426,0,0
324733,103.248,-543.352,0,0
324993,102.781,-542.292,0,0
325253,102.295,-541.318,0,0
325514,101.877,-540.381,0,0
325774,101.577,-539.411,0,0
326034,101.155,-538.5,0,0
326295,100.991,-537.659,0,0
326555,100.718,-536.874,0,0
326815,100.485,-536.056,0,0
327076,100.302,-535.296,0,0
327336,100.067,-534.61,0,0
327596,99.7724,-534.056,0,0
327857,99.5812,-533.489,0,0
328117,99.3941,-532.929,0,0
328377,99.0471,-532.433,0,0
328638,98.818,-531.943,0,0
328898,98.5853,-531.537,0,0
329158,98.3187,-531.152,0,0
329419,97.9539,-530.752,0,0
329679,97.5904,-530.308,0,0
329939,97.141,-530.018,0,0
330200,96.8037,-529.707,0,0
330460,96.3446,-529.402,0,0
330720.15,95.847,-529.114,0,0
330980.475,95.3113,-528.794,0,0
331240.8,94.7421,-528.459,0,0
331501.125,94.2193,-528.186,0,0
331761.45,93.6355,-527.834,0,0
332021.775,92.996,-527.517,0,0
332282.1,92.3063,-527.183,0,0
332542.425,91.6546,-526.799,0,0
332802.75,90.9522,-526.462,0,0
333063.075,90.1896,-526.018,0,0
333323.4,89.4946,-525.582,0,0
333583.725,88.7157,-525.101,0,0
333844.05,88.0076,-524.678,0,0
334104.375,87.1874,-524.087,0,0
334364.7,86.3926,-523.566,0,0
334625.025,85.6403,-523.028,0,0
334885.35,84.878,-522.409,0,0
335145.675,84.0543,-521.73,0,0
335406.0,83.345,-521.085,0,0
335666.325,82.5651,-520.415,0,0
335926.65,81.8505,-519.693,0,0
336186.975,81.1334,-518.884,0,0
336447.3,80.521,-518.244,0,0
336707.625,79.7884,-517.483,0,0
336967.95,79.1238,-516.729,0,0
337228.275,78.4622,-515.921,0,0
337488.6,77.8712,-515.196,0,0
337748.925,77.2541,-514.439,0,0
338009.25,76.6314,-513.579,0,0
338269.575,76.0325,-512.831,0,0
338529.9,75.3997,-512.059,0,0
338790.225,74.8456,-511.206,0,0
339050.55,74.2405,-510.341,0,0
339310.875,73.6895,-509.498,0,0
339571.2,73.1824,-508.672,0,0
339831.525,72.6743,-507.82,0,0
340091.85,72.206,-506.935,0,0
340352.175,71.7339,-506.079,0,0
340612.5,71.2919,-505.261,0,0
340872.825,70.8248,-504.491,0,0
341133.15,70.3954,-503.592,0,0
341393.475,69.9328,-502.839,0,0
341653.8,69.4919,-502.068,0,0
341914.125,69.1523,-501.276,0,0
342174.45,68.6845,-500.427,0,0
342434.775,68.2518,-499.651,0,0
342695.1,67.8402,-498.905,0,0
342955.425,67.3688,-498.07,0,0
343215.75,66.8741,-497.29,0,0
343476.075,66.4891,-496.555,0,0
343736.4,66.0302,-495.746,0,0
343996.725,65.643,-494.89,0,0
344257.05,65.1525,-494.029,0,0
344517.375,64.764,-493.242,0,0
344777.7,64.2299,-492.428,0,0
345038.025,63.9017,-491.503,0,0
345298.35,63.438,-490.608,0,0
345558.675,63.0484,-489.781,0,0
345819.0,62.6734,-488.875,0,0
346079.325,62.2131,-487.949,0,0
346339.65,61.8823,-487.095,0,0
346599.975,61.5195,-486.162,0,0
346860,61.1485,-485.187,0,0
347121,60.8569,-484.31,0,0
347381,60.4961,-483.34,0,0
347641,60.2007,-482.328,0,0
347902,59.9434,-481.429,0,0
348162,59.6965,-480.425,0,0
348422,59.4243,-479.459,0,0
348683,59.2249,-478.548,0,0
348943,59.0486,-477.615,0,0
349203,58.8608,-476.642,0,0
349464,58.7382,-475.771,0,0
349724,58.5497,-474.835,0,0
349984,58.4515,-473.916,0,0
350245,58.2888,-473.055,0,0
350505,58.1625,-472.156,0,0
350765,58.002,-471.279,0,0
351025,57.8324,-470.373,0,0
351286,57.729,-469.504,0,0
351546,57.6654,-468.677,0,0
351806,57.5834,-467.698,0,0
352067,57.5166,-466.914,0,0
352327,57.4149,-466.065,0,0
352587,57.3997,-465.183,0,0
352848,57.3365,-464.32,0,0
353108,57.2925,-463.545,0,0
353368,57.2197,-462.728,0,0
353629,57.1201,-461.916,0,0
353889,57.1226,-461.085,0,0
354149,57.0558,-460.263,0,0
354410,56.9849,-459.481,0,0
354670,56.9417,-458.692,0,0
354930,56.972,-457.847,0,0
355191,56.871,-457.049,0,0
355451,56.8247,-456.227,0,0
355711,56.8643,-455.387,0,0
355972,56.846,-454.61,0,0
356232,56.8947,-453.826,0,0
356492,56.8942,-453.082,0,0
356753,56.8848,-452.334,0,0
357013,56.9335,-451.556,0,0
357273,56.9436,-450.806,0,0
357534,56.9501,-450.077,0,0
357794,56.9876,-449.3,0,0
358054,57.0025,-448.577,0,0
358315,56.9976,-447.843,0,0
358575,57.0026,-447.118,0,0
358835,57.0401,-446.357,0,0
359096,57.057,-445.62,0,0
359356,57.1374,-444.864,0,0
359616,57.1592,-444.11,0,0
359877,57.1863,-443.358,0,0
360137,57.2621,-442.656,0,0
360397,57.3108,-441.899,0,0
360658,57.4075,-441.197,0,0
360918,57.5045,-440.475,0,0
361178,57.6038,-439.75,0,0
361438,57.7122,-439.132,0,0
361699,57.7456,-438.428,0,0
361959,57.7952,-437.758,0,0
362219,57.8542,-437.096,0,0
362480,57.9083,-436.425,0,0
362740.1,57.9532,-435.707,0,0
363000.425,58.0024,-435.02,0,0
363260.75,58.0154,-434.331,0,0
363521.075,58.1479,-433.611,0,0
363781.4,58.1795,-432.942,0,0
364041.725,58.3096,-432.197,0,0
364302.05,58.3756,-431.469,0,0
364562.375,58.4661,-430.772,0,0
364822.7,58.6249,-430.115,0,0
365083.025,58.7386,-429.416,0,0
365343.35,58.8637,-428.721,0,0
365603.675,59.0297,-428.065,0,0
365864.0,59.1576,-427.476,0,0
366124.325,59.2627,-426.819,0,0
366384.65,59.3535,-426.217,0,0
366644.975,59.4145,-425.576,0,0
366905.3,59.4215,-424.952,0,0
367165.625,59.472,-424.237,0,0
367425.95,59.4877,-423.527,0,0
367686.275,59.5038,-422.771,0,0
367946.6,59.523,-421.982,0,0
368206.925,59.5677,-421.141,0,0
368467.25,59.6919,-420.277,0,0
368727.575,59.8619,-419.355,0,0
368987.9,60.0609,-418.477,0,0
369248.225,60.2953,-417.541,0,0
369508.55,60.6174,-416.635,0,0
369768.875,60.9552,-415.726,0,0
370029.2,61.3694,-414.851,0,0
370289.525,61.7811,-414.017,0,0
370549.85,62.2551,-413.106,0,0
370810.175,62.825,-412.332,0,0
371070.5,63.3773,-411.536,0,0
371330.825,64.0175,-410.783,0,0
371591.15,64.6901,-410.108,0,0
371851.475,65.3863,-409.486,0,0
372111.8,66.0788,-408.854,0,0
372372.125,66.7967,-408.33,0,0
372632.45,67.4929,-407.858,0,0
372892.775,68.1988,-407.42,0,0
373153.1,68.9309,-407.049,0,0
373413.425,69.6328,-406.733,0,0
373673.75,70.3387,-406.459,0,0
373934.075,71.0551,-406.246,0,0
374194.4,71.7132,-406.037,0,0
374454.725,72.3224,-405.92,0,0
374715.05,72.9278,-405.863,0,0
374975.375,73.5113,-405.829,0,0
375235.7,73.9793,-405.756,0,0
375496.025,74.4573,-405.753,0,0
375756.35,74.8921,-405.7,0,0
376016.675,75.2797,-405.664,0,0
376277.0,75.646,-405.64,0,0
376537.325,76.0386,-405.604,0,0
376797.65,76.3797,-405.537,0,0
377057.975,76.7784,-405.49,0,0
377318.3,77.1216,-405.467,0,0
377578.625,77.4897,-405.409,0,0
377838.95,77.8607,-405.399,0,0
378099.275,78.2262,-405.418,0,0
378359.6,78.559,-405.496,0,0
378619.925,78.8521,-405.562,0,0
378880,79.1362,-405.66,0,0
379141,79.3933,-405.771,0,0
379401,79.5488,-405.848,0,0
379661,79.7401,-405.929,0,0
379922,79.9129,-405.9,0,0
380182,80.1144,-405.918,0,0
380442,80.3317,-405.86,0,0
380703,80.5819,-405.889,0,0
380963,80.9268,-405.959,0,0
381223,81.2859,-406.079,0,0
381483,81.6279,-406.289,0,0
381744,81.9625,-406.584,0,0
382004,82.2131,-406.98,0,0
382264,82.315,-407.373,0,0
382525,82.405,-407.795,0,0
382785,82.4444,-408.244,0,0
383045,82.4018,-408.685,0,0
383306,82.2379,-409.158,0,0
383566,82.0194,-409.601,0,0
383826,81.7537,-410.012,0,0
384087,81.4587,-410.413,0,0
384347,81.0164,-410.753,0,0
384607,80.5758,-411.051,0,0
384868,80.0737,-411.337,0,0
385128,79.611,-411.483,0,0
385388,79.039,-411.652,0,0
385649,78.5084,-411.779,0,0
385909,77.9484,-411.847,0,0
386169,77.339,-411.846,0,0
386430,76.7201,-411.851,0,0
386690,76.0685,-411.777,0,0
386950,75.4183,-411.623,0,0
387211,74.8038,-411.402,0,0
387471,74.1659,-411.178,0,0
387731,73.6209,-410.893,0,0
387992,73.0751,-410.53,0,0
388252,72.5518,-410.167,0,0
388512,72.0067,-409.817,0,0
388773,71.5434,-409.377,0,0
389033,71.1188,-408.917,0,0
389293,70.7211,-408.459,0,0
389554,70.3849,-408.026,0,0
389814,70.0863,-407.588,0,0
390074,69.7621,-407.137,0,0
390335,69.4916,-406.772,0,0
390595,69.2714,-406.386,0,0
390855,69.0014,-405.985,0,0
391116,68.7175,-405.64,0,0
391376,68.4734,-405.296,0,0
391636,68.2324,-404.91,0,0
391896,67.965,-404.615,0,0
392157,67.7666,-404.31,0,0
392417,67.5057,-404.068,0,0
392677,67.1786,-403.775,0,0
392938,66.8222,-403.532,0,0
393198,66.4658,-403.262,0,0
393458,66.0466,-402.958,0,0
393719,65.6226,-402.622,0,0
393979,65.1862,-402.298,0,0
394239,64.7227,-401.954,0,0
394500,64.2236,-401.524,0,0
394760.05,63.6888,-401.055,0,0
395020.375,63.2623,-400.569,0,0
395280.7,62.7818,-400.045,0,0
395541.025,62.3463,-399.489,0,0
395801.35,61.964,-398.886,0,0
396061.675,61.5382,-398.296,0,0
396322.0,61.1504,-397.683,0,0
396582.325,60.7743,-397.022,0,0
396842.65,60.4475,-396.349,0,0
397102.975,60.0963,-395.691,0,0
397363.3,59.8058,-395.024,0,0
397623.625,59.5369,-394.361,0,0
397883.95,59.3078,-393.638,0,0
398144.275,59.054,-392.953,0,0
398404.6,58.8177,-392.251,0,0
398664.925,58.5792,-391.539,0,0
398925.25,58.3681,-390.877,0,0
399185.575,58.1885,-390.13,0,0
399445.9,58.034,-389.412,0,0
399706.225,57.8915,-388.698,0,0
399966.55,57.7223,-387.946,0,0
400006.6,57.7314,-387.894,0,0