File: Accelerated corrosion test data/2025-10-16_18-00-04/sample_4.csv
Frequency (Hz),Impedance (ohms),Phase (Radians),Temperature (C),Humidity (%)
10000.0,262.71,-11895.6,0,0
10260.325,259.896,-11596.8,0,0
10520.65,250.032,-11312.2,0,0
10780.975,244.157,-11041.1,0,0
11041.3,239.364,-10782.2,0,0
11301.625,234.052,-10538.4,0,0
11561.95,228.356,-10302.1,0,0
11822.275,224.013,-10076.9,0,0
12082.6,219.049,-9861.19,0,0
12342.925,214.531,-9654,0,0
12603.25,212.953,-9454.17,0,0
12863.575,207.613,-9267.38,0,0
13123.9,206.303,-9087.91,0,0
13384.225,199.196,-8909.23,0,0
13644.55,195.367,-8737.71,0,0
13904.875,193.24,-8572.23,0,0
14165.2,193.884,-8409.11,0,0
14425.525,199.102,-8264.06,0,0
14685.8,198.857,-8145.19,0,0
14946.175,181.999,-7991.08,0,0
15206.5,180.892,-7845.79,0,0
15466.825,188.122,-7702.48,0,0
15727.15,187.994,-7604.14,0,0
15987.5,185.614,-7486.95,0,0
16247.8,170.383,-7356.96,0,0
16508.125,190.459,-7229.91,0,0
16768.45,178.292,-7129.1,0,0
17028.775,170.773,-7041.01,0,0
17289.1,160.12,-6927.22,0,0
17549.425,158.067,-6823.13,0,0
17809.75,156.022,-6722.38,0,0
18070.075,152.055,-6623.07,0,0
18330.4,153.049,-6526.96,0,0
18590.725,152.154,-6437.89,0,0
18851.05,149.355,-6354.14,0,0
19111.375,144.878,-6264.39,0,0
19371.7,142.395,-6178.82,0,0
19632.025,141.556,-6094.5,0,0
19892.35,143.789,-6014.09,0,0
20152.675,143.185,-5936.72,0,0
20413.0,140.233,-5862.94,0,0
20673.3,140.641,-5788.27,0,0
20933.65,136.74,-5714.74,0,0
21193.975,139.674,-5639.71,0,0
21454.3,151.821,-5574.21,0,0
21714.625,146.177,-5517.45,0,0
21974.9,148.262,-5445.88,0,0
22235.275,148.677,-5400.97,0,0
22495.6,135.11,-5344,0,0
22755.925,128,-5278.66,0,0
23016.25,124.807,-5216.83,0,0
23276.6,122.578,-5156.56,0,0
23536.9,120.311,-5099.2,0,0
23797.225,118.689,-5042.2,0,0
24057.55,116.927,-4986.28,0,0
24317.875,116.373,-4931.36,0,0
24578.2,114.347,-4878.8,0,0
24838.525,114.514,-4826.09,0,0
25098.85,114.525,-4774.86,0,0
25359.175,112.276,-4727.51,0,0
25619.5,112.152,-4678.15,0,0
25879.8,110.513,-4633.91,0,0
26140.1,107.827,-4584.77,0,0
26400.5,107.725,-4539.15,0,0
26660.8,106.197,-4492.62,0,0
26921.1,105.702,-4447.83,0,0
27181.4,105.27,-4403.23,0,0
27441.8,105.684,-4358.41,0,0
27702.1,109.159,-4313.93,0,0
27962.4,115.692,-4273.07,0,0
28222.7,120.329,-4245.48,0,0
28483.1,113.244,-4209.98,0,0
28743.4,109.259,-4169.08,0,0
29003.7,112.318,-4127.85,0,0
29264,116.761,-4096.34,0,0
29524.4,111.956,-4064.9,0,0
29784.7,109.201,-4033.14,0,0
30045,107.015,-3997.36,0,0
30305.3,101.658,-3963.31,0,0
30565.7,99.0637,-3927.58,0,0
30826,98.7168,-3892.57,0,0
31086.3,97.786,-3858.64,0,0
31346.6,98.467,-3825.1,0,0
31607,97.367,-3794.71,0,0
31867.3,97.2738,-3762.51,0,0
32127.6,99.9903,-3731.72,0,0
32387.9,98.4569,-3706.12,0,0
32648.3,96.3922,-3676.45,0,0
32908.6,94.4602,-3648.82,0,0
33168.9,92.0921,-3619.72,0,0
33429.2,89.8842,-3591.22,0,0
33689.6,88.0996,-3562.01,0,0
33949.9,87.0831,-3533.41,0,0
34210.2,87.5235,-3505.64,0,0
34470.5,86.0917,-3479.48,0,0
34730.9,84.5838,-3452.63,0,0
34991.2,84.5199,-3425.67,0,0
35251.5,84.0464,-3399.95,0,0
35511.8,82.9715,-3374.79,0,0
35772.2,82.3851,-3349.43,0,0
36032.5,81.6261,-3324.81,0,0
36292.8,80.6064,-3299.92,0,0
36553.1,80.2834,-3275.46,0,0
36813.5,80.2722,-3251.54,0,0
37073.8,80.6187,-3228.25,0,0
37334.1,79.5295,-3205.83,0,0
37594.4,78.9739,-3182.39,0,0
37854.8,78.9014,-3160.09,0,0
38115.1,78.2404,-3138.19,0,0
38375.4,76.9069,-3115.74,0,0
38635.7,76.9526,-3093.65,0,0
38896.1,77.2803,-3072.02,0,0
39156.4,76.8215,-3051.13,0,0
39416.7,76.3348,-3030.04,0,0
39677,76.2293,-3008.78,0,0
39937.4,76.7835,-2987.5,0,0
40197.7,78.6054,-2966.92,0,0
40458,79.9356,-2948.51,0,0
40718.3,79.3075,-2931.06,0,0
40978.7,78.8005,-2911.55,0,0
41239,80.0514,-2893.33,0,0
41499.3,81.5233,-2876.13,0,0
41759.6,78.6833,-2859.84,0,0
42020,77.3504,-2841.76,0,0
42280.275,76.2119,-2822.59,0,0
42540.6,78.2904,-2804.63,0,0
42800.925,77.9922,-2789.93,0,0
43061.25,75.3447,-2772.58,0,0
43321.575,75.5425,-2755.22,0,0
43581.9,74.2553,-2738.69,0,0
43842.225,73.3806,-2721.48,0,0
44102.55,73.5574,-2705.01,0,0
44362.875,72.2905,-2688.47,0,0
44623.2,72.2833,-2671.45,0,0
44883.525,72.01,-2656.23,0,0
45143.85,71.3822,-2640.2,0,0
45404.175,70.2831,-2623.52,0,0
45664.5,71.0813,-2607.05,0,0
45924.825,72.4482,-2592.4,0,0
46185.15,71.3937,-2579,0,0
46445.475,70.0104,-2562.61,0,0
46705.8,71.103,-2547.43,0,0
46966.125,71.5519,-2533.91,0,0
47226.45,71.3584,-2519.52,0,0
47486.775,71.3355,-2506.26,0,0
47747.1,70.0533,-2492.81,0,0
48007.425,69.1476,-2478.56,0,0
48267.75,68.4546,-2465.17,0,0
48528.075,67.5978,-2451.2,0,0
48788.4,66.8135,-2437.19,0,0
49048.725,66.0828,-2423.37,0,0
49309.05,65.9794,-2409.44,0,0
49569.375,65.4011,-2396.35,0,0
49829.7,64.8522,-2382.49,0,0
50090.025,64.5921,-2369.33,0,0
50350.35,64.1717,-2355.95,0,0
50610.675,64.2564,-2342.77,0,0
50871.0,64.0106,-2329.83,0,0
51131.325,63.8359,-2316.83,0,0
51391.65,63.6588,-2304.03,0,0
51651.975,63.69,-2291.14,0,0
51912.3,63.77,-2278.55,0,0
52172.625,63.9171,-2265.72,0,0
52432.95,64.2169,-2253.52,0,0
52693.275,64.3989,-2240.82,0,0
52953.6,65.2148,-2228.1,0,0
53213.925,66.3718,-2215.98,0,0
53474.25,67.5291,-2204.22,0,0
53734.575,68.9473,-2192.47,0,0
53994.9,71.5623,-2181.07,0,0
54255.225,73.6934,-2171.68,0,0
54515.55,75.5651,-2163.06,0,0
54775.875,75.6746,-2155.24,0,0
55036.2,74.3138,-2146.92,0,0
55296.525,73.5465,-2137.2,0,0
55556.85,71.9744,-2128.49,0,0
55817.175,69.9077,-2118.13,0,0
56077.5,68.4365,-2107.64,0,0
56337.825,67.1513,-2096.9,0,0
56598.15,65.8971,-2085.59,0,0
56858.475,65.5415,-2074.32,0,0
57118.8,65.8751,-2063.18,0,0
57379.125,66.2456,-2052.76,0,0
57639.45,66.1891,-2042.71,0,0
57899.775,66.3763,-2032.2,0,0
58160.1,66.5511,-2021.94,0,0
58420.4,67.6124,-2011.48,0,0
58680.7,68.3724,-2003.06,0,0
58941.1,67.3954,-1992.38,0,0
59201.4,68.8427,-1981.67,0,0
59461.7,70.7629,-1971.58,0,0
59722,73.2312,-1962.8,0,0
59982.4,75.4196,-1954.94,0,0
60242.7,76.6573,-1947.72,0,0
60503,77.5577,-1940.23,0,0
60763.3,79.7276,-1932.83,0,0
61023.7,80.6791,-1929.31,0,0
61284,78.5452,-1924.36,0,0
61544.3,74.7166,-1918.3,0,0
61804.6,71.6515,-1908.78,0,0
62065,70.0644,-1900.1,0,0
62325.3,68.8093,-1891.99,0,0
62585.6,66.0531,-1883.28,0,0
62845.9,65.0082,-1872.71,0,0
63106.3,64.7689,-1863.95,0,0
63366.6,64.2134,-1854.66,0,0
63626.9,64.3046,-1845.4,0,0
63887.2,64.6313,-1837.56,0,0
64147.6,63.3857,-1828.68,0,0
64407.9,63.8768,-1819.39,0,0
64668.2,64.4887,-1810.93,0,0
64928.5,65.0694,-1803.04,0,0
65188.9,65.1989,-1795.22,0,0
65449.2,65.2645,-1787.24,0,0
65709.5,65.1545,-1778.88,0,0
65969.8,66.397,-1770.25,0,0
66230.2,67.5235,-1763.12,0,0
66490.5,68.1193,-1755.82,0,0
66750.8,68.8089,-1748.73,0,0
67011.1,69.3968,-1741.36,0,0
67271.5,70.498,-1734.34,0,0
67531.8,71.6175,-1727.84,0,0
67792.1,72.6121,-1721.63,0,0
68052.4,73.3612,-1716,0,0
68312.8,73.6277,-1710.58,0,0
68573.1,73.8246,-1705.41,0,0
68833.4,73.2594,-1700.78,0,0
69093.7,71.3648,-1695.7,0,0
69354.1,69.2323,-1689.61,0,0
69614.4,67.1199,-1682.49,0,0
69874.7,66.214,-1675.07,0,0
70135,65.5348,-1668.44,0,0
70395.4,64.1058,-1661.15,0,0
70655.7,63.98,-1653.03,0,0
70916,65.1512,-1646.58,0,0
71176.3,64.7364,-1640.69,0,0
71436.7,64.3497,-1634.74,0,0
71697,63.7574,-1629.15,0,0
71957.3,62.1424,-1623.28,0,0
72217.6,60.5262,-1616.51,0,0
72478,59.2957,-1609.26,0,0
72738.3,58.4631,-1602.05,0,0
72998.6,57.7007,-1594.84,0,0
73258.9,57.2876,-1587.13,0,0
73519.3,57.5831,-1579.68,0,0
73779.6,57.8146,-1572.94,0,0
74039.9,58.2267,-1566.03,0,0
74300.225,58.4309,-1559.7,0,0
74560.55,58.663,-1553.01,0,0
74820.875,59.1783,-1546.44,0,0
75081.2,59.805,-1539.94,0,0
75341.525,60.6989,-1534.12,0,0
75601.85,61.0133,-1528.38,0,0
75862.175,61.3222,-1522.51,0,0
76122.5,61.6774,-1516.52,0,0
76382.825,62.2707,-1511.07,0,0
76643.15,62.4003,-1505.55,0,0
76903.475,62.276,-1499.7,0,0
77163.8,63.1424,-1493.44,0,0
77424.125,64.2077,-1488.27,0,0
77684.45,65.0833,-1483.44,0,0
77944.775,65.5946,-1479.04,0,0
78205.1,65.4768,-1474.71,0,0
78465.425,65.2332,-1470.2,0,0
78725.75,64.6163,-1465.68,0,0
78986.075,63.7877,-1460.85,0,0
79246.4,62.9069,-1455.75,0,0
79506.725,62.1187,-1450.35,0,0
79767.05,61.5306,-1444.86,0,0
80027.375,61.0744,-1439.36,0,0
80287.7,60.7989,-1433.88,0,0
80548.025,60.6065,-1428.5,0,0
80808.35,60.4964,-1423.06,0,0
81068.675,60.54,-1417.91,0,0
81329.0,60.4046,-1412.81,0,0
81589.325,60.2168,-1407.83,0,0
81849.65,60.0418,-1402.86,0,0
82109.975,59.7169,-1397.82,0,0
82370.3,59.4995,-1392.78,0,0
82630.625,59.2183,-1387.72,0,0
82890.95,58.9852,-1382.75,0,0
83151.275,58.7649,-1377.78,0,0
83411.6,58.464,-1372.75,0,0
83671.925,58.1932,-1367.72,0,0
83932.25,58.033,-1362.72,0,0
84192.575,57.8204,-1357.81,0,0
84452.9,57.6774,-1352.86,0,0
84713.225,57.4761,-1347.96,0,0
84973.55,57.3764,-1343.05,0,0
85233.875,57.1391,-1338.24,0,0
85494.2,57.0204,-1333.46,0,0
85754.525,56.9132,-1328.69,0,0
86014.85,56.6256,-1323.92,0,0
86275.175,56.515,-1319.07,0,0
86535.5,56.4758,-1314.36,0,0
86795.825,56.3409,-1309.82,0,0
87056.15,56.167,-1305.18,0,0
87316.475,56.0108,-1300.54,0,0
87576.8,55.7815,-1296.09,0,0
87837.125,55.4472,-1291.68,0,0
88097.45,55.0558,-1287.14,0,0
88357.775,54.2934,-1282.42,0,0
88618.1,53.9694,-1277.35,0,0
88878.425,53.8628,-1272.5,0,0
89138.75,53.6822,-1267.8,0,0
89399.075,53.5381,-1262.9,0,0
89659.4,53.4542,-1258.13,0,0
89919.725,53.5025,-1253.46,0,0
90180,53.437,-1248.89,0,0
90440.4,53.4353,-1244.17,0,0
90700.7,53.3589,-1239.71,0,0
90961,53.3544,-1235.01,0,0
91221.3,53.1747,-1230.38,0,0
91481.7,53.2985,-1225.69,0,0
91742,53.4101,-1221.1,0,0
92002.3,53.717,-1216.51,0,0
92262.6,53.9809,-1212.03,0,0
92523,54.2852,-1207.71,0,0
92783.3,54.5971,-1203.56,0,0
93043.6,54.8279,-1199.55,0,0
93303.9,54.9033,-1195.56,0,0
93564.3,54.8301,-1191.61,0,0
93824.6,54.6232,-1187.67,0,0
94084.9,54.3376,-1183.62,0,0
94345.2,53.961,-1179.43,0,0
94605.6,53.5362,-1175.17,0,0
94865.9,53.2135,-1170.61,0,0
95126.2,53.0954,-1166.1,0,0
95386.5,52.9284,-1161.6,0,0
95646.9,52.906,-1157.02,0,0
95907.2,53.0402,-1152.54,0,0
96167.5,53.1525,-1148.06,0,0
96427.8,53.3448,-1143.7,0,0
96688.2,53.5491,-1139.37,0,0
96948.5,53.7213,-1135.12,0,0
97208.8,53.9127,-1130.79,0,0
97469.1,54.0706,-1126.53,0,0
97729.5,54.224,-1122.2,0,0
97989.8,54.4576,-1117.79,0,0
98250.1,54.8677,-1113.42,0,0
98510.4,55.3038,-1109.18,0,0
98770.8,55.6502,-1104.92,0,0
99031.1,56.1405,-1100.59,0,0
99291.4,56.7533,-1096.4,0,0
99551.7,57.4608,-1092.35,0,0
99812.1,57.9376,-1088.38,0,0
100072,58.5099,-1084.18,0,0
100333,59.4126,-1080.06,0,0
100593,60.6618,-1076.26,0,0
100853,61.7554,-1073.09,0,0
101114,62.359,-1070.01,0,0
101374,62.9379,-1066.84,0,0
101634,63.5333,-1064.08,0,0
101895,63.4442,-1061.67,0,0
102155,62.6277,-1058.98,0,0
102415,61.4697,-1055.58,0,0
102676,60.3263,-1051.56,0,0
102936,59.4762,-1047.19,0,0
103196,58.882,-1042.54,0,0
103457,58.5174,-1037.68,0,0
103717,58.5745,-1032.67,0,0
103977,59.0258,-1027.74,0,0
104238,59.6126,-1023,0,0
104498,60.3622,-1018.22,0,0
104758,61.3171,-1013.54,0,0
105019,62.4823,-1009.02,0,0
105279,63.7758,-1004.7,0,0
105539,65.0574,-1000.52,0,0
105800,66.3785,-996.414,0,0
106060,67.7665,-992.427,0,0
106320.175,69.212,-988.542,0,0
106580.5,70.739,-984.791,0,0
106840.825,72.2378,-981.23,0,0
107101.15,73.6456,-977.801,0,0
107361.475,74.9479,-974.319,0,0
107621.8,76.2497,-970.76,0,0
107882.125,77.7706,-967.161,0,0
108142.45,79.4341,-963.689,0,0
108402.775,81.2107,-960.382,0,0
108663.1,83.0348,-957.315,0,0
108923.425,84.8732,-954.36,0,0
109183.75,86.7337,-951.52,0,0
109444.075,88.5658,-949.043,0,0
109704.4,90.1969,-946.718,0,0
109964.725,91.6669,-944.369,0,0
110225.05,93.0597,-942.058,0,0
110485.375,94.4957,-939.955,0,0
110745.7,95.7907,-937.762,0,0
111006.025,96.9678,-935.756,0,0
111266.35,98.1434,-933.811,0,0
111526.675,99.1041,-931.669,0,0
111787.0,100.111,-929.719,0,0
112047.325,101.209,-927.631,0,0
112307.65,102.119,-925.836,0,0
112567.975,103.036,-924.036,0,0
112828.3,103.851,-922.164,0,0
113088.625,104.587,-920.394,0,0
113348.95,105.257,-918.722,0,0
113609.275,105.906,-916.949,0,0
113869.6,106.377,-915.347,0,0
114129.925,106.747,-913.596,0,0
114390.25,107.141,-911.801,0,0
114650.575,107.591,-910.063,0,0
114910.9,107.954,-908.426,0,0
115171.225,108.205,-906.832,0,0
115431.55,108.323,-905.283,0,0
115691.875,108.277,-903.597,0,0
115952.2,108.207,-901.947,0,0
116212.525,108.136,-900.218,0,0
116472.85,107.954,-898.504,0,0
116733.175,107.605,-896.706,0,0
116993.5,107.208,-894.843,0,0
117253.825,106.702,-892.83,0,0
117514.15,106.157,-890.665,0,0
117774.475,105.648,-888.309,0,0
118034.8,105.221,-885.752,0,0
118295.125,105.001,-883.084,0,0
118555.45,104.911,-880.408,0,0
118815.775,104.841,-877.596,0,0
119076.1,105.139,-874.487,0,0
119336.425,105.987,-871.467,0,0
119596.75,107.712,-868.903,0,0
119857.075,109.353,-867.441,0,0
120117.4,110.608,-866.683,0,0
120377.725,111.186,-866.367,0,0
120638.05,111.19,-866.124,0,0
120898.375,110.262,-865.992,0,0
121158.7,108.757,-865.162,0,0
121419.025,107.103,-863.677,0,0
121679.35,105.621,-861.765,0,0
121939.675,104.236,-859.623,0,0
122200.0,103.02,-857.28,0,0
122460,101.95,-854.835,0,0
122721,100.999,-852.199,0,0
122981,100.274,-849.675,0,0
123241,99.5647,-847.17,0,0
123502,98.8438,-844.67,0,0
123762,98.1623,-842.165,0,0
124022,97.5263,-839.553,0,0
124283,96.967,-836.983,0,0
124543,96.409,-834.386,0,0
124803,95.9429,-831.781,0,0
125064,95.6215,-829.183,0,0
125324,95.3351,-826.791,0,0
125584,94.8954,-824.449,0,0
125845,94.5159,-822.135,0,0
126105,94.0668,-819.954,0,0
126365,93.4642,-817.82,0,0
126626,92.6894,-815.636,0,0
126886,91.8943,-813.302,0,0
127146,91.1114,-810.904,0,0
127406,90.3299,-808.391,0,0
127667,89.5286,-806.067,0,0
127927,88.6969,-803.747,0,0
128187,87.6088,-801.512,0,0
128448,86.2788,-799.069,0,0
128708,84.9822,-796.337,0,0
128968,83.6789,-793.577,0,0
129229,82.3429,-790.615,0,0
129489,81.0063,-787.398,0,0
129749,79.817,-784.135,0,0
130010,78.5987,-780.688,0,0
130270,77.6075,-777.098,0,0
130530,76.7532,-773.52,0,0
130791,75.9285,-769.935,0,0
131051,75.14,-766.24,0,0
131311,74.4896,-762.499,0,0
131572,73.9871,-758.736,0,0
131832,73.5498,-755.006,0,0
132092,73.1135,-751.305,0,0
132353,72.7272,-747.486,0,0
132613,72.4735,-743.666,0,0
132873,72.3458,-739.856,0,0
133134,72.2589,-736.099,0,0
133394,72.193,-732.39,0,0
133654,72.1076,-728.627,0,0
133915,72.1055,-724.787,0,0
134175,72.2325,-720.986,0,0
134435,72.3711,-717.286,0,0
134696,72.6103,-713.533,0,0
134956,72.8137,-709.798,0,0
135216,73.0968,-706.011,0,0
135477,73.4677,-702.249,0,0
135737,73.9066,-698.553,0,0
135997,74.4024,-694.896,0,0
136258,74.927,-691.323,0,0
136518,75.4619,-687.701,0,0
136778,76.0915,-684.183,0,0
137039,76.7014,-680.768,0,0
137299,77.2261,-677.46,0,0
137559,77.5647,-674.121,0,0
137819,77.8854,-670.677,0,0
138080,78.1931,-667.109,0,0
138340.125,78.5517,-663.47,0,0
138600.45,78.9738,-659.749,0,0
138860.775,79.463,-656.038,0,0
139121.1,79.9715,-652.264,0,0
139381.425,80.599,-648.391,0,0
139641.75,81.3523,-644.609,0,0
139902.075,82.1221,-640.865,0,0
140162.4,82.8913,-637.079,0,0
140422.725,83.72,-633.244,0,0
140683.05,84.638,-629.397,0,0
140943.375,85.6622,-625.566,0,0
141203.7,86.755,-621.76,0,0
141464.025,87.8846,-618.07,0,0
141724.35,89.0145,-614.364,0,0
141984.675,90.2056,-610.643,0,0
142245.0,91.4195,-606.968,0,0
142505.325,92.6332,-603.31,0,0
142765.65,93.8614,-599.669,0,0
143025.975,95.1311,-595.955,0,0
143286.3,96.4918,-592.271,0,0
143546.625,97.8532,-588.689,0,0
143806.95,99.1866,-584.998,0,0
144067.275,100.564,-581.324,0,0
144327.6,101.989,-577.576,0,0
144587.925,103.503,-573.842,0,0
144848.25,105.051,-570.108,0,0
145108.575,106.643,-566.331,0,0
145368.9,108.34,-562.514,0,0
145629.225,110.185,-558.721,0,0
145889.55,112.063,-555.001,0,0
146149.875,113.955,-551.273,0,0
146410.2,115.981,-547.546,0,0
146670.525,118.085,-543.885,0,0
146930.85,120.199,-540.298,0,0
147191.175,122.315,-536.708,0,0
147451.5,124.482,-533.095,0,0
147711.825,126.691,-529.506,0,0
147972.15,128.967,-525.9,0,0
148232.475,131.305,-522.258,0,0
148492.8,133.773,-518.658,0,0
148753.125,136.281,-515.063,0,0
149013.45,138.91,-511.496,0,0
149273.775,141.542,-508.007,0,0
149534.1,144.13,-504.433,0,0
149794.425,146.899,-500.684,0,0
150054.75,149.938,-497,0,0
150315.075,153.152,-493.426,0,0
150575.4,156.442,-489.956,0,0
150835.725,159.829,-486.458,0,0
151096.05,163.422,-482.987,0,0
151356.375,167.256,-479.672,0,0
151616.7,171.226,-476.517,0,0
151877.025,175.26,-473.565,0,0
152137.35,179.386,-470.625,0,0
152397.675,183.882,-467.801,0,0
152658.0,188.623,-465.5,0,0
152918.325,193.152,-463.585,0,0
153178.65,197.633,-461.755,0,0
153438.975,202.234,-460.184,0,0
153699.3,206.734,-458.998,0,0
153959.625,211.044,-458.081,0,0
154219.95,215.169,-457.318,0,0
154480,219.206,-456.769,0,0
154741,222.757,-456.517,0,0
155001,225.737,-455.94,0,0
155261,228.912,-454.975,0,0
155522,232.314,-453.968,0,0
155782,235.962,-453.119,0,0
156042,239.441,-452.789,0,0
156303,242.552,-452.518,0,0
156563,245.425,-452.15,0,0
156823,247.984,-451.465,0,0
157084,250.768,-450.554,0,0
157344,253.618,-449.639,0,0
157604,256.418,-448.655,0,0
157864,259.33,-447.423,0,0
158125,262.523,-446.004,0,0
158385,266.276,-444.856,0,0
158645,269.962,-443.932,0,0
158906,273.643,-442.892,0,0
159166,278.205,-441.842,0,0
159426,283.266,-441.763,0,0
159687,287.757,-442.634,0,0
159947,291.871,-443.762,0,0
160207,295.704,-445.187,0,0
160468,299.02,-447.029,0,0
160728,301.87,-448.928,0,0
160988,304.142,-450.813,0,0
161249,305.773,-452.431,0,0
161509,307.065,-453.673,0,0
161769,308.488,-454.382,0,0
162030,309.863,-455.06,0,0
162290,311.239,-455.659,0,0
162550,312.457,-456.158,0,0
162811,313.469,-456.472,0,0
163071,314.35,-456.398,0,0
163331,315.388,-455.936,0,0
163592,316.712,-455.293,0,0
163852,318.027,-454.669,0,0
164112,319.268,-453.729,0,0
164373,320.836,-452.444,0,0
164633,322.945,-450.954,0,0
164893,325.332,-449.564,0,0
165154,327.887,-448.462,0,0
165414,330.361,-447.083,0,0
165674,333.281,-445.437,0,0
165935,336.729,-443.679,0,0
166195,340.917,-442.219,0,0
166455,345.451,-441.11,0,0
166716,350.414,-440.318,0,0
166976,356.062,-440.081,0,0
167236,361.942,-440.627,0,0
167497,367.833,-441.984,0,0
167757,373.539,-444.062,0,0
168017,379.182,-446.845,0,0
168277,384.41,-450.297,0,0
168538,389.109,-454.065,0,0
168798,393.667,-457.976,0,0
169058,398.382,-462.468,0,0
169319,402.783,-468.03,0,0
169579,406.098,-474.263,0,0
169839,408.814,-480.372,0,0
170100,411.369,-487.06,0,0
170360.075,413.026,-494.595,0,0
170620.4,413.469,-502.493,0,0
170880.725,412.615,-510.522,0,0
171141.05,410.356,-518.235,0,0
171401.375,407.06,-525.026,0,0
171661.7,403.433,-531.109,0,0
171922.025,399.233,-537.06,0,0
172182.35,394.033,-542.444,0,0
172442.675,388.245,-546.889,0,0
172703.0,382.162,-550.566,0,0
172963.325,375.503,-553.45,0,0
173223.65,368.678,-555.215,0,0
173483.975,361.898,-556.174,0,0
173744.3,355.095,-556.265,0,0
174004.625,348.695,-555.436,0,0
174264.95,342.613,-554.139,0,0
174525.275,336.724,-552.26,0,0
174785.6,331.259,-549.813,0,0
175045.925,326.118,-547.072,0,0
175306.25,321.083,-543.889,0,0
175566.575,316.43,-540.013,0,0
175826.9,312.46,-535.699,0,0
176087.225,309.003,-531.263,0,0
176347.55,305.969,-526.598,0,0
176607.875,303.538,-521.77,0,0
176868.2,301.546,-516.974,0,0
177128.525,299.996,-512.187,0,0
177388.85,298.795,-507.51,0,0
177649.175,297.917,-502.889,0,0
177909.5,297.383,-498.375,0,0
178169.825,297.02,-494.091,0,0
178430.15,296.754,-489.855,0,0
178690.475,296.585,-485.648,0,0
178950.8,296.617,-481.426,0,0
179211.125,296.903,-477.196,0,0
179471.45,297.442,-473.06,0,0
179731.775,298.199,-469.131,0,0
179992.1,299.043,-465.479,0,0
180252.425,299.882,-461.913,0,0
180512.75,300.719,-458.474,0,0
180773.075,301.544,-455.101,0,0
181033.4,302.346,-451.754,0,0
181293.725,303.162,-448.441,0,0
181554.05,303.955,-445.177,0,0
181814.375,304.701,-441.893,0,0
182074.7,305.415,-438.6,0,0
182335.025,306.084,-435.243,0,0
182595.35,306.692,-431.804,0,0
182855.675,307.27,-428.22,0,0
183116.0,307.866,-424.473,0,0
183376.325,308.537,-420.541,0,0
183636.65,309.278,-416.455,0,0
183896.975,310.15,-412.186,0,0
184157.3,311.201,-407.777,0,0
184417.625,312.435,-403.254,0,0
184677.95,313.826,-398.644,0,0
184938.275,315.347,-393.957,0,0
185198.6,317.112,-389.098,0,0
185458.925,319.134,-384.247,0,0
185719.25,321.311,-379.431,0,0
185979.575,323.55,-374.583,0,0
186239.9,325.952,-369.579,0,0
186500,328.482,-364.5,0,0
186761,331.298,-359.363,0,0
187021,334.286,-354.086,0,0
187281,337.532,-348.764,0,0
187542,340.98,-343.479,0,0
187802,344.679,-338.021,0,0
188062,348.688,-332.518,0,0
188322,352.986,-327.043,0,0
188583,357.577,-321.605,0,0
188843,362.397,-316.079,0,0
189103,367.517,-310.618,0,0
189364,372.987,-305.143,0,0
189624,378.809,-299.636,0,0
189884,384.963,-294.234,0,0
190145,391.574,-288.891,0,0
190405,398.547,-283.749,0,0
190665,405.845,-278.81,0,0
190926,413.38,-274.016,0,0
191186,421.251,-269.362,0,0
191446,429.49,-264.875,0,0
191707,438.199,-260.501,0,0
191967,447.14,-256.54,0,0
192227,456.589,-252.752,0,0
192488,466.338,-249.432,0,0
192748,476.223,-246.386,0,0
193008,486.591,-243.832,0,0
193269,497.026,-241.657,0,0
193529,507.653,-239.867,0,0
193789,518.528,-238.402,0,0
194050,529.537,-237.279,0,0
194310,540.629,-236.683,0,0
194570,551.85,-236.436,0,0
194831,563.1,-236.45,0,0
195091,574.496,-236.813,0,0
195351,585.95,-237.421,0,0
195612,597.572,-238.231,0,0
195872,609.504,-239.317,0,0
196132,621.687,-240.748,0,0
196393,634.245,-242.625,0,0
196653,647.039,-244.936,0,0
196913,660.11,-247.72,0,0
197174,673.585,-251.056,0,0
197434,687.36,-255.162,0,0
197694,701.309,-260.029,0,0
197955,715.413,-265.729,0,0
198215,729.57,-272.245,0,0
198475,743.695,-279.51,0,0
198735,758.062,-287.684,0,0
198996,772.401,-296.957,0,0
199256,786.593,-307.481,0,0
199516,800.319,-319.294,0,0
199777,813.266,-332.249,0,0
200037,825.565,-346.157,0,0
200297,836.974,-360.99,0,0
200558,847.46,-376.731,0,0
200818,856.704,-393.313,0,0
201078,864.604,-410.285,0,0
201339,871.524,-427.573,0,0
201599,877.245,-445.26,0,0
201859,881.604,-463.098,0,0
202120,884.561,-480.626,0,0
202380.025,886.902,-497.693,0,0
202640.35,888.104,-514.576,0,0
202900.675,888.5,-531.011,0,0
203161.0,888.641,-546.653,0,0
203421.325,888.825,-562.499,0,0
203681.65,888.344,-578.927,0,0
203941.975,886.579,-595.599,0,0
204202.3,883.548,-611.783,0,0
204462.625,879.421,-626.939,0,0
204722.95,875.131,-641.324,0,0
204983.275,870.806,-655.332,0,0
205243.6,865.885,-669.137,0,0
205503.925,860.342,-682.392,0,0
205764.25,854.765,-694.851,0,0
206024.575,849.266,-707.005,0,0
206284.9,843.697,-719.146,0,0
206545.225,837.913,-731.265,0,0
206805.55,832.121,-743.384,0,0
207065.875,825.867,-756.087,0,0
207326.2,818.406,-769.138,0,0
207586.525,809.705,-781.757,0,0
207846.85,799.729,-793.621,0,0
208107.175,789.017,-804.446,0,0
208367.5,778.015,-814.199,0,0
208627.825,766.645,-823.276,0,0
208888.15,754.688,-831.341,0,0
209148.475,742.527,-838.192,0,0
209408.8,730.563,-843.736,0,0
209669.125,718.952,-848.53,0,0
209929.45,707.656,-852.743,0,0
210189.775,696.569,-856.297,0,0
210450.1,685.796,-859.194,0,0
210710.425,675.156,-861.46,0,0
210970.75,665.005,-863.119,0,0
211231.075,655.152,-864.296,0,0
211491.4,645.863,-865.057,0,0
211751.725,636.846,-865.465,0,0
212012.05,628.323,-865.314,0,0
212272.375,620.354,-864.918,0,0
212532.7,613.147,-864.192,0,0
212793.025,606.377,-863.81,0,0
213053.35,599.557,-863.746,0,0
213313.675,592.732,-863.035,0,0
213574.0,586.448,-861.857,0,0
213834.325,580.685,-860.361,0,0
214094.65,575.716,-858.697,0,0
214354.975,571.604,-857.075,0,0
214615.3,568.266,-856.082,0,0
214875.625,565.353,-855.642,0,0
215135.95,562.649,-855.815,0,0
215396.275,560.019,-856.649,0,0
215656.6,557.06,-858.026,0,0
215916.925,553.854,-859.846,0,0
216177.25,550.071,-861.904,0,0
216437.575,545.684,-863.917,0,0
216697.9,540.985,-865.473,0,0
216958.225,536.256,-866.568,0,0
217218.55,531.806,-867.367,0,0
217478.875,527.691,-868.175,0,0
217739.2,523.643,-869.174,0,0
217999.525,519.56,-870.302,0,0
218259.85,515.487,-871.359,0,0
218520,511.327,-872.495,0,0
218780,507.186,-873.492,0,0
219041,503.219,-874.56,0,0
219301,499.264,-875.773,0,0
219561,495.141,-877.227,0,0
219822,490.86,-878.573,0,0
220082,486.452,-879.908,0,0
220342,481.905,-881.466,0,0
220603,476.998,-882.664,0,0
220863,471.973,-883.582,0,0
221123,467.104,-884.26,0,0
221384,462.277,-884.828,0,0
221644,457.658,-885.473,0,0
221904,452.901,-886.107,0,0
222165,448.09,-886.639,0,0
222425,443.174,-887.036,0,0
222685,438.407,-887.246,0,0
222946,433.659,-887.365,0,0
223206,429.056,-887.53,0,0
223466,424.505,-887.633,0,0
223727,420.042,-887.738,0,0
223987,415.647,-887.938,0,0
224247,411.204,-888.219,0,0
224508,406.57,-888.636,0,0
224768,401.839,-889.184,0,0
225028,396.888,-889.447,0,0
225289,391.725,-889.733,0,0
225549,386.491,-889.949,0,0
225809,381.024,-889.947,0,0
226070,375.584,-889.842,0,0
226330,369.801,-889.497,0,0
226590,364.115,-888.878,0,0
226851,358.455,-888.073,0,0
227111,352.71,-887.051,0,0
227371,346.848,-885.839,0,0
227632,341.092,-884.364,0,0
227892,335.25,-882.646,0,0
228152,329.364,-880.624,0,0
228413,323.611,-878.255,0,0
228673,318.09,-875.502,0,0
228933,312.763,-872.507,0,0
229193,307.779,-869.371,0,0
229454,302.993,-866.04,0,0
229714,298.586,-862.674,0,0
229974,294.295,-859.18,0,0
230235,290.231,-855.779,0,0
230495,286.307,-852.182,0,0
230755,282.513,-848.587,0,0
231016,279.032,-844.901,0,0
231276,275.757,-841.283,0,0
231536,272.607,-837.623,0,0
231797,269.623,-834.058,0,0
232057,266.806,-830.443,0,0
232317,264.078,-826.872,0,0
232578,261.472,-823.299,0,0
232838,259.036,-819.701,0,0
233098,256.815,-816.079,0,0
233359,254.731,-812.591,0,0
233619,252.772,-809.174,0,0
233879,250.855,-805.781,0,0
234140,249.076,-802.432,0,0
234400,247.433,-799.176,0,0
234660.3,245.835,-795.924,0,0
234920.625,244.428,-792.672,0,0
235180.95,243.107,-789.615,0,0
235441.275,241.83,-786.74,0,0
235701.6,240.53,-783.87,0,0
235961.925,239.21,-781.045,0,0
236222.25,237.886,-778.212,0,0
236482.575,236.594,-775.311,0,0
236742.9,235.395,-772.38,0,0
237003.225,234.292,-769.44,0,0
237263.55,233.25,-766.485,0,0
237523.875,232.395,-763.491,0,0
237784.2,231.728,-760.542,0,0
238044.525,231.24,-757.699,0,0
238304.85,230.944,-755.01,0,0
238565.175,230.671,-752.505,0,0
238825.5,230.387,-750.159,0,0
239085.825,230.198,-747.851,0,0
239346.15,230.074,-745.772,0,0
239606.475,229.832,-743.834,0,0
239866.8,229.674,-741.951,0,0
240127.125,229.372,-740.16,0,0
240387.45,229.093,-738.473,0,0
240647.775,228.843,-736.836,0,0
240908.1,228.49,-735.307,0,0
241168.425,228.155,-733.812,0,0
241428.75,227.788,-732.445,0,0
241689.075,227.327,-731.138,0,0
241949.4,226.799,-729.88,0,0
242209.725,226.268,-728.658,0,0
242470.05,225.637,-727.564,0,0
242730.375,224.877,-726.419,0,0
242990.7,224.002,-725.313,0,0
243251.025,223.129,-724.185,0,0
243511.35,222.133,-723.037,0,0
243771.675,221.061,-721.878,0,0
244032.0,219.927,-720.751,0,0
244292.325,218.644,-719.452,0,0
244552.65,217.282,-718.107,0,0
244812.975,215.855,-716.617,0,0
245073.3,214.501,-714.977,0,0
245333.625,213.142,-713.24,0,0
245593.95,211.902,-711.384,0,0
245854.275,210.727,-709.48,0,0
246114.6,209.65,-707.517,0,0
246374.925,208.574,-705.536,0,0
246635.25,207.594,-703.511,0,0
246895.575,206.66,-701.393,0,0
247155.9,205.862,-699.238,0,0
247416.225,205.302,-697.124,0,0
247676.55,204.805,-695.135,0,0
247936.875,204.325,-693.262,0,0
248197.2,203.863,-691.485,0,0
248457.525,203.299,-689.764,0,0
248717.85,202.709,-688.036,0,0
248978.175,202.143,-686.241,0,0
249238.5,201.597,-684.451,0,0
249498.825,201.149,-682.68,0,0
249759.15,200.703,-680.965,0,0
250019.475,200.283,-679.347,0,0
250279.8,199.824,-677.773,0,0
250540,199.292,-676.274,0,0
250800,198.737,-674.821,0,0
251061,198.075,-673.373,0,0
251321,197.369,-671.947,0,0
251581,196.546,-670.549,0,0
251842,195.533,-669.087,0,0
252102,194.423,-667.498,0,0
252362,193.27,-665.81,0,0
252623,191.947,-663.895,0,0
252883,190.644,-661.805,0,0
253143,189.389,-659.496,0,0
253404,188.23,-656.997,0,0
253664,187.254,-654.342,0,0
253924,186.398,-651.684,0,0
254185,185.601,-648.967,0,0
254445,184.867,-646.237,0,0
254705,184.112,-643.379,0,0
254966,183.452,-640.339,0,0
255226,182.819,-637.16,0,0
255486,182.372,-633.84,0,0
255747,182.07,-630.31,0,0
256007,182.017,-626.632,0,0
256267,182.239,-622.863,0,0
256528,182.711,-619.135,0,0
256788,183.416,-615.358,0,0
257048,184.326,-611.575,0,0
257309,185.508,-607.773,0,0
257569,186.975,-604.033,0,0
257829,188.717,-600.387,0,0
258090,190.62,-596.9,0,0
258350,192.666,-593.45,0,0
258610,194.954,-589.992,0,0
258871,197.575,-586.569,0,0
259131,200.61,-583.4,0,0
259391,203.913,-580.609,0,0
259651,207.259,-578.141,0,0
259912,210.645,-575.94,0,0
260172,214.013,-573.933,0,0
260432,217.379,-571.928,0,0
260693,220.973,-570.043,0,0
260953,224.799,-568.33,0,0
261213,228.859,-566.915,0,0
261474,233.054,-565.885,0,0
261734,237.208,-565.248,0,0
261994,241.258,-564.871,0,0
262255,245.239,-564.605,0,0
262515,249.259,-564.427,0,0
262775,253.522,-564.423,0,0
263036,257.969,-564.815,0,0
263296,262.456,-565.647,0,0
263556,266.927,-566.923,0,0
263817,271.144,-568.68,0,0
264077,275.202,-570.752,0,0
264337,279.001,-573.132,0,0
264598,282.665,-575.735,0,0
264858,286.11,-578.67,0,0
265118,289.166,-581.95,0,0
265379,291.793,-585.274,0,0
265639,294.178,-588.668,0,0
265899,296.376,-592.082,0,0
266160,298.432,-595.578,0,0
266420,300.286,-599.322,0,0
266680.25,301.858,-603.183,0,0
266940.575,303.161,-607.019,0,0
267200.9,304.419,-610.998,0,0
267461.225,305.515,-615.182,0,0
267721.55,306.188,-619.697,0,0
267981.875,306.418,-624.279,0,0
268242.2,306.295,-628.93,0,0
268502.525,305.736,-633.737,0,0
268762.85,304.566,-638.532,0,0
269023.175,302.766,-643.203,0,0
269283.5,300.334,-647.583,0,0
269543.825,297.363,-651.379,0,0
269804.15,294.156,-654.359,0,0
270064.475,291.018,-656.683,0,0
270324.8,288.111,-658.642,0,0
270585.125,285.485,-660.314,0,0
270845.45,283.047,-661.785,0,0
271105.775,280.807,-663.161,0,0
271366.1,278.754,-664.588,0,0
271626.425,276.673,-665.991,0,0
271886.75,274.695,-667.36,0,0
272147.075,272.931,-668.739,0,0
272407.4,271.152,-670.483,0,0
272667.725,269.201,-672.26,0,0
272928.05,267.019,-674.134,0,0
273188.375,264.663,-675.874,0,0
273448.7,262.265,-677.581,0,0
273709.025,259.74,-679.291,0,0
273969.35,257.022,-681.013,0,0
274229.675,254.115,-682.653,0,0
274490.0,251.046,-684.231,0,0
274750.325,247.672,-685.779,0,0
275010.65,243.954,-687.116,0,0
275270.975,240.008,-688.09,0,0
275531.3,235.939,-688.694,0,0
275791.625,231.917,-688.897,0,0
276051.95,227.906,-688.947,0,0
276312.275,223.851,-688.782,0,0
276572.6,219.723,-688.393,0,0
276832.925,215.486,-687.633,0,0
277093.25,211.216,-686.489,0,0
277353.575,207.022,-684.863,0,0
277613.9,203.032,-682.815,0,0
277874.225,199.311,-680.393,0,0
278134.55,195.921,-677.616,0,0
278394.875,192.893,-674.522,0,0
278655.2,190.369,-671.197,0,0
278915.525,188.363,-667.767,0,0
279175.85,186.88,-664.377,0,0
279436.175,185.886,-661.091,0,0
279696.5,185.368,-658.075,0,0
279956.825,185.089,-655.355,0,0
280217.15,185.069,-653.037,0,0
280477.475,185.083,-651.151,0,0
280737.8,185.062,-649.564,0,0
280998.125,184.896,-648.187,0,0
281258.45,184.56,-646.917,0,0
281518.775,184.038,-645.66,0,0
281779.1,183.44,-644.324,0,0
282039.425,182.841,-642.826,0,0
282299.75,182.385,-641.221,0,0
282560,182.16,-639.593,0,0
282820,182.136,-638.05,0,0
283081,182.29,-636.727,0,0
283341,182.56,-635.654,0,0
283601,182.817,-634.891,0,0
283862,182.917,-634.348,0,0
284122,182.811,-633.941,0,0
284382,182.501,-633.575,0,0
284643,182.052,-633.214,0,0
284903,181.547,-632.798,0,0
285163,180.913,-632.482,0,0
285424,180.076,-632.117,0,0
285684,179.148,-631.724,0,0
285944,178.056,-631.229,0,0
286205,176.775,-630.62,0,0
286465,175.38,-629.713,0,0
286725,174.06,-628.534,0,0
286986,172.874,-627.208,0,0
287246,171.762,-625.841,0,0
287506,170.619,-624.401,0,0
287767,169.426,-622.768,0,0
288027,168.312,-620.887,0,0
288287,167.305,-618.704,0,0
288548,166.475,-616.32,0,0
288808,165.952,-613.65,0,0
289068,165.859,-610.819,0,0
289329,166.225,-607.926,0,0
289589,167.024,-605.14,0,0
289849,168.253,-602.538,0,0
290109,169.816,-600.187,0,0
290370,171.677,-598.121,0,0
290630,173.729,-596.387,0,0
290890,175.994,-594.956,0,0
291151,178.392,-593.865,0,0
291411,180.884,-593.137,0,0
291671,183.462,-592.768,0,0
291932,186.046,-592.796,0,0
292192,188.595,-593.245,0,0
292452,191.074,-594.07,0,0
292713,193.389,-595.328,0,0
292973,195.442,-596.961,0,0
293233,197.178,-598.909,0,0
293494,198.529,-601.079,0,0
293754,199.524,-603.382,0,0
294014,200.216,-605.77,0,0
294275,200.632,-608.249,0,0
294535,200.719,-610.836,0,0
294795,200.448,-613.473,0,0
295056,199.781,-616.097,0,0
295316,198.744,-618.64,0,0
295576,197.366,-621.057,0,0
295837,195.661,-623.254,0,0
296097,193.652,-625.228,0,0
296357,191.412,-626.883,0,0
296618,189.034,-628.195,0,0
296878,186.597,-629.171,0,0
297138,184.197,-629.853,0,0
297399,181.835,-630.29,0,0
297659,179.561,-630.574,0,0
297919,177.343,-630.66,0,0
298180,175.213,-630.606,0,0
298440,173.194,-630.437,0,0
298700.2,171.302,-630.177,0,0
298960.525,169.499,-629.898,0,0
299220.85,167.747,-629.628,0,0
299481.175,166.028,-629.318,0,0
299741.5,164.336,-629.002,0,0
300001.825,162.599,-628.634,0,0
300262.15,160.91,-628.227,0,0
300522.475,159.205,-627.775,0,0
300782.8,157.502,-627.273,0,0
301043.125,155.808,-626.707,0,0
301303.45,154.111,-626.066,0,0
301563.775,152.473,-625.327,0,0
301824.1,150.881,-624.525,0,0
302084.425,149.385,-623.669,0,0
302344.75,147.95,-622.8,0,0
302605.075,146.564,-621.963,0,0
302865.4,145.173,-621.151,0,0
303125.725,143.757,-620.282,0,0
303386.05,142.322,-619.367,0,0
303646.375,140.928,-618.373,0,0
303906.7,139.578,-617.294,0,0
304167.025,138.296,-616.204,0,0
304427.35,137.042,-615.037,0,0
304687.675,135.864,-613.847,0,0
304948.0,134.753,-612.607,0,0
305208.325,133.741,-611.343,0,0
305468.65,132.792,-610.06,0,0
305728.975,131.927,-608.847,0,0
305989.3,131.066,-607.602,0,0
306249.625,130.267,-606.361,0,0
306509.95,129.535,-605.084,0,0
306770.275,128.903,-603.824,0,0
307030.6,128.348,-602.596,0,0
307290.925,127.874,-601.414,0,0
307551.25,127.447,-600.317,0,0
307811.575,127.058,-599.27,0,0
308071.9,126.698,-598.252,0,0
308332.225,126.373,-597.316,0,0
308592.55,126.097,-596.456,0,0
308852.875,125.819,-595.697,0,0
309113.2,125.501,-595.045,0,0
309373.525,125.114,-594.425,0,0
309633.85,124.66,-593.864,0,0
309894.175,124.139,-593.326,0,0
310154.5,123.528,-592.771,0,0
310414.825,122.843,-592.223,0,0
310675.15,122.112,-591.606,0,0
310935.475,121.366,-590.89,0,0
311195.8,120.59,-590.141,0,0
311456.125,119.856,-589.335,0,0
311716.45,119.135,-588.489,0,0
311976.775,118.472,-587.587,0,0
312237.1,117.842,-586.699,0,0
312497.425,117.229,-585.814,0,0
312757.75,116.612,-584.932,0,0
313018.075,116.044,-583.983,0,0
313278.4,115.504,-583.017,0,0
313538.725,115.02,-582.057,0,0
313799.05,114.608,-581.084,0,0
314059.375,114.24,-580.158,0,0
314319.7,113.91,-579.261,0,0
314580,113.588,-578.427,0,0
314840,113.361,-577.582,0,0
315101,113.068,-576.871,0,0
315361,112.776,-576.098,0,0
315621,112.614,-575.414,0,0
315882,112.357,-574.667,0,0
316142,112.041,-574.054,0,0
316402,111.852,-573.524,0,0
316663,111.485,-572.863,0,0
316923,111.329,-572.3,0,0
317183,111.007,-571.831,0,0
317444,110.731,-571.313,0,0
317704,110.415,-570.918,0,0
317964,110.168,-570.49,0,0
318225,109.75,-570.205,0,0
318485,109.393,-569.745,0,0
318745,109.046,-569.438,0,0
319006,108.702,-569.126,0,0
319266,108.156,-568.979,0,0
319526,107.68,-568.789,0,0
319787,107.102,-568.667,0,0
320047,106.383,-568.488,0,0
320307,105.627,-568.4,0,0
320567,104.821,-568.256,0,0
320828,103.938,-568.017,0,0
321088,102.926,-567.863,0,0
321348,101.92,-567.641,0,0
321609,100.73,-567.357,0,0
321869,99.4819,-567.067,0,0
322129,98.0641,-566.561,0,0
322390,96.647,-565.905,0,0
322650,95.1548,-565.236,0,0
322910,93.7409,-564.335,0,0
323171,92.2774,-563.254,0,0
323431,90.9644,-562.001,0,0
323691,89.6898,-560.762,0,0
323952,88.5333,-559.362,0,0
324212,87.5727,-557.885,0,0
324472,86.6804,-556.423,0,0
324733,85.9027,-554.969,0,0
324993,85.1547,-553.547,0,0
325253,84.519,-552.196,0,0
325514,83.9522,-550.803,0,0
325774,83.4124,-549.531,0,0
326034,82.8445,-548.208,0,0
326295,82.2692,-546.92,0,0
326555,81.6897,-545.688,0,0
326815,81.126,-544.368,0,0
327076,80.635,-543.075,0,0
327336,80.0923,-541.657,0,0
327596,79.5949,-540.189,0,0
327857,79.1662,-538.859,0,0
328117,78.8,-537.391,0,0
328377,78.4016,-535.986,0,0
328638,78.1385,-534.456,0,0
328898,77.9261,-532.995,0,0
329158,77.6984,-531.558,0,0
329419,77.6475,-530.134,0,0
329679,77.5967,-528.649,0,0
329939,77.6029,-527.213,0,0
330200,77.7268,-525.857,0,0
330460,77.8735,-524.476,0,0
330720.15,78.1227,-523.252,0,0
330980.475,78.359,-522.069,0,0
331240.8,78.7121,-520.963,0,0
331501.125,78.9854,-519.887,0,0
331761.45,79.2931,-518.916,0,0
332021.775,79.6244,-518.011,0,0
332282.1,79.9747,-517.207,0,0
332542.425,80.2811,-516.507,0,0
332802.75,80.556,-515.829,0,0
333063.075,80.6882,-515.219,0,0
333323.4,80.845,-514.7,0,0
333583.725,80.8806,-514.258,0,0
333844.05,80.7371,-513.658,0,0
334104.375,80.6626,-513.128,0,0
334364.7,80.4627,-512.601,0,0
334625.025,80.2981,-512.066,0,0
334885.35,80.0186,-511.439,0,0
335145.675,79.7199,-510.846,0,0
335406.0,79.4184,-510.179,0,0
335666.325,79.0552,-509.472,0,0
335926.65,78.6025,-508.734,0,0
336186.975,78.1575,-507.878,0,0
336447.3,77.6711,-506.982,0,0
336707.625,77.2354,-506.007,0,0
336967.95,76.8328,-504.912,0,0
337228.275,76.4961,-503.786,0,0
337488.6,76.2212,-502.658,0,0
337748.925,75.9887,-501.41,0,0
338009.25,75.8148,-500.298,0,0
338269.575,75.6982,-499.07,0,0
338529.9,75.5619,-497.839,0,0
338790.225,75.5029,-496.595,0,0
339050.55,75.5321,-495.447,0,0
339310.875,75.4805,-494.04,0,0
339571.2,75.5771,-492.77,0,0
339831.525,75.732,-491.424,0,0
340091.85,75.9686,-490.148,0,0
340352.175,76.2916,-488.838,0,0
340612.5,76.6764,-487.557,0,0
340872.825,77.1607,-486.256,0,0
341133.15,77.6738,-485.028,0,0
341393.475,78.3801,-483.853,0,0
341653.8,79.0962,-482.733,0,0
341914.125,79.8893,-481.747,0,0
342174.45,80.7039,-480.846,0,0
342434.775,81.6546,-479.995,0,0
342695.1,82.5942,-479.352,0,0
342955.425,83.5218,-478.789,0,0
343215.75,84.4278,-478.356,0,0
343476.075,85.2824,-478.054,0,0
343736.4,86.099,-477.771,0,0
343996.725,86.8084,-477.666,0,0
344257.05,87.5168,-477.611,0,0
344517.375,88.0815,-477.606,0,0
344777.7,88.6231,-477.679,0,0
345038.025,89.0416,-477.83,0,0
345298.35,89.3469,-477.901,0,0
345558.675,89.6333,-477.982,0,0
345819.0,89.7584,-478.139,0,0
346079.325,89.8772,-478.318,0,0
346339.65,89.9771,-478.445,0,0
346599.975,89.8948,-478.501,0,0
346860,89.7419,-478.68,0,0
347121,89.6425,-478.635,0,0
347381,89.4015,-478.644,0,0
347641,89.1804,-478.596,0,0
347902,88.9197,-478.584,0,0
348162,88.5826,-478.499,0,0
348422,88.2329,-478.322,0,0
348683,87.8182,-478.185,0,0
348943,87.3904,-477.898,0,0
349203,87.0296,-477.616,0,0
349464,86.5865,-477.329,0,0
349724,86.2229,-476.939,0,0
349984,85.7406,-476.552,0,0
350245,85.3869,-476.07,0,0
350505,84.9587,-475.664,0,0
350765,84.5585,-475.181,0,0
351025,84.2044,-474.725,0,0
351286,83.7001,-474.157,0,0
351546,83.3353,-473.526,0,0
351806,82.9064,-472.89,0,0
352067,82.5618,-472.228,0,0
352327,82.2365,-471.481,0,0
352587,81.9338,-470.736,0,0
352848,81.6743,-469.91,0,0
353108,81.4816,-469.201,0,0
353368,81.3658,-468.33,0,0
353629,81.3089,-467.5,0,0
353889,81.3183,-466.779,0,0
354149,81.3978,-466.053,0,0
354410,81.4262,-465.417,0,0
354670,81.4242,-464.857,0,0
354930,81.5163,-464.269,0,0
355191,81.5398,-463.743,0,0
355451,81.4762,-463.288,0,0
355711,81.4936,-462.784,0,0
355972,81.4487,-462.262,0,0
356232,81.4037,-461.744,0,0
356492,81.2773,-461.282,0,0
356753,81.1858,-460.821,0,0
357013,81.1019,-460.35,0,0
357273,80.9934,-459.883,0,0
357534,80.8128,-459.385,0,0
357794,80.6064,-458.893,0,0
358054,80.4057,-458.379,0,0
358315,80.1694,-457.821,0,0
358575,79.9541,-457.242,0,0
358835,79.6858,-456.629,0,0
359096,79.4287,-455.988,0,0
359356,79.2036,-455.286,0,0
359616,79.0172,-454.609,0,0
359877,78.8299,-453.849,0,0
360137,78.6364,-453.117,0,0
360397,78.4308,-452.314,0,0
360658,78.3787,-451.467,0,0
360918,78.209,-450.598,0,0
361178,78.2247,-449.673,0,0
361438,78.2644,-448.814,0,0
361699,78.3813,-447.985,0,0
361959,78.4896,-447.182,0,0
362219,78.6434,-446.361,0,0
362480,78.8365,-445.656,0,0
362740.1,78.9473,-444.958,0,0
363000.425,79.1172,-444.285,0,0
363260.75,79.299,-443.648,0,0
363521.075,79.4125,-443.009,0,0
363781.4,79.5232,-442.434,0,0
364041.725,79.6692,-441.798,0,0
364302.05,79.7819,-441.199,0,0
364562.375,79.8534,-440.647,0,0
364822.7,79.8487,-440.029,0,0
365083.025,79.8571,-439.356,0,0
365343.35,79.8202,-438.709,0,0
365603.675,79.8047,-437.935,0,0
365864.0,79.7604,-437.119,0,0
366124.325,79.7809,-436.292,0,0
366384.65,79.8678,-435.328,0,0
366644.975,80.0161,-434.377,0,0
366905.3,80.2475,-433.387,0,0
367165.625,80.5271,-432.441,0,0
367425.95,80.8647,-431.553,0,0
367686.275,81.2771,-430.599,0,0
367946.6,81.7042,-429.712,0,0
368206.925,82.2195,-428.793,0,0
368467.25,82.7833,-427.848,0,0
368727.575,83.4368,-426.988,0,0
368987.9,84.1204,-426.168,0,0
369248.225,84.9034,-425.418,0,0
369508.55,85.6928,-424.75,0,0
369768.875,86.4906,-424.085,0,0
370029.2,87.3191,-423.47,0,0
370289.525,88.2612,-422.891,0,0
370549.85,89.1173,-422.37,0,0
370810.175,90.1595,-421.836,0,0
371070.5,91.2125,-421.463,0,0
371330.825,92.3075,-421.237,0,0
371591.15,93.4386,-421.091,0,0
371851.475,94.5379,-421.042,0,0
372111.8,95.6495,-421.192,0,0
372372.125,96.7301,-421.419,0,0
372632.45,97.7068,-421.78,0,0
372892.775,98.6076,-422.27,0,0
373153.1,99.4437,-422.851,0,0
373413.425,100.156,-423.511,0,0
373673.75,100.734,-424.215,0,0
373934.075,101.205,-425.001,0,0
374194.4,101.48,-425.793,0,0
374454.725,101.611,-426.593,0,0
374715.05,101.611,-427.307,0,0
374975.375,101.495,-427.935,0,0
375235.7,101.241,-428.485,0,0
375496.025,101.062,-428.912,0,0
375756.35,100.81,-429.221,0,0
376016.675,100.572,-429.509,0,0
376277.0,100.316,-429.776,0,0
376537.325,100.173,-429.957,0,0
376797.65,99.9835,-430.173,0,0
377057.975,99.7205,-430.426,0,0
377318.3,99.5383,-430.569,0,0
377578.625,99.3578,-430.67,0,0
377838.95,99.1425,-430.847,0,0
378099.275,98.9191,-430.993,0,0
378359.6,98.6703,-431.11,0,0
378619.925,98.4103,-431.249,0,0
378880,98.1487,-431.404,0,0
379141,97.8878,-431.486,0,0
379401,97.5476,-431.659,0,0
379661,97.2485,-431.65,0,0
379922,96.8949,-431.738,0,0
380182,96.5478,-431.726,0,0
380442,96.1846,-431.673,0,0
380703,95.7977,-431.664,0,0
380963,95.4107,-431.532,0,0
381223,95.0663,-431.314,0,0
381483,94.7497,-431.098,0,0
381744,94.5474,-430.779,0,0
382004,94.4587,-430.493,0,0
382264,94.5781,-430.237,0,0
382525,94.6751,-430.121,0,0
382785,94.8895,-430.139,0,0
383045,95.0627,-430.298,0,0
383306,95.197,-430.617,0,0
383566,95.2346,-431.055,0,0
383826,95.1917,-431.616,0,0
384087,94.9169,-432.144,0,0
384347,94.4809,-432.721,0,0
384607,93.9444,-433.355,0,0
384868,93.3088,-433.958,0,0
385128,92.5143,-434.417,0,0
385388,91.618,-434.792,0,0
385649,90.5561,-435.127,0,0
385909,89.4428,-435.295,0,0
386169,88.3121,-435.381,0,0
386430,87.1279,-435.301,0,0
386690,85.9273,-435.053,0,0
386950,84.7211,-434.688,0,0
387211,83.6094,-434.185,0,0
387471,82.4971,-433.561,0,0
387731,81.5145,-432.817,0,0
387992,80.5734,-431.997,0,0
388252,79.7891,-431.054,0,0
388512,79.1423,-430.106,0,0
388773,78.5949,-429.093,0,0
389033,78.1986,-428.091,0,0
389293,77.8672,-427.069,0,0
389554,77.7357,-426.088,0,0
389814,77.7423,-425.195,0,0
390074,77.8919,-424.431,0,0
390335,78.0936,-423.746,0,0
390595,78.3284,-423.257,0,0
390855,78.5644,-422.933,0,0
391116,78.75,-422.726,0,0
391376,78.9065,-422.673,0,0
391636,78.9343,-422.798,0,0
391896,78.8834,-422.959,0,0
392157,78.6123,-423.172,0,0
392417,78.17,-423.434,0,0
392677,77.6594,-423.617,0,0
392938,76.9396,-423.712,0,0
393198,76.0869,-423.776,0,0
393458,75.2229,-423.689,0,0
393719,74.3223,-423.484,0,0
393979,73.3597,-423.257,0,0
394239,72.3904,-422.809,0,0
394500,71.4463,-422.328,0,0
394760.05,70.5085,-421.738,0,0
395020.375,69.6471,-421.043,0,0
395280.7,68.817,-420.267,0,0
395541.025,68.0272,-419.493,0,0
395801.35,67.3349,-418.655,0,0
396061.675,66.6819,-417.734,0,0
396322.0,66.0561,-416.875,0,0
396582.325,65.5675,-415.986,0,0
396842.65,65.0456,-415.119,0,0
397102.975,64.5733,-414.266,0,0
397363.3,64.0666,-413.362,0,0
397623.625,63.6203,-412.475,0,0
397883.95,63.1656,-411.553,0,0
398144.275,62.775,-410.637,0,0
398404.6,62.3759,-409.745,0,0
398664.925,61.9892,-408.77,0,0
398925.25,61.6458,-407.806,0,0
399185.575,61.297,-406.841,0,0
399445.9,61.0637,-405.816,0,0
399706.225,60.7522,-404.794,0,0
399966.55,60.5421,-403.789,0,0
400006.6,60.5147,-403.627,0,0