File: Accelerated corrosion test data/2025-10-16_18-00-04/sample_7.csv
Frequency (Hz),Impedance (ohms),Phase (Radians),Temperature (C),Humidity (%)
10000.0,272.913,-12077,0,0
10260.325,269.185,-11786.7,0,0
10520.65,257.528,-11488.1,0,0
10780.975,252.045,-11207.3,0,0
11041.3,249.617,-10940.2,0,0
11301.625,246.56,-10684.4,0,0
11561.95,249.83,-10435.7,0,0
11822.275,259.761,-10203.9,0,0
12082.6,268.573,-9979.93,0,0
12342.925,317.678,-9830.38,0,0
12603.25,256.01,-9633.46,0,0
12863.575,266.946,-9452.23,0,0
13123.9,235.981,-9263.9,0,0
13384.225,226.951,-9089.2,0,0
13644.55,226.852,-8909.55,0,0
13904.875,209.297,-8740.39,0,0
14165.2,209.687,-8568.62,0,0
14425.525,203.923,-8429.23,0,0
14685.8,201.063,-8281.02,0,0
14946.175,198.46,-8133.73,0,0
15206.5,194.413,-8005.14,0,0
15466.825,185.961,-7861.87,0,0
15727.15,182.806,-7735.26,0,0
15987.5,179.504,-7604.82,0,0
16247.8,177.032,-7486.88,0,0
16508.125,171.217,-7364.61,0,0
16768.45,171.173,-7246.44,0,0
17028.775,170.267,-7136.12,0,0
17289.1,166.255,-7027.74,0,0
17549.425,165.377,-6919.21,0,0
17809.75,170.564,-6810.88,0,0
18070.075,169.415,-6713.15,0,0
18330.4,180.154,-6607.44,0,0
18590.725,200.71,-6525.51,0,0
18851.05,190.449,-6451.65,0,0
19111.375,180.489,-6369.44,0,0
19371.7,202.701,-6301.11,0,0
19632.025,168.184,-6226.85,0,0
19892.35,158.558,-6126.99,0,0
20152.675,168.4,-6048.99,0,0
20413.0,168.148,-5974.88,0,0
20673.3,170.884,-5894.43,0,0
20933.65,180.076,-5837.76,0,0
21193.975,161.119,-5773.96,0,0
21454.3,152.647,-5699.51,0,0
21714.625,157.003,-5634.68,0,0
21974.9,146.536,-5571.08,0,0
22235.275,141.307,-5502.48,0,0
22495.6,139.722,-5439.48,0,0
22755.925,133.678,-5375.7,0,0
23016.25,130.25,-5312.04,0,0
23276.6,128.534,-5249.22,0,0
23536.9,129.166,-5189.31,0,0
23797.225,127.553,-5134.26,0,0
24057.55,124.196,-5076.81,0,0
24317.875,122.543,-5019.42,0,0
24578.2,123.84,-4964.94,0,0
24838.525,122.232,-4911.47,0,0
25098.85,120.891,-4859.85,0,0
25359.175,119.618,-4808,0,0
25619.5,118.555,-4755.57,0,0
25879.8,118.746,-4706.22,0,0
26140.1,119.761,-4653.95,0,0
26400.5,124.284,-4607.21,0,0
26660.8,121.481,-4561.41,0,0
26921.1,122.516,-4511.82,0,0
27181.4,127.836,-4463.67,0,0
27441.8,131.18,-4417.39,0,0
27702.1,142.186,-4371.05,0,0
27962.4,156.223,-4327.21,0,0
28222.7,177.407,-4300.47,0,0
28483.1,181.169,-4279.92,0,0
28743.4,182.695,-4265.39,0,0
29003.7,167.022,-4242.25,0,0
29264,148.922,-4208.06,0,0
29524.4,139.688,-4168.89,0,0
29784.7,132.308,-4130.51,0,0
30045,129.559,-4087.21,0,0
30305.3,130.717,-4050.46,0,0
30565.7,131.572,-4017.42,0,0
30826,132.548,-3984.86,0,0
31086.3,133.556,-3954.78,0,0
31346.6,131.186,-3925.55,0,0
31607,129.076,-3900.34,0,0
31867.3,120.904,-3868.85,0,0
32127.6,117.469,-3837.32,0,0
32387.9,114.647,-3806.64,0,0
32648.3,110.768,-3776.97,0,0
32908.6,107.829,-3746.19,0,0
33168.9,104.409,-3716.6,0,0
33429.2,101.582,-3686.53,0,0
33689.6,99.1081,-3656.88,0,0
33949.9,97.1208,-3627.69,0,0
34210.2,95.5483,-3598.69,0,0
34470.5,93.7776,-3570.33,0,0
34730.9,92.2017,-3541.94,0,0
34991.2,91.2498,-3514.5,0,0
35251.5,90.0892,-3487.48,0,0
35511.8,89.2879,-3460.55,0,0
35772.2,88.8767,-3434.02,0,0
36032.5,88.2408,-3408.5,0,0
36292.8,87.886,-3383.67,0,0
36553.1,86.9337,-3358.39,0,0
36813.5,86.1281,-3333.48,0,0
37073.8,86.3488,-3308.76,0,0
37334.1,86.3,-3285.02,0,0
37594.4,85.6989,-3261.3,0,0
37854.8,85.2994,-3238.04,0,0
38115.1,85.2363,-3213.92,0,0
38375.4,85.6687,-3190.9,0,0
38635.7,86.6289,-3167.91,0,0
38896.1,88.1621,-3145.04,0,0
39156.4,90.1726,-3123.92,0,0
39416.7,93.1293,-3102.34,0,0
39677,97.2726,-3084.34,0,0
39937.4,98.2825,-3068.09,0,0
40197.7,98.748,-3052.71,0,0
40458,95.6998,-3037.26,0,0
40718.3,92.7049,-3019.24,0,0
40978.7,89.1125,-3000.57,0,0
41239,86.9289,-2981.16,0,0
41499.3,85.2803,-2961.55,0,0
41759.6,84.0014,-2942.76,0,0
42020,82.029,-2924.27,0,0
42280.275,80.4516,-2904.89,0,0
42540.6,80.2278,-2885.14,0,0
42800.925,80.5003,-2866.97,0,0
43061.25,80.3867,-2849.19,0,0
43321.575,80.4644,-2832.45,0,0
43581.9,79.32,-2814.77,0,0
43842.225,79.0403,-2796.65,0,0
44102.55,80.2412,-2778.83,0,0
44362.875,82.1126,-2763.54,0,0
44623.2,81.909,-2748.52,0,0
44883.525,81.4337,-2734.11,0,0
45143.85,80.3008,-2719,0,0
45404.175,78.8138,-2702.88,0,0
45664.5,79.5222,-2686.39,0,0
45924.825,80.7066,-2672.79,0,0
46185.15,79.5226,-2660.18,0,0
46445.475,77.2886,-2646.66,0,0
46705.8,74.4757,-2631.8,0,0
46966.125,72.4743,-2615.99,0,0
47226.45,71.4575,-2600.36,0,0
47486.775,71.1914,-2584.98,0,0
47747.1,70.7108,-2570.36,0,0
48007.425,70.4535,-2555.96,0,0
48267.75,70.0507,-2541.94,0,0
48528.075,69.0842,-2528.11,0,0
48788.4,68.6099,-2513.93,0,0
49048.725,68.0525,-2499.98,0,0
49309.05,67.8006,-2486.24,0,0
49569.375,67.1737,-2472.78,0,0
49829.7,66.8776,-2459.46,0,0
50090.025,66.549,-2446.18,0,0
50350.35,66.1788,-2433.13,0,0
50610.675,65.8836,-2420.18,0,0
50871.0,65.4642,-2407.39,0,0
51131.325,65.1599,-2394.7,0,0
51391.65,64.8197,-2382.1,0,0
51651.975,64.5762,-2369.48,0,0
51912.3,64.2557,-2357.31,0,0
52172.625,64.0309,-2344.83,0,0
52432.95,63.92,-2332.94,0,0
52693.275,63.6734,-2320.98,0,0
52953.6,63.7784,-2309.08,0,0
53213.925,63.61,-2297.62,0,0
53474.25,63.3478,-2286.42,0,0
53734.575,62.9032,-2275.12,0,0
53994.9,62.5189,-2263.71,0,0
54255.225,62.3295,-2252.54,0,0
54515.55,62.0878,-2241.47,0,0
54775.875,61.719,-2230.44,0,0
55036.2,61.4416,-2219.5,0,0
55296.525,61.1747,-2208.51,0,0
55556.85,60.8861,-2197.82,0,0
55817.175,60.7191,-2187.23,0,0
56077.5,60.5017,-2176.43,0,0
56337.825,60.4542,-2165.92,0,0
56598.15,60.4066,-2155.68,0,0
56858.475,60.2014,-2145.51,0,0
57118.8,60.0054,-2135.4,0,0
57379.125,59.7497,-2125.37,0,0
57639.45,59.5176,-2115.36,0,0
57899.775,59.1645,-2105.22,0,0
58160.1,59.2866,-2095.05,0,0
58420.4,59.5784,-2085.41,0,0
58680.7,59.7141,-2076.07,0,0
58941.1,59.4997,-2066.77,0,0
59201.4,59.2203,-2057.2,0,0
59461.7,59.5266,-2047.63,0,0
59722,59.8203,-2038.79,0,0
59982.4,59.5544,-2029.81,0,0
60242.7,59.6284,-2020.99,0,0
60503,59.5367,-2012.46,0,0
60763.3,59.0921,-2003.93,0,0
61023.7,58.4978,-1995.2,0,0
61284,58.2653,-1986.44,0,0
61544.3,57.8541,-1977.88,0,0
61804.6,57.3679,-1969.19,0,0
62065,57.0073,-1960.56,0,0
62325.3,56.5606,-1951.86,0,0
62585.6,56.3982,-1943.35,0,0
62845.9,56.1266,-1934.83,0,0
63106.3,55.7586,-1926.3,0,0
63366.6,55.6933,-1917.8,0,0
63626.9,55.7909,-1909.56,0,0
63887.2,55.628,-1901.64,0,0
64147.6,55.4135,-1893.43,0,0
64407.9,55.2344,-1885.41,0,0
64668.2,54.9733,-1877.29,0,0
64928.5,54.9434,-1869.19,0,0
65188.9,55.2429,-1861.48,0,0
65449.2,55.2581,-1853.83,0,0
65709.5,55.1138,-1846.25,0,0
65969.8,55.0487,-1838.76,0,0
66230.2,54.8979,-1831.56,0,0
66490.5,54.4601,-1824.31,0,0
66750.8,54.1555,-1816.92,0,0
67011.1,53.6577,-1809.64,0,0
67271.5,53.3085,-1802.16,0,0
67531.8,52.9908,-1794.63,0,0
67792.1,52.6891,-1787.39,0,0
68052.4,52.3231,-1779.89,0,0
68312.8,52.1397,-1772.61,0,0
68573.1,52.051,-1765.43,0,0
68833.4,51.9625,-1758.26,0,0
69093.7,51.7498,-1751.06,0,0
69354.1,51.7057,-1744,0,0
69614.4,51.5716,-1737.08,0,0
69874.7,51.4824,-1730.12,0,0
70135,51.3623,-1723.38,0,0
70395.4,51.3369,-1716.46,0,0
70655.7,51.3038,-1709.66,0,0
70916,51.4227,-1702.99,0,0
71176.3,51.3406,-1696.5,0,0
71436.7,51.1215,-1690.08,0,0
71697,51.0521,-1683.69,0,0
71957.3,50.7308,-1677.14,0,0
72217.6,50.5035,-1670.73,0,0
72478,50.2787,-1664.36,0,0
72738.3,50.0648,-1657.91,0,0
72998.6,49.8858,-1651.38,0,0
73258.9,49.7891,-1645.13,0,0
73519.3,49.5932,-1638.79,0,0
73779.6,49.4316,-1632.54,0,0
74039.9,49.3133,-1626.32,0,0
74300.225,49.2322,-1620.13,0,0
74560.55,49.1366,-1613.99,0,0
74820.875,48.9416,-1607.89,0,0
75081.2,48.88,-1601.81,0,0
75341.525,48.7858,-1595.84,0,0
75601.85,48.7531,-1589.86,0,0
75862.175,48.61,-1583.89,0,0
76122.5,48.4821,-1577.93,0,0
76382.825,48.3787,-1572.07,0,0
76643.15,48.3051,-1566.16,0,0
76903.475,48.2699,-1560.36,0,0
77163.8,48.2086,-1554.62,0,0
77424.125,48.1962,-1548.91,0,0
77684.45,48.1489,-1543.23,0,0
77944.775,48.0498,-1537.61,0,0
78205.1,47.9331,-1531.96,0,0
78465.425,47.8811,-1526.35,0,0
78725.75,47.8353,-1520.8,0,0
78986.075,47.7695,-1515.33,0,0
79246.4,47.7344,-1509.83,0,0
79506.725,47.7041,-1504.41,0,0
79767.05,47.7199,-1498.94,0,0
80027.375,47.6702,-1493.65,0,0
80287.7,47.6426,-1488.33,0,0
80548.025,47.5771,-1483.01,0,0
80808.35,47.4879,-1477.78,0,0
81068.675,47.3599,-1472.54,0,0
81329.0,47.2861,-1467.23,0,0
81589.325,47.3009,-1462,0,0
81849.65,47.1836,-1456.84,0,0
82109.975,47.1106,-1451.75,0,0
82370.3,47.068,-1446.53,0,0
82630.625,47.0477,-1441.46,0,0
82890.95,47.0278,-1436.44,0,0
83151.275,46.9232,-1431.39,0,0
83411.6,46.8886,-1426.28,0,0
83671.925,46.8894,-1421.19,0,0
83932.25,46.9341,-1416.19,0,0
84192.575,47.0572,-1411.27,0,0
84452.9,47.1258,-1406.33,0,0
84713.225,47.1516,-1401.63,0,0
84973.55,47.1741,-1396.79,0,0
85233.875,47.2461,-1391.95,0,0
85494.2,47.2722,-1387.24,0,0
85754.525,47.1777,-1382.6,0,0
86014.85,47.137,-1377.77,0,0
86275.175,47.2596,-1373.09,0,0
86535.5,47.3417,-1368.44,0,0
86795.825,47.2349,-1363.88,0,0
87056.15,47.2999,-1359.2,0,0
87316.475,47.4501,-1354.63,0,0
87576.8,47.508,-1350.22,0,0
87837.125,47.4974,-1345.8,0,0
88097.45,47.4113,-1341.33,0,0
88357.775,47.4438,-1336.89,0,0
88618.1,47.3533,-1332.44,0,0
88878.425,47.1761,-1328.06,0,0
89138.75,47.0922,-1323.51,0,0
89399.075,47.0018,-1319.05,0,0
89659.4,47.0145,-1314.57,0,0
89919.725,46.9718,-1310.13,0,0
90180,46.9141,-1305.6,0,0
90440.4,47.0274,-1301.08,0,0
90700.7,47.1841,-1296.78,0,0
90961,47.1832,-1292.46,0,0
91221.3,47.1646,-1288.06,0,0
91481.7,47.2609,-1283.76,0,0
91742,47.4216,-1279.41,0,0
92002.3,47.5286,-1275.19,0,0
92262.6,47.8191,-1270.96,0,0
92523,47.9074,-1266.85,0,0
92783.3,47.9255,-1262.7,0,0
93043.6,47.9117,-1258.41,0,0
93303.9,48.1821,-1254.09,0,0
93564.3,48.4707,-1249.9,0,0
93824.6,48.8613,-1245.72,0,0
94084.9,49.4033,-1241.78,0,0
94345.2,49.7169,-1237.99,0,0
94605.6,49.9957,-1234.25,0,0
94865.9,50.2496,-1230.46,0,0
95126.2,50.6526,-1226.96,0,0
95386.5,50.6561,-1223.67,0,0
95646.9,50.3084,-1220.09,0,0
95907.2,49.989,-1216.31,0,0
96167.5,49.7926,-1212.37,0,0
96427.8,49.6293,-1208.53,0,0
96688.2,49.5903,-1204.6,0,0
96948.5,49.5183,-1200.72,0,0
97208.8,49.427,-1196.83,0,0
97469.1,49.3428,-1192.8,0,0
97729.5,49.485,-1188.67,0,0
97989.8,49.8534,-1184.87,0,0
98250.1,49.9719,-1181.12,0,0
98510.4,50.2463,-1177.44,0,0
98770.8,50.3308,-1173.91,0,0
99031.1,50.3539,-1170.41,0,0
99291.4,50.0984,-1166.73,0,0
99551.7,49.8799,-1162.92,0,0
99812.1,49.7709,-1158.85,0,0
100072,49.9844,-1154.73,0,0
100333,50.4574,-1150.84,0,0
100593,50.7818,-1147.21,0,0
100853,50.9891,-1143.51,0,0
101114,51.4276,-1139.82,0,0
101374,51.7125,-1136.32,0,0
101634,51.8364,-1132.66,0,0
101895,52.0945,-1128.88,0,0
102155,52.5796,-1125.23,0,0
102415,53.0454,-1121.66,0,0
102676,53.5233,-1118.19,0,0
102936,54.0086,-1114.68,0,0
103196,54.6108,-1111.44,0,0
103457,55.1278,-1108.17,0,0
103717,55.803,-1105.1,0,0
103977,56.0139,-1102.35,0,0
104238,55.942,-1099.28,0,0
104498,56.1181,-1096.03,0,0
104758,56.531,-1092.81,0,0
105019,56.7131,-1090.01,0,0
105279,56.6374,-1087.08,0,0
105539,56.4229,-1083.97,0,0
105800,56.3164,-1080.67,0,0
106060,56.2227,-1077.42,0,0
106320.175,56.1201,-1073.78,0,0
106580.5,56.4091,-1070.29,0,0
106840.825,56.8234,-1066.98,0,0
107101.15,57.1478,-1063.91,0,0
107361.475,57.2215,-1060.83,0,0
107621.8,57.2416,-1057.53,0,0
107882.125,57.3626,-1054.18,0,0
108142.45,57.6719,-1050.94,0,0
108402.775,57.8445,-1047.61,0,0
108663.1,58.167,-1044.43,0,0
108923.425,58.4084,-1041.31,0,0
109183.75,58.5192,-1038.23,0,0
109444.075,58.6076,-1035.02,0,0
109704.4,58.681,-1031.68,0,0
109964.725,58.7795,-1028.22,0,0
110225.05,58.8868,-1024.71,0,0
110485.375,59.4402,-1020.92,0,0
110745.7,60.1268,-1017.43,0,0
111006.025,60.9473,-1013.97,0,0
111266.35,61.7856,-1010.92,0,0
111526.675,62.2822,-1007.93,0,0
111787.0,62.7281,-1004.47,0,0
112047.325,63.6389,-1001.04,0,0
112307.65,64.6363,-997.882,0,0
112567.975,65.5998,-994.762,0,0
112828.3,66.7349,-991.665,0,0
113088.625,67.9006,-988.739,0,0
113348.95,69.0252,-986.221,0,0
113609.275,69.8105,-983.418,0,0
113869.6,70.8727,-980.579,0,0
114129.925,72.0521,-977.87,0,0
114390.25,73.3339,-975.22,0,0
114650.575,74.5438,-972.867,0,0
114910.9,75.6165,-970.428,0,0
115171.225,76.8266,-967.964,0,0
115431.55,78.1611,-965.513,0,0
115691.875,79.7239,-963.216,0,0
115952.2,81.395,-961.247,0,0
116212.525,83.0701,-959.532,0,0
116472.85,84.6735,-958.198,0,0
116733.175,86.0249,-957.304,0,0
116993.5,86.7667,-956.401,0,0
117253.825,87.5263,-955.159,0,0
117514.15,88.4255,-954.178,0,0
117774.475,88.9525,-953.338,0,0
118034.8,89.3128,-952.256,0,0
118295.125,89.915,-951.068,0,0
118555.45,90.7703,-950.241,0,0
118815.775,91.4471,-949.897,0,0
119076.1,91.7083,-949.818,0,0
119336.425,91.601,-949.835,0,0
119596.75,91.1205,-949.918,0,0
119857.075,90.259,-950.128,0,0
120117.4,88.6654,-950.114,0,0
120377.725,86.9144,-949.948,0,0
120638.05,84.4517,-949.2,0,0
120898.375,82.0339,-947.895,0,0
121158.7,79.431,-946.285,0,0
121419.025,77.0334,-943.642,0,0
121679.35,75.4537,-940.923,0,0
121939.675,74.0009,-938.467,0,0
122200.0,72.6022,-936.038,0,0
122460,71.0901,-933.577,0,0
122721,69.6579,-930.94,0,0
122981,68.3128,-928.299,0,0
123241,66.8816,-925.531,0,0
123502,65.5669,-922.548,0,0
123762,64.5745,-919.289,0,0
124022,63.9346,-916.323,0,0
124283,63.1557,-913.512,0,0
124543,62.4823,-910.642,0,0
124803,61.8937,-907.918,0,0
125064,61.1732,-905.362,0,0
125324,60.2263,-902.692,0,0
125584,59.3212,-899.767,0,0
125845,58.638,-896.78,0,0
126105,57.9996,-893.948,0,0
126365,57.206,-891.072,0,0
126626,56.5121,-888.049,0,0
126886,55.9051,-885.059,0,0
127146,55.383,-881.938,0,0
127406,54.8819,-878.776,0,0
127667,54.5585,-875.68,0,0
127927,54.3674,-872.767,0,0
128187,54.0818,-869.985,0,0
128448,53.7193,-867.167,0,0
128708,53.3202,-864.245,0,0
128968,53.0126,-861.254,0,0
129229,52.7891,-858.26,0,0
129489,52.6215,-855.477,0,0
129749,52.2678,-852.693,0,0
130010,51.9245,-849.684,0,0
130270,51.7713,-846.712,0,0
130530,51.6487,-843.887,0,0
130791,51.3427,-841.109,0,0
131051,50.9997,-838.216,0,0
131311,50.6646,-835.185,0,0
131572,50.486,-831.998,0,0
131832,50.5104,-828.892,0,0
132092,50.4859,-825.971,0,0
132353,50.3619,-822.952,0,0
132613,50.3208,-819.833,0,0
132873,50.348,-816.758,0,0
133134,50.4586,-813.629,0,0
133394,50.6043,-810.513,0,0
133654,50.8179,-807.384,0,0
133915,51.149,-804.196,0,0
134175,51.6735,-800.994,0,0
134435,52.4061,-797.998,0,0
134696,53.0894,-795.323,0,0
134956,53.571,-792.662,0,0
135216,54.0204,-789.778,0,0
135477,54.786,-786.88,0,0
135737,55.7198,-784.027,0,0
135997,57.0238,-781.616,0,0
136258,58.1306,-779.651,0,0
136518,59.1187,-777.937,0,0
136778,59.8246,-776.6,0,0
137039,59.8783,-775.494,0,0
137299,59.4051,-774.049,0,0
137559,58.7541,-772.127,0,0
137819,58.2093,-769.841,0,0
138080,57.8083,-767.562,0,0
138340.125,57.2705,-765.191,0,0
138600.45,56.736,-762.595,0,0
138860.775,56.3044,-759.814,0,0
139121.1,56.1006,-756.855,0,0
139381.425,56.111,-753.932,0,0
139641.75,56.2334,-751.165,0,0
139902.075,56.4194,-748.461,0,0
140162.4,56.5715,-745.916,0,0
140422.725,56.5518,-743.384,0,0
140683.05,56.482,-740.764,0,0
140943.375,56.4632,-738.051,0,0
141203.7,56.4289,-735.372,0,0
141464.025,56.3616,-732.539,0,0
141724.35,56.4131,-729.598,0,0
141984.675,56.6095,-726.651,0,0
142245.0,56.8757,-723.78,0,0
142505.325,57.167,-720.878,0,0
142765.65,57.5088,-718.016,0,0
143025.975,57.9113,-715.137,0,0
143286.3,58.4905,-712.289,0,0
143546.625,59.107,-709.64,0,0
143806.95,59.6918,-707.105,0,0
144067.275,60.2024,-704.672,0,0
144327.6,60.5892,-702.263,0,0
144587.925,60.9039,-699.83,0,0
144848.25,61.119,-697.343,0,0
145108.575,61.4258,-694.747,0,0
145368.9,61.7444,-692.266,0,0
145629.225,61.9521,-689.783,0,0
145889.55,62.0799,-687.196,0,0
146149.875,62.2539,-684.474,0,0
146410.2,62.5229,-681.689,0,0
146670.525,62.9233,-678.989,0,0
146930.85,63.2742,-676.364,0,0
147191.175,63.623,-673.736,0,0
147451.5,63.8812,-671.143,0,0
147711.825,64.1384,-668.406,0,0
147972.15,64.5612,-665.634,0,0
148232.475,65.0028,-663.113,0,0
148492.8,65.2691,-660.622,0,0
148753.125,65.3812,-658.08,0,0
149013.45,65.3576,-655.449,0,0
149273.775,65.3316,-652.591,0,0
149534.1,65.3552,-649.656,0,0
149794.425,65.3997,-646.613,0,0
150054.75,65.4803,-643.471,0,0
150315.075,65.607,-640.225,0,0
150575.4,65.8336,-636.901,0,0
150835.725,66.146,-633.53,0,0
151096.05,66.5128,-630.11,0,0
151356.375,66.9713,-626.631,0,0
151616.7,67.5144,-623.121,0,0
151877.025,68.1365,-619.571,0,0
152137.35,68.838,-616.011,0,0
152397.675,69.6497,-612.389,0,0
152658.0,70.5927,-608.756,0,0
152918.325,71.6003,-605.21,0,0
153178.65,72.643,-601.649,0,0
153438.975,73.7549,-598.103,0,0
153699.3,74.8748,-594.545,0,0
153959.625,76.0622,-590.895,0,0
154219.95,77.3905,-587.223,0,0
154480,78.8728,-583.602,0,0
154741,80.3339,-579.917,0,0
155001,82.0471,-576.309,0,0
155261,83.7427,-572.666,0,0
155522,85.5248,-569.158,0,0
155782,87.4631,-565.587,0,0
156042,89.4233,-562.106,0,0
156303,91.5697,-558.637,0,0
156563,93.9473,-555.186,0,0
156823,96.2233,-551.893,0,0
157084,98.6211,-548.738,0,0
157344,101.228,-545.606,0,0
157604,103.885,-542.712,0,0
157864,106.584,-540.009,0,0
158125,109.18,-537.492,0,0
158385,111.859,-535.12,0,0
158645,114.472,-533.067,0,0
158906,116.703,-531.411,0,0
159166,118.588,-529.634,0,0
159426,120.069,-527.752,0,0
159687,121.408,-525.782,0,0
159947,122.456,-523.605,0,0
160207,123.144,-521.161,0,0
160468,123.862,-518.097,0,0
160728,124.695,-514.825,0,0
160988,125.346,-511.253,0,0
161249,126.132,-506.966,0,0
161509,127.362,-502.232,0,0
161769,129.167,-497.251,0,0
162030,131.411,-492.136,0,0
162290,134.235,-487.04,0,0
162550,137.345,-482.181,0,0
162811,140.494,-477.269,0,0
163071,143.997,-472.088,0,0
163331,148.023,-466.831,0,0
163592,152.679,-461.64,0,0
163852,157.914,-456.947,0,0
164112,163.243,-452.72,0,0
164373,168.517,-448.688,0,0
164633,174.009,-444.677,0,0
164893,179.603,-440.975,0,0
165154,184.993,-437.381,0,0
165414,190.359,-433.315,0,0
165674,196.14,-428.821,0,0
165935,202.698,-424.02,0,0
166195,210.132,-419.271,0,0
166455,218.438,-414.783,0,0
166716,227.543,-410.898,0,0
166976,237.123,-407.663,0,0
167236,247.387,-404.623,0,0
167497,258.497,-402.485,0,0
167757,270.086,-401.414,0,0
168017,281.806,-401.018,0,0
168277,294.121,-401.497,0,0
168538,307.082,-403.278,0,0
168798,319.986,-406.509,0,0
169058,332.773,-411.14,0,0
169319,345.212,-417.473,0,0
169579,356.265,-425.045,0,0
169839,366.364,-432.723,0,0
170100,376.448,-440.962,0,0
170360.075,386.324,-450.33,0,0
170620.4,395.302,-461.326,0,0
170880.725,402.498,-473.143,0,0
171141.05,408.393,-484.958,0,0
171401.375,413.482,-496.947,0,0
171661.7,417.634,-509.234,0,0
171922.025,421.073,-521.55,0,0
172182.35,424.231,-534.642,0,0
172442.675,425.947,-549.31,0,0
172703.0,424.923,-564.145,0,0
172963.325,422.285,-578.535,0,0
173223.65,417.533,-592.433,0,0
173483.975,411.16,-605.368,0,0
173744.3,402.735,-617.329,0,0
174004.625,392.323,-627.074,0,0
174264.95,381.285,-633.957,0,0
174525.275,370.487,-638.792,0,0
174785.6,359.515,-641.62,0,0
175045.925,349.415,-641.57,0,0
175306.25,341.97,-640.206,0,0
175566.575,335.471,-639.445,0,0
175826.9,328.973,-637.352,0,0
176087.225,324.459,-633.812,0,0
176347.55,322.07,-630.524,0,0
176607.875,320.897,-627.77,0,0
176868.2,321.177,-625.454,0,0
177128.525,322.647,-624.396,0,0
177388.85,324.378,-624.802,0,0
177649.175,326.078,-625.698,0,0
177909.5,328.915,-627.192,0,0
178169.825,332.656,-630.985,0,0
178430.15,335.829,-637.535,0,0
178690.475,336.601,-646.373,0,0
178950.8,334.411,-655.825,0,0
179211.125,329.455,-664.575,0,0
179471.45,322.454,-671.317,0,0
179731.775,315.358,-675.88,0,0
179992.1,308.824,-679.53,0,0
180252.425,302.404,-682.742,0,0
180512.75,296.377,-685.595,0,0
180773.075,290.363,-688.741,0,0
181033.4,283.807,-692.171,0,0
181293.725,276.082,-695.486,0,0
181554.05,267.109,-697.498,0,0
181814.375,258.485,-698.091,0,0
182074.7,249.957,-698.531,0,0
182335.025,240.681,-698.136,0,0
182595.35,231.301,-696.135,0,0
182855.675,222.671,-692.801,0,0
183116.0,215.085,-688.665,0,0
183376.325,208.713,-684.348,0,0
183636.65,202.791,-680.418,0,0
183896.975,196.76,-676.305,0,0
184157.3,191.025,-671.522,0,0
184417.625,186.081,-666.348,0,0
184677.95,182.011,-661.171,0,0
184938.275,178.466,-656.61,0,0
185198.6,174.784,-652.346,0,0
185458.925,170.95,-648.056,0,0
185719.25,166.988,-643.518,0,0
185979.575,163.135,-638.323,0,0
186239.9,159.952,-632.768,0,0
186500,157.318,-627.26,0,0
186761,155.053,-621.821,0,0
187021,153.039,-616.414,0,0
187281,151.426,-610.895,0,0
187542,150.37,-605.475,0,0
187802,149.785,-600.353,0,0
188062,149.615,-595.735,0,0
188322,149.481,-591.692,0,0
188583,149.222,-588.318,0,0
188843,148.25,-585.302,0,0
189103,146.702,-581.965,0,0
189364,144.997,-578.083,0,0
189624,143.573,-573.914,0,0
189884,142.194,-569.734,0,0
190145,140.864,-565.22,0,0
190405,139.911,-560.652,0,0
190665,138.902,-556.209,0,0
190926,137.784,-551.437,0,0
191186,137.111,-546.212,0,0
191446,137.056,-541.049,0,0
191707,137.255,-536.361,0,0
191967,137.264,-531.901,0,0
192227,137.129,-527.361,0,0
192488,137.037,-522.504,0,0
192748,137.242,-517.478,0,0
193008,137.749,-512.466,0,0
193269,138.491,-507.503,0,0
193529,139.446,-502.694,0,0
193789,140.423,-498.045,0,0
194050,141.332,-493.346,0,0
194310,142.393,-488.444,0,0
194570,143.741,-483.448,0,0
194831,145.508,-478.454,0,0
195091,147.686,-473.774,0,0
195351,149.949,-469.455,0,0
195612,152.087,-465.392,0,0
195872,154.273,-461.314,0,0
196132,156.541,-457.519,0,0
196393,158.658,-453.764,0,0
196653,160.788,-449.992,0,0
196913,163.243,-446.134,0,0
197174,165.712,-442.663,0,0
197434,168.117,-439.48,0,0
197694,170.239,-436.51,0,0
197955,171.978,-433.499,0,0
198215,173.5,-430.159,0,0
198475,175.109,-426.437,0,0
198735,176.914,-422.603,0,0
198996,178.82,-418.713,0,0
199256,180.689,-414.902,0,0
199516,182.464,-410.724,0,0
199777,184.437,-406.248,0,0
200037,186.836,-401.599,0,0
200297,189.457,-396.926,0,0
200558,192.396,-392.289,0,0
200818,195.525,-387.723,0,0
201078,198.641,-383.177,0,0
201339,201.845,-378.486,0,0
201599,205.382,-373.517,0,0
201859,209.283,-368.532,0,0
202120,213.59,-363.449,0,0
202380.025,218.36,-358.411,0,0
202640.35,223.578,-353.672,0,0
202900.675,228.968,-349.195,0,0
203161.0,234.541,-344.883,0,0
203421.325,240.367,-340.626,0,0
203681.65,246.464,-336.643,0,0
203941.975,252.713,-332.838,0,0
204202.3,259.108,-329.046,0,0
204462.625,265.891,-325.274,0,0
204722.95,272.935,-321.689,0,0
204983.275,280.405,-318.159,0,0
205243.6,288.603,-314.591,0,0
205503.925,297.721,-311.723,0,0
205764.25,307.299,-310.079,0,0
206024.575,316.847,-309.444,0,0
206284.9,326.087,-309.807,0,0
206545.225,334.73,-310.786,0,0
206805.55,342.929,-312.18,0,0
207065.875,350.383,-314.035,0,0
207326.2,357.11,-315.728,0,0
207586.525,363.27,-317.185,0,0
207846.85,369.016,-318.087,0,0
208107.175,374.82,-318.105,0,0
208367.5,381.305,-317.458,0,0
208627.825,388.45,-316.451,0,0
208888.15,396.801,-315.163,0,0
209148.475,406.504,-314.311,0,0
209408.8,417.274,-314.528,0,0
209669.125,428.652,-315.771,0,0
209929.45,440.65,-318.116,0,0
210189.775,453.287,-321.84,0,0
210450.1,466.402,-327.57,0,0
210710.425,478.822,-335.983,0,0
210970.75,488.88,-346.009,0,0
211231.075,497.252,-355.94,0,0
211491.4,504.9,-365.973,0,0
211751.725,511.779,-376.501,0,0
212012.05,517.413,-387.424,0,0
212272.375,521.863,-398.152,0,0
212532.7,525.68,-408.397,0,0
212793.025,529.47,-418.872,0,0
213053.35,532.126,-430.276,0,0
213313.675,532.781,-441.068,0,0
213574.0,532.817,-450.315,0,0
213834.325,533.372,-458.818,0,0
214094.65,534.27,-467.588,0,0
214354.975,534.655,-476.929,0,0
214615.3,533.97,-486.086,0,0
214875.625,532.886,-494.521,0,0
215135.95,531.603,-502.855,0,0
215396.275,529.692,-510.728,0,0
215656.6,527.56,-517.845,0,0
215916.925,525.844,-524.208,0,0
216177.25,524.972,-530.479,0,0
216437.575,524.747,-537.62,0,0
216697.9,524.109,-546.279,0,0
216958.225,521.923,-555.634,0,0
217218.55,518.016,-564.726,0,0
217478.875,512.99,-572.643,0,0
217739.2,507.849,-579.408,0,0
217999.525,502.871,-585.846,0,0
218259.85,497.591,-592.198,0,0
218520,491.787,-598.331,0,0
218780,485.312,-604.009,0,0
219041,478.183,-609.011,0,0
219301,470.457,-613.061,0,0
219561,462.519,-615.808,0,0
219822,454.72,-617.412,0,0
220082,447.303,-617.975,0,0
220342,440.569,-617.678,0,0
220603,434.567,-616.794,0,0
220863,429.067,-615.651,0,0
221123,423.99,-613.999,0,0
221384,419.582,-611.889,0,0
221644,415.912,-609.533,0,0
221904,412.982,-607.128,0,0
222165,410.682,-604.676,0,0
222425,409.127,-602.362,0,0
222685,408.178,-600.455,0,0
222946,407.326,-599.141,0,0
223206,406.574,-597.866,0,0
223466,406.059,-596.715,0,0
223727,405.776,-595.932,0,0
223987,405.413,-595.438,0,0
224247,404.904,-595.051,0,0
224508,404.17,-594.565,0,0
224768,403.416,-593.807,0,0
225028,402.869,-592.496,0,0
225289,402.804,-590.823,0,0
225549,403.689,-588.988,0,0
225809,405.455,-587.502,0,0
226070,407.838,-586.773,0,0
226330,410.447,-586.808,0,0
226590,412.985,-587.573,0,0
226851,415.269,-588.803,0,0
227111,417.294,-590.168,0,0
227371,419.4,-591.574,0,0
227632,421.76,-593.096,0,0
227892,424.52,-595.07,0,0
228152,427.401,-597.803,0,0
228413,430.028,-601.281,0,0
228673,432.32,-605.368,0,0
228933,434.153,-609.922,0,0
229193,435.28,-614.868,0,0
229454,435.739,-619.685,0,0
229714,435.939,-624.046,0,0
229974,436.72,-628.314,0,0
230235,437.762,-633.513,0,0
230495,438.318,-639.759,0,0
230755,437.574,-646.562,0,0
231016,435.771,-653.076,0,0
231276,433.263,-659.011,0,0
231536,430.696,-664.403,0,0
231797,428.207,-669.657,0,0
232057,425.768,-675.177,0,0
232317,423.046,-681.169,0,0
232578,419.652,-687.598,0,0
232838,415.224,-694.02,0,0
233098,410.111,-700.077,0,0
233359,404.437,-705.939,0,0
233619,397.984,-711.758,0,0
233879,390.36,-716.967,0,0
234140,381.957,-721.153,0,0
234400,373.258,-724.231,0,0
234660.3,364.308,-726.405,0,0
234920.625,355.191,-727.565,0,0
235180.95,346.083,-727.575,0,0
235441.275,337.506,-726.362,0,0
235701.6,329.629,-724.254,0,0
235961.925,322.68,-721.59,0,0
236222.25,316.61,-718.671,0,0
236482.575,311.531,-715.78,0,0
236742.9,307.093,-713.495,0,0
237003.225,302.523,-711.839,0,0
237263.55,297.491,-710.225,0,0
237523.875,292.274,-708.233,0,0
237784.2,287.076,-705.859,0,0
238044.525,281.93,-703.201,0,0
238304.85,276.771,-700.094,0,0
238565.175,271.713,-696.273,0,0
238825.5,267.185,-691.693,0,0
239085.825,263.588,-686.555,0,0
239346.15,261.115,-681.122,0,0
239606.475,259.886,-675.948,0,0
239866.8,259.625,-671.703,0,0
240127.125,259.813,-668.424,0,0
240387.45,260.151,-666.219,0,0
240647.775,259.924,-664.977,0,0
240908.1,258.969,-664.145,0,0
241168.425,257.493,-663.286,0,0
241428.75,255.523,-662.328,0,0
241689.075,253.268,-661.168,0,0
241949.4,250.781,-659.828,0,0
242209.725,247.807,-658.318,0,0
242470.05,244.631,-656.146,0,0
242730.375,241.623,-653.233,0,0
242990.7,239.051,-649.829,0,0
243251.025,237.039,-646.385,0,0
243511.35,235.151,-642.929,0,0
243771.675,233.405,-639.138,0,0
244032.0,232.137,-634.904,0,0
244292.325,231.695,-630.523,0,0
244552.65,232.106,-626.442,0,0
244812.975,233.156,-623.016,0,0
245073.3,234.327,-620.509,0,0
245333.625,235.218,-618.537,0,0
245593.95,235.805,-616.81,0,0
245854.275,236.136,-615.275,0,0
246114.6,236.281,-613.833,0,0
246374.925,236.112,-612.367,0,0
246635.25,235.857,-610.76,0,0
246895.575,235.54,-609.06,0,0
247155.9,235.155,-607.231,0,0
247416.225,234.845,-605.221,0,0
247676.55,234.676,-603.089,0,0
247936.875,234.631,-600.965,0,0
248197.2,234.695,-598.796,0,0
248457.525,234.858,-596.603,0,0
248717.85,235.086,-594.384,0,0
248978.175,235.518,-592.062,0,0
249238.5,236.119,-589.808,0,0
249498.825,236.83,-587.584,0,0
249759.15,237.683,-585.418,0,0
250019.475,238.733,-583.221,0,0
250279.8,240.013,-581.052,0,0
250540,241.517,-579.041,0,0
250800,243.178,-577.175,0,0
251061,245.016,-575.541,0,0
251321,246.953,-574.127,0,0
251581,248.873,-572.805,0,0
251842,250.966,-571.486,0,0
252102,253.392,-570.308,0,0
252362,256.142,-569.51,0,0
252623,259.041,-569.209,0,0
252883,261.938,-569.368,0,0
253143,264.799,-570.01,0,0
253404,267.494,-571.165,0,0
253664,269.905,-572.727,0,0
253924,271.903,-574.698,0,0
254185,273.44,-576.925,0,0
254445,274.519,-579.191,0,0
254705,275.249,-581.439,0,0
254966,275.645,-583.745,0,0
255226,275.726,-586.071,0,0
255486,275.389,-588.368,0,0
255747,274.672,-590.468,0,0
256007,273.68,-592.299,0,0
256267,272.533,-593.88,0,0
256528,271.3,-595.294,0,0
256788,269.898,-596.557,0,0
257048,268.343,-597.616,0,0
257309,266.634,-598.336,0,0
257569,264.98,-598.786,0,0
257829,263.36,-598.957,0,0
258090,261.799,-598.935,0,0
258350,260.454,-598.684,0,0
258610,259.322,-598.311,0,0
258871,258.43,-598,0,0
259131,257.668,-597.864,0,0
259391,256.822,-597.857,0,0
259651,255.773,-598.01,0,0
259912,254.459,-597.991,0,0
260172,253.007,-597.649,0,0
260432,251.5,-596.94,0,0
260693,250.25,-596.011,0,0
260953,249.149,-594.907,0,0
261213,248.255,-593.648,0,0
261474,247.559,-592.266,0,0
261734,247.043,-590.757,0,0
261994,246.792,-589.058,0,0
262255,246.981,-587.259,0,0
262515,247.7,-585.536,0,0
262775,248.865,-584.069,0,0
263036,250.403,-583.074,0,0
263296,252.08,-582.586,0,0
263556,253.732,-582.557,0,0
263817,255.286,-582.899,0,0
264077,256.694,-583.526,0,0
264337,257.976,-584.535,0,0
264598,258.901,-585.83,0,0
264858,259.508,-587.33,0,0
265118,259.667,-588.893,0,0
265379,259.402,-590.222,0,0
265639,258.93,-591.311,0,0
265899,258.484,-592.162,0,0
266160,258.107,-592.802,0,0
266420,257.799,-593.37,0,0
266680.25,257.706,-593.986,0,0
266940.575,257.693,-594.797,0,0
267200.9,257.563,-595.792,0,0
267461.225,257.193,-596.889,0,0
267721.55,256.665,-597.977,0,0
267981.875,255.945,-599.038,0,0
268242.2,254.937,-599.903,0,0
268502.525,253.895,-600.481,0,0
268762.85,252.862,-600.838,0,0
269023.175,251.933,-600.928,0,0
269283.5,251.108,-600.797,0,0
269543.825,250.592,-600.414,0,0
269804.15,250.446,-599.953,0,0
270064.475,250.693,-599.553,0,0
270324.8,251.289,-599.324,0,0
270585.125,252.239,-599.342,0,0
270845.45,253.419,-599.615,0,0
271105.775,254.841,-600.162,0,0
271366.1,256.648,-601.079,0,0
271626.425,258.771,-602.565,0,0
271886.75,261.134,-604.978,0,0
272147.075,263.402,-608.4,0,0
272407.4,265.1,-612.836,0,0
272667.725,265.969,-618.099,0,0
272928.05,265.786,-623.855,0,0
273188.375,264.57,-629.844,0,0
273448.7,262.309,-635.898,0,0
273709.025,259.015,-641.788,0,0
273969.35,254.697,-647.258,0,0
274229.675,249.581,-652.15,0,0
274490.0,243.896,-656.373,0,0
274750.325,237.694,-660.051,0,0
275010.65,231.017,-663.197,0,0
275270.975,223.697,-665.581,0,0
275531.3,215.961,-666.918,0,0
275791.625,208.187,-667.226,0,0
276051.95,200.527,-666.649,0,0
276312.275,193.132,-665.209,0,0
276572.6,186.072,-663.053,0,0
276832.925,179.35,-660.295,0,0
277093.25,173.025,-656.912,0,0
277353.575,167.217,-652.961,0,0
277613.9,162.008,-648.551,0,0
277874.225,157.489,-643.822,0,0
278134.55,153.638,-638.936,0,0
278394.875,150.387,-634.01,0,0
278655.2,147.713,-629.088,0,0
278915.525,145.555,-624.368,0,0
279175.85,143.764,-619.793,0,0
279436.175,142.221,-615.402,0,0
279696.5,140.974,-611.123,0,0
279956.825,139.922,-606.907,0,0
280217.15,139.282,-602.754,0,0
280477.475,139.017,-598.772,0,0
280737.8,139.07,-595.21,0,0
280998.125,139.273,-592.053,0,0
281258.45,139.437,-589.31,0,0
281518.775,139.405,-586.854,0,0
281779.1,139.175,-584.521,0,0
282039.425,138.787,-582.217,0,0
282299.75,138.255,-579.916,0,0
282560,137.582,-577.536,0,0
282820,136.805,-574.939,0,0
283081,136.082,-572.112,0,0
283341,135.528,-569.075,0,0
283601,135.194,-565.905,0,0
283862,135.12,-562.665,0,0
284122,135.312,-559.431,0,0
284382,135.811,-556.254,0,0
284643,136.543,-553.213,0,0
284903,137.419,-550.365,0,0
285163,138.491,-547.688,0,0
285424,139.674,-545.234,0,0
285684,140.941,-542.978,0,0
285944,142.224,-540.964,0,0
286205,143.509,-539.13,0,0
286465,144.762,-537.482,0,0
286725,145.915,-536.004,0,0
286986,147.007,-534.677,0,0
287246,147.955,-533.475,0,0
287506,148.712,-532.368,0,0
287767,149.274,-531.237,0,0
288027,149.703,-529.997,0,0
288287,150.045,-528.602,0,0
288548,150.397,-527.072,0,0
288808,150.806,-525.412,0,0
289068,151.3,-523.669,0,0
289329,151.914,-521.886,0,0
289589,152.625,-520.094,0,0
289849,153.39,-518.283,0,0
290109,154.244,-516.434,0,0
290370,155.202,-514.487,0,0
290630,156.403,-512.55,0,0
290890,157.849,-510.734,0,0
291151,159.424,-509.123,0,0
291411,161.032,-507.694,0,0
291671,162.583,-506.441,0,0
291932,164.058,-505.271,0,0
292192,165.476,-504.098,0,0
292452,166.933,-502.875,0,0
292713,168.479,-501.679,0,0
292973,170.101,-500.539,0,0
293233,171.76,-499.49,0,0
293494,173.447,-498.528,0,0
293754,175.137,-497.642,0,0
294014,176.825,-496.806,0,0
294275,178.485,-495.987,0,0
294535,180.17,-495.145,0,0
294795,181.905,-494.284,0,0
295056,183.778,-493.403,0,0
295316,185.78,-492.63,0,0
295576,187.835,-491.963,0,0
295837,189.971,-491.361,0,0
296097,192.147,-490.854,0,0
296357,194.384,-490.4,0,0
296618,196.728,-490.011,0,0
296878,199.172,-489.731,0,0
297138,201.73,-489.603,0,0
297399,204.399,-489.623,0,0
297659,207.13,-489.866,0,0
297919,209.858,-490.344,0,0
298180,212.533,-491.019,0,0
298440,215.114,-491.808,0,0
298700.2,217.654,-492.727,0,0
298960.525,220.252,-493.585,0,0
299220.85,222.851,-494.693,0,0
299481.175,225.459,-495.841,0,0
299741.5,228.273,-497.218,0,0
300001.825,231.055,-498.79,0,0
300262.15,233.865,-500.559,0,0
300522.475,236.635,-502.5,0,0
300782.8,239.486,-504.629,0,0
301043.125,242.333,-507.187,0,0
301303.45,245.34,-509.944,0,0
301563.775,248.288,-513.114,0,0
301824.1,251.092,-516.837,0,0
302084.425,253.899,-521.141,0,0
302344.75,256.263,-525.914,0,0
302605.075,258.141,-531.384,0,0
302865.4,259.283,-537.228,0,0
303125.725,259.586,-543.325,0,0
303386.05,259.02,-549.389,0,0
303646.375,257.674,-555.239,0,0
303906.7,255.725,-560.708,0,0
304167.025,253.332,-565.773,0,0
304427.35,250.577,-570.44,0,0
304687.675,247.584,-574.746,0,0
304948.0,244.391,-578.72,0,0
305208.325,241.043,-582.37,0,0
305468.65,237.528,-585.792,0,0
305728.975,233.82,-589,0,0
305989.3,229.879,-591.912,0,0
306249.625,225.77,-594.433,0,0
306509.95,221.54,-596.59,0,0
306770.275,217.272,-598.402,0,0
307030.6,213.024,-599.851,0,0
307290.925,208.802,-601.026,0,0
307551.25,204.622,-601.915,0,0
307811.575,200.508,-602.564,0,0
308071.9,196.41,-602.99,0,0
308332.225,192.369,-603.169,0,0
308592.55,188.389,-603.079,0,0
308852.875,184.476,-602.771,0,0
309113.2,180.677,-602.169,0,0
309373.525,177.058,-601.329,0,0
309633.85,173.658,-600.257,0,0
309894.175,170.489,-599.034,0,0
310154.5,167.595,-597.714,0,0
310414.825,164.931,-596.397,0,0
310675.15,162.438,-595.099,0,0
310935.475,160.103,-593.816,0,0
311195.8,157.87,-592.564,0,0
311456.125,155.714,-591.353,0,0
311716.45,153.657,-590.166,0,0
311976.775,151.628,-588.994,0,0
312237.1,149.621,-587.856,0,0
312497.425,147.641,-586.698,0,0
312757.75,145.659,-585.504,0,0
313018.075,143.696,-584.259,0,0
313278.4,141.746,-582.969,0,0
313538.725,139.834,-581.59,0,0
313799.05,137.989,-580.149,0,0
314059.375,136.171,-578.605,0,0
314319.7,134.451,-576.982,0,0
314580,132.876,-575.271,0,0
314840,131.415,-573.473,0,0
315101,130.128,-571.668,0,0
315361,128.972,-569.88,0,0
315621,128.038,-568.117,0,0
315882,127.246,-566.449,0,0
316142,126.519,-564.806,0,0
316402,125.881,-563.286,0,0
316663,125.355,-561.914,0,0
316923,124.677,-560.617,0,0
317183,124.125,-559.346,0,0
317444,123.537,-558.161,0,0
317704,122.936,-556.941,0,0
317964,122.421,-555.864,0,0
318225,121.881,-554.704,0,0
318485,121.346,-553.647,0,0
318745,120.771,-552.571,0,0
319006,120.312,-551.488,0,0
319266,119.802,-550.447,0,0
319526,119.487,-549.396,0,0
319787,119.061,-548.433,0,0
320047,118.617,-547.585,0,0
320307,118.271,-546.676,0,0
320567,117.812,-545.921,0,0
320828,117.452,-545.154,0,0
321088,116.988,-544.43,0,0
321348,116.497,-543.65,0,0
321609,115.952,-542.913,0,0
321869,115.491,-542.218,0,0
322129,115.027,-541.448,0,0
322390,114.56,-540.759,0,0
322650,113.996,-540.008,0,0
322910,113.557,-539.41,0,0
323171,113.058,-538.741,0,0
323431,112.436,-538.106,0,0
323691,111.945,-537.41,0,0
323952,111.211,-536.77,0,0
324212,110.668,-536.014,0,0
324472,110.1,-535.308,0,0
324733,109.525,-534.499,0,0
324993,108.976,-533.613,0,0
325253,108.586,-532.797,0,0
325514,108.224,-531.957,0,0
325774,107.766,-531.295,0,0
326034,107.578,-530.648,0,0
326295,107.204,-530.057,0,0
326555,106.832,-529.491,0,0
326815,106.526,-529.031,0,0
327076,106.057,-528.588,0,0
327336,105.601,-528.141,0,0
327596,104.997,-527.73,0,0
327857,104.436,-527.304,0,0
328117,103.852,-526.844,0,0
328377,103.205,-526.404,0,0
328638,102.523,-525.84,0,0
328898,101.909,-525.397,0,0
329158,101.197,-524.89,0,0
329419,100.563,-524.319,0,0
329679,99.8758,-523.772,0,0
329939,99.1699,-523.304,0,0
330200,98.5318,-522.711,0,0
330460,97.8292,-522.179,0,0
330720.15,97.1499,-521.612,0,0
330980.475,96.426,-521.118,0,0
331240.8,95.7523,-520.576,0,0
331501.125,94.8795,-520.144,0,0
331761.45,94.1654,-519.595,0,0
332021.775,93.2717,-519.082,0,0
332282.1,92.4111,-518.531,0,0
332542.425,91.4959,-517.993,0,0
332802.75,90.5368,-517.357,0,0
333063.075,89.5913,-516.695,0,0
333323.4,88.5648,-516.017,0,0
333583.725,87.5295,-515.263,0,0
333844.05,86.5009,-514.444,0,0
334104.375,85.4625,-513.621,0,0
334364.7,84.5148,-512.702,0,0
334625.025,83.502,-511.729,0,0
334885.35,82.5805,-510.679,0,0
335145.675,81.6727,-509.705,0,0
335406.0,80.7525,-508.742,0,0
335666.325,79.8623,-507.731,0,0
335926.65,78.9002,-506.547,0,0
336186.975,78.0143,-505.496,0,0
336447.3,77.1835,-504.286,0,0
336707.625,76.3832,-503.051,0,0
336967.95,75.5497,-501.828,0,0
337228.275,74.7776,-500.526,0,0
337488.6,74.0398,-499.302,0,0
337748.925,73.3595,-497.95,0,0
338009.25,72.7363,-496.549,0,0
338269.575,72.1765,-495.326,0,0
338529.9,71.6043,-493.977,0,0
338790.225,71.0593,-492.708,0,0
339050.55,70.5133,-491.365,0,0
339310.875,69.9701,-490.016,0,0
339571.2,69.5161,-488.676,0,0
339831.525,69.0681,-487.344,0,0
340091.85,68.6139,-485.936,0,0
340352.175,68.2227,-484.658,0,0
340612.5,67.845,-483.215,0,0
340872.825,67.5075,-481.785,0,0
341133.15,67.1689,-480.409,0,0
341393.475,66.9161,-479.006,0,0
341653.8,66.7653,-477.592,0,0
341914.125,66.5762,-476.184,0,0
342174.45,66.4369,-474.776,0,0
342434.775,66.3346,-473.375,0,0
342695.1,66.26,-472.02,0,0
342955.425,66.3208,-470.698,0,0
343215.75,66.3191,-469.401,0,0
343476.075,66.3989,-468.046,0,0
343736.4,66.5143,-466.736,0,0
343996.725,66.6019,-465.5,0,0
344257.05,66.8141,-464.305,0,0
344517.375,66.9995,-463.17,0,0
344777.7,67.1829,-462.115,0,0
345038.025,67.4107,-461.029,0,0
345298.35,67.6045,-459.963,0,0
345558.675,67.83,-459.037,0,0
345819.0,68.0444,-458.133,0,0
346079.325,68.1951,-457.235,0,0
346339.65,68.4009,-456.388,0,0
346599.975,68.5479,-455.604,0,0
346860,68.5903,-454.854,0,0
347121,68.6305,-454.097,0,0
347381,68.6466,-453.37,0,0
347641,68.5961,-452.529,0,0
347902,68.4986,-451.765,0,0
348162,68.3796,-450.987,0,0
348422,68.2373,-450.181,0,0
348683,68.0177,-449.301,0,0
348943,67.8402,-448.338,0,0
349203,67.6361,-447.337,0,0
349464,67.4981,-446.334,0,0
349724,67.3804,-445.307,0,0
349984,67.2906,-444.297,0,0
350245,67.1988,-443.226,0,0
350505,67.1037,-442.109,0,0
350765,66.9927,-441.015,0,0
351025,66.9493,-439.779,0,0
351286,66.9542,-438.562,0,0
351546,67.0127,-437.306,0,0
351806,67.1294,-436.03,0,0
352067,67.3672,-434.78,0,0
352327,67.6326,-433.558,0,0
352587,68.0488,-432.4,0,0
352848,68.4765,-431.248,0,0
353108,68.8737,-430.178,0,0
353368,69.3114,-429.188,0,0
353629,69.8403,-428.161,0,0
353889,70.3339,-427.236,0,0
354149,70.8827,-426.363,0,0
354410,71.3502,-425.527,0,0
354670,71.8537,-424.756,0,0
354930,72.3501,-424.024,0,0
355191,72.8803,-423.346,0,0
355451,73.4416,-422.696,0,0
355711,73.9535,-422.221,0,0
355972,74.385,-421.761,0,0
356232,74.7635,-421.386,0,0
356492,75.0465,-421.084,0,0
356753,75.2379,-420.699,0,0
357013,75.32,-420.341,0,0
357273,75.33,-419.923,0,0
357534,75.2945,-419.53,0,0
357794,75.1699,-419.045,0,0
358054,74.9959,-418.473,0,0
358315,74.7876,-417.837,0,0
358575,74.6068,-417.098,0,0
358835,74.4268,-416.301,0,0
359096,74.2898,-415.455,0,0
359356,74.1818,-414.491,0,0
359616,74.0716,-413.443,0,0
359877,74.0864,-412.414,0,0
360137,74.1914,-411.362,0,0
360397,74.2737,-410.296,0,0
360658,74.4519,-409.208,0,0
360918,74.6423,-408.146,0,0
361178,74.9395,-407.028,0,0
361438,75.2885,-405.99,0,0
361699,75.7033,-404.916,0,0
361959,76.1173,-403.927,0,0
362219,76.6051,-402.967,0,0
362480,77.0666,-402.045,0,0
362740.1,77.5994,-401.156,0,0
363000.425,78.112,-400.28,0,0
363260.75,78.6113,-399.419,0,0
363521.075,79.1412,-398.564,0,0
363781.4,79.6865,-397.738,0,0
364041.725,80.2654,-396.884,0,0
364302.05,80.8953,-396.066,0,0
364562.375,81.5637,-395.263,0,0
364822.7,82.2975,-394.524,0,0
365083.025,83.0033,-393.822,0,0
365343.35,83.7952,-393.185,0,0
365603.675,84.5682,-392.653,0,0
365864.0,85.3422,-392.195,0,0
366124.325,86.068,-391.806,0,0
366384.65,86.6707,-391.448,0,0
366644.975,87.3307,-391.109,0,0
366905.3,87.904,-390.772,0,0
367165.625,88.4548,-390.428,0,0
367425.95,89.0235,-390.1,0,0
367686.275,89.5958,-389.802,0,0
367946.6,90.1495,-389.57,0,0
368206.925,90.6922,-389.293,0,0
368467.25,91.2175,-389.048,0,0
368727.575,91.685,-388.891,0,0
368987.9,92.1948,-388.708,0,0
369248.225,92.6853,-388.597,0,0
369508.55,93.1769,-388.504,0,0
369768.875,93.5896,-388.475,0,0
370029.2,93.9278,-388.559,0,0
370289.525,94.1868,-388.62,0,0
370549.85,94.3538,-388.651,0,0
370810.175,94.3324,-388.771,0,0
371070.5,94.2831,-388.764,0,0
371330.825,94.0707,-388.72,0,0
371591.15,93.8269,-388.534,0,0
371851.475,93.5298,-388.208,0,0
372111.8,93.2639,-387.802,0,0
372372.125,93.0018,-387.275,0,0
372632.45,92.8109,-386.656,0,0
372892.775,92.756,-386.026,0,0
373153.1,92.6845,-385.277,0,0
373413.425,92.6793,-384.572,0,0
373673.75,92.7765,-383.817,0,0
373934.075,92.901,-383.081,0,0
374194.4,93.1187,-382.361,0,0
374454.725,93.3596,-381.616,0,0
374715.05,93.6269,-380.977,0,0
374975.375,93.8921,-380.338,0,0
375235.7,94.1833,-379.719,0,0
375496.025,94.4847,-379.109,0,0
375756.35,94.8343,-378.581,0,0
376016.675,95.1312,-378.043,0,0
376277.0,95.4625,-377.519,0,0
376537.325,95.698,-377.065,0,0
376797.65,95.8632,-376.601,0,0
377057.975,96.0171,-376,0,0
377318.3,96.1653,-375.425,0,0
377578.625,96.2954,-374.738,0,0
377838.95,96.5238,-374.042,0,0
378099.275,96.7833,-373.282,0,0
378359.6,97.0966,-372.552,0,0
378619.925,97.4608,-371.804,0,0
378880,97.878,-371.093,0,0
379141,98.2998,-370.367,0,0
379401,98.8234,-369.661,0,0
379661,99.2642,-368.985,0,0
379922,99.8015,-368.375,0,0
380182,100.328,-367.813,0,0
380442,100.869,-367.211,0,0
380703,101.352,-366.671,0,0
380963,101.906,-366.122,0,0
381223,102.387,-365.617,0,0
381483,102.879,-365.113,0,0
381744,103.361,-364.579,0,0
382004,103.845,-364.005,0,0
382264,104.367,-363.409,0,0
382525,104.892,-362.828,0,0
382785,105.509,-362.242,0,0
383045,106.11,-361.707,0,0
383306,106.734,-361.209,0,0
383566,107.406,-360.726,0,0
383826,108.036,-360.222,0,0
384087,108.664,-359.781,0,0
384347,109.378,-359.359,0,0
384607,110.076,-358.98,0,0
384868,110.72,-358.615,0,0
385128,111.37,-358.307,0,0
385388,111.978,-358.004,0,0
385649,112.541,-357.706,0,0
385909,113.077,-357.343,0,0
386169,113.647,-356.97,0,0
386430,114.21,-356.563,0,0
386690,114.831,-356.185,0,0
386950,115.417,-355.808,0,0
387211,116.022,-355.468,0,0
387471,116.603,-355.085,0,0
387731,117.146,-354.678,0,0
387992,117.693,-354.263,0,0
388252,118.283,-353.733,0,0
388512,118.965,-353.193,0,0
388773,119.681,-352.625,0,0
389033,120.55,-352.075,0,0
389293,121.441,-351.552,0,0
389554,122.45,-351.093,0,0
389814,123.479,-350.747,0,0
390074,124.576,-350.498,0,0
390335,125.599,-350.275,0,0
390595,126.601,-350.194,0,0
390855,127.602,-350.106,0,0
391116,128.592,-350.031,0,0
391376,129.472,-349.998,0,0
391636,130.354,-350.045,0,0
391896,131.197,-350.023,0,0
392157,132.089,-350.029,0,0
392417,132.897,-349.998,0,0
392677,133.788,-350.01,0,0
392938,134.645,-350.027,0,0
393198,135.431,-350.062,0,0
393458,136.22,-350.056,0,0
393719,137.038,-350.043,0,0
393979,137.838,-349.936,0,0
394239,138.641,-349.88,0,0
394500,139.518,-349.773,0,0
394760.05,140.417,-349.604,0,0
395020.375,141.414,-349.451,0,0
395280.7,142.491,-349.304,0,0
395541.025,143.668,-349.161,0,0
395801.35,144.918,-349.05,0,0
396061.675,146.265,-348.993,0,0
396322.0,147.706,-348.995,0,0
396582.325,149.227,-349.145,0,0
396842.65,150.829,-349.359,0,0
397102.975,152.523,-349.727,0,0
397363.3,154.238,-350.216,0,0
397623.625,155.973,-350.889,0,0
397883.95,157.712,-351.692,0,0
398144.275,159.48,-352.673,0,0
398404.6,161.167,-353.812,0,0
398664.925,162.873,-355.143,0,0
398925.25,164.483,-356.618,0,0
399185.575,166.04,-358.35,0,0
399445.9,167.421,-360.279,0,0
399706.225,168.669,-362.339,0,0
399966.55,169.7,-364.565,0,0
400006.6,169.846,-364.953,0,0