File: Accelerated corrosion test data/2025-10-16_18-00-04/sample_3.csv
Frequency (Hz),Impedance (ohms),Phase (Radians),Temperature (C),Humidity (%)
10000.0,251.212,-11856.1,0,0
10260.325,244.807,-11557.2,0,0
10520.65,238.934,-11273.3,0,0
10780.975,235.4,-11001.5,0,0
11041.3,229.213,-10748.1,0,0
11301.625,223.575,-10501.7,0,0
11561.95,218.412,-10266.7,0,0
11822.275,214.455,-10041.6,0,0
12082.6,211.719,-9827.16,0,0
12342.925,210.064,-9620.33,0,0
12603.25,202.694,-9424.91,0,0
12863.575,199.316,-9233.93,0,0
13123.9,199.086,-9049.62,0,0
13384.225,192.495,-8880.78,0,0
13644.55,188.899,-8711.56,0,0
13904.875,185.211,-8546.85,0,0
14165.2,185.357,-8390.19,0,0
14425.525,180.528,-8240.31,0,0
14685.8,179.218,-8092.79,0,0
14946.175,175.751,-7954.55,0,0
15206.5,173.341,-7812.5,0,0
15466.825,183.573,-7670.9,0,0
15727.15,190.038,-7573.93,0,0
15987.5,172.566,-7457.18,0,0
16247.8,167.904,-7327.86,0,0
16508.125,161.305,-7214.69,0,0
16768.45,167.845,-7093.77,0,0
17028.775,157.299,-6994.9,0,0
17289.1,161.42,-6880.68,0,0
17549.425,155.759,-6789.03,0,0
17809.75,156.17,-6683.24,0,0
18070.075,162.194,-6597.99,0,0
18330.4,151.688,-6501.26,0,0
18590.725,148.192,-6409.92,0,0
18851.05,144.947,-6319.02,0,0
19111.375,146.533,-6230.2,0,0
19371.7,144.718,-6145.78,0,0
19632.025,146.169,-6061.07,0,0
19892.35,150.442,-5980.31,0,0
20152.675,147.509,-5905.07,0,0
20413.0,158.993,-5825.64,0,0
20673.3,166.678,-5764.7,0,0
20933.65,163.727,-5704.72,0,0
21193.975,159.863,-5639.84,0,0
21454.3,145.072,-5579.48,0,0
21714.625,138.421,-5503.56,0,0
21974.9,143.249,-5437.44,0,0
22235.275,138.828,-5378.51,0,0
22495.6,136.58,-5316.68,0,0
22755.925,129.164,-5255.87,0,0
23016.25,128.197,-5196.46,0,0
23276.6,128.188,-5134.12,0,0
23536.9,128.837,-5088.4,0,0
23797.225,121.083,-5029.05,0,0
24057.55,119.097,-4971.58,0,0
24317.875,119.419,-4915.45,0,0
24578.2,116.297,-4866.24,0,0
24838.525,117.789,-4812.06,0,0
25098.85,115.016,-4764.91,0,0
25359.175,113.598,-4714.81,0,0
25619.5,113.594,-4667.33,0,0
25879.8,111.064,-4619.99,0,0
26140.1,108.674,-4572.61,0,0
26400.5,107.61,-4525.19,0,0
26660.8,107.984,-4479.82,0,0
26921.1,108.683,-4435.56,0,0
27181.4,108.795,-4394.82,0,0
27441.8,107.285,-4350.88,0,0
27702.1,107.966,-4311.26,0,0
27962.4,105.527,-4270.21,0,0
28222.7,103.905,-4227.41,0,0
28483.1,111.322,-4184.88,0,0
28743.4,113.927,-4149.76,0,0
29003.7,115.579,-4120.78,0,0
29264,107.796,-4087.06,0,0
29524.4,108.705,-4049.66,0,0
29784.7,104.228,-4014.29,0,0
30045,102.021,-3980.47,0,0
30305.3,100.732,-3942.59,0,0
30565.7,102.012,-3909.07,0,0
30826,101.496,-3876.55,0,0
31086.3,102.343,-3843.24,0,0
31346.6,99.0157,-3813.34,0,0
31607,97.5407,-3778.7,0,0
31867.3,98.1461,-3744.81,0,0
32127.6,101.732,-3711.02,0,0
32387.9,110.366,-3683.1,0,0
32648.3,112.182,-3664.33,0,0
32908.6,104.068,-3640.7,0,0
33168.9,100.97,-3613.33,0,0
33429.2,99.0376,-3586.04,0,0
33689.6,93.1508,-3558.23,0,0
33949.9,90.5033,-3528.07,0,0
34210.2,90.5567,-3500.01,0,0
34470.5,90.0729,-3473.4,0,0
34730.9,88.3328,-3447.45,0,0
34991.2,86.435,-3420.79,0,0
35251.5,85.8943,-3394.43,0,0
35511.8,84.8668,-3369.07,0,0
35772.2,84.2263,-3343.66,0,0
36032.5,83.4239,-3318.74,0,0
36292.8,82.7937,-3294.18,0,0
36553.1,82.1844,-3270.25,0,0
36813.5,81.4062,-3246.88,0,0
37073.8,80.7428,-3223.47,0,0
37334.1,80.1932,-3200.18,0,0
37594.4,79.851,-3177.35,0,0
37854.8,79.3155,-3155.27,0,0
38115.1,78.833,-3133.14,0,0
38375.4,78.2768,-3111.37,0,0
38635.7,77.9542,-3089.69,0,0
38896.1,77.4175,-3068.42,0,0
39156.4,77.2066,-3047.52,0,0
39416.7,77.1259,-3027.22,0,0
39677,76.4958,-3007.03,0,0
39937.4,75.6338,-2986.78,0,0
40197.7,75.3402,-2966.69,0,0
40458,74.8682,-2947.17,0,0
40718.3,74.4898,-2927.52,0,0
40978.7,74.0739,-2908.14,0,0
41239,74.2906,-2889.03,0,0
41499.3,74.2084,-2870.86,0,0
41759.6,74.2751,-2852.27,0,0
42020,73.6658,-2834.59,0,0
42280.275,73.4187,-2816.53,0,0
42540.6,72.8653,-2798.73,0,0
42800.925,73.3305,-2781.38,0,0
43061.25,72.433,-2764.62,0,0
43321.575,71.8975,-2747.13,0,0
43581.9,71.8214,-2729.9,0,0
43842.225,71.7936,-2712.9,0,0
44102.55,71.9303,-2696.43,0,0
44362.875,72.1065,-2680.65,0,0
44623.2,71.4065,-2664.64,0,0
44883.525,71.1869,-2648.49,0,0
45143.85,70.9293,-2632.82,0,0
45404.175,70.3709,-2617.52,0,0
45664.5,70.119,-2601.68,0,0
45924.825,71.1259,-2586.29,0,0
46185.15,70.2837,-2572.1,0,0
46445.475,69.693,-2556.65,0,0
46705.8,69.9274,-2541.58,0,0
46966.125,69.9499,-2527.08,0,0
47226.45,69.4162,-2512.8,0,0
47486.775,69.5189,-2498.02,0,0
47747.1,69.9572,-2483.71,0,0
48007.425,70.2199,-2470.74,0,0
48267.75,70.2285,-2457.48,0,0
48528.075,69.5297,-2444.28,0,0
48788.4,69.2608,-2431.05,0,0
49048.725,68.5514,-2417.82,0,0
49309.05,67.8565,-2404.18,0,0
49569.375,67.9568,-2390.93,0,0
49829.7,67.5916,-2378.16,0,0
50090.025,66.9929,-2365.45,0,0
50350.35,66.5577,-2352.34,0,0
50610.675,66.2982,-2339.31,0,0
50871.0,66.3121,-2326.51,0,0
51131.325,66.2097,-2314.14,0,0
51391.65,65.9136,-2301.57,0,0
51651.975,66.0587,-2289.24,0,0
51912.3,66.2081,-2277.26,0,0
52172.625,65.993,-2265.34,0,0
52432.95,65.8954,-2253.04,0,0
52693.275,65.9614,-2241.12,0,0
52953.6,66.4331,-2229.15,0,0
53213.925,67.0598,-2217.38,0,0
53474.25,67.908,-2206.54,0,0
53734.575,68.106,-2195.83,0,0
53994.9,68.4049,-2184.87,0,0
54255.225,69.3676,-2173.91,0,0
54515.55,70.3235,-2164.85,0,0
54775.875,69.396,-2155.63,0,0
55036.2,68.6949,-2145.63,0,0
55296.525,67.9809,-2136.03,0,0
55556.85,66.6914,-2126.27,0,0
55817.175,65.1598,-2115.69,0,0
56077.5,64.1387,-2105.08,0,0
56337.825,63.4239,-2094.46,0,0
56598.15,62.4645,-2083.99,0,0
56858.475,61.7919,-2073.24,0,0
57118.8,61.2314,-2062.31,0,0
57379.125,61.0937,-2051.7,0,0
57639.45,60.9732,-2041.12,0,0
57899.775,61.1536,-2030.88,0,0
58160.1,61.137,-2020.89,0,0
58420.4,61.0512,-2010.98,0,0
58680.7,60.958,-2000.86,0,0
58941.1,61.1912,-1990.98,0,0
59201.4,61.3789,-1981.09,0,0
59461.7,61.6391,-1971.29,0,0
59722,61.9393,-1961.81,0,0
59982.4,62.2266,-1952.37,0,0
60242.7,62.5434,-1942.99,0,0
60503,62.6554,-1933.75,0,0
60763.3,63.0085,-1924.58,0,0
61023.7,63.3558,-1915.29,0,0
61284,63.7381,-1906.18,0,0
61544.3,64.4074,-1897.02,0,0
61804.6,64.9173,-1888.58,0,0
62065,64.9912,-1879.37,0,0
62325.3,65.7123,-1870.44,0,0
62585.6,66.1731,-1861.82,0,0
62845.9,66.7574,-1852.74,0,0
63106.3,67.8527,-1843.81,0,0
63366.6,69.1274,-1835.47,0,0
63626.9,69.8334,-1826.62,0,0
63887.2,71.495,-1818.3,0,0
64147.6,72.7286,-1809.67,0,0
64407.9,75.2515,-1801.06,0,0
64668.2,77.9801,-1793.59,0,0
64928.5,80.8262,-1786.1,0,0
65188.9,84.5412,-1780.36,0,0
65449.2,87.3937,-1775.11,0,0
65709.5,89.4358,-1771.52,0,0
65969.8,92.1636,-1768.22,0,0
66230.2,91.6262,-1768.47,0,0
66490.5,85.8193,-1766.33,0,0
66750.8,80.9289,-1759.24,0,0
67011.1,78.2325,-1750.85,0,0
67271.5,75.8817,-1742.61,0,0
67531.8,75.0404,-1734.1,0,0
67792.1,75.1178,-1725.79,0,0
68052.4,75.0474,-1718.11,0,0
68312.8,76.2295,-1711.04,0,0
68573.1,76.2348,-1704.98,0,0
68833.4,76.1868,-1698.21,0,0
69093.7,77.0552,-1691.8,0,0
69354.1,77.4507,-1686.53,0,0
69614.4,77.0534,-1681.15,0,0
69874.7,75.9968,-1675.56,0,0
70135,75.1734,-1669.78,0,0
70395.4,74.4419,-1663.89,0,0
70655.7,73.1251,-1657.89,0,0
70916,71.8528,-1651.54,0,0
71176.3,70.9049,-1644.91,0,0
71436.7,70.1384,-1638.15,0,0
71697,69.2964,-1631.23,0,0
71957.3,69.4696,-1624.29,0,0
72217.6,69.6025,-1618.19,0,0
72478,69.6446,-1612.04,0,0
72738.3,69.6577,-1606.18,0,0
72998.6,69.4222,-1600.74,0,0
73258.9,68.8369,-1594.98,0,0
73519.3,68.4139,-1589.27,0,0
73779.6,67.9923,-1583.58,0,0
74039.9,67.4503,-1578.11,0,0
74300.225,66.6619,-1572.4,0,0
74560.55,65.8477,-1566.71,0,0
74820.875,65.1626,-1560.99,0,0
75081.2,64.361,-1555.21,0,0
75341.525,63.6106,-1549.36,0,0
75601.85,62.8735,-1543.61,0,0
75862.175,62.0988,-1537.68,0,0
76122.5,61.3914,-1531.7,0,0
76382.825,60.817,-1525.81,0,0
76643.15,60.2239,-1519.89,0,0
76903.475,59.654,-1514.11,0,0
77163.8,59.2156,-1508.24,0,0
77424.125,58.7688,-1502.5,0,0
77684.45,58.2059,-1496.74,0,0
77944.775,57.7516,-1491.02,0,0
78205.1,57.2508,-1485.23,0,0
78465.425,56.784,-1479.55,0,0
78725.75,56.4019,-1473.8,0,0
78986.075,56.0149,-1468.06,0,0
79246.4,55.6193,-1462.42,0,0
79506.725,55.2201,-1456.71,0,0
79767.05,54.9979,-1451.08,0,0
80027.375,54.7525,-1445.49,0,0
80287.7,54.5055,-1439.9,0,0
80548.025,54.2542,-1434.35,0,0
80808.35,54.0366,-1428.88,0,0
81068.675,53.8562,-1423.43,0,0
81329.0,53.666,-1417.89,0,0
81589.325,53.4044,-1412.57,0,0
81849.65,53.2854,-1407.16,0,0
82109.975,53.1965,-1401.83,0,0
82370.3,53.0993,-1396.46,0,0
82630.625,52.9831,-1391.16,0,0
82890.95,52.8898,-1385.97,0,0
83151.275,52.8411,-1380.72,0,0
83411.6,52.7567,-1375.53,0,0
83671.925,52.657,-1370.34,0,0
83932.25,52.652,-1365.22,0,0
84192.575,52.6208,-1360.15,0,0
84452.9,52.5852,-1355.05,0,0
84713.225,52.5324,-1349.98,0,0
84973.55,52.5661,-1344.96,0,0
85233.875,52.5441,-1339.98,0,0
85494.2,52.5771,-1334.98,0,0
85754.525,52.5702,-1330.02,0,0
86014.85,52.6822,-1325.17,0,0
86275.175,52.6151,-1320.34,0,0
86535.5,52.678,-1315.45,0,0
86795.825,52.7228,-1310.55,0,0
87056.15,52.7558,-1305.72,0,0
87316.475,52.8558,-1300.86,0,0
87576.8,52.9731,-1296.07,0,0
87837.125,53.1609,-1291.28,0,0
88097.45,53.2264,-1286.56,0,0
88357.775,53.2932,-1281.83,0,0
88618.1,53.4527,-1277.06,0,0
88878.425,53.7198,-1272.21,0,0
89138.75,54.0913,-1267.33,0,0
89399.075,54.6138,-1262.71,0,0
89659.4,55.0892,-1258.2,0,0
89919.725,55.6406,-1253.77,0,0
90180,56.0957,-1249.48,0,0
90440.4,56.531,-1245.18,0,0
90700.7,56.8209,-1240.93,0,0
90961,57.3612,-1236.53,0,0
91221.3,57.8159,-1232.44,0,0
91481.7,58.2058,-1228.34,0,0
91742,58.6518,-1224.34,0,0
92002.3,59.1138,-1220.27,0,0
92262.6,59.5296,-1216.18,0,0
92523,60.2813,-1212.23,0,0
92783.3,60.8719,-1208.65,0,0
93043.6,61.2523,-1204.94,0,0
93303.9,61.9024,-1201.27,0,0
93564.3,62.643,-1197.98,0,0
93824.6,63.2006,-1194.93,0,0
94084.9,63.5583,-1192.37,0,0
94345.2,62.9638,-1189.77,0,0
94605.6,62.4463,-1186.65,0,0
94865.9,61.9683,-1183.63,0,0
95126.2,60.7806,-1180.81,0,0
95386.5,59.1948,-1177.09,0,0
95646.9,58.1175,-1172.77,0,0
95907.2,57.4514,-1168.51,0,0
96167.5,56.6855,-1164.2,0,0
96427.8,56.3122,-1159.63,0,0
96688.2,56.2696,-1155.33,0,0
96948.5,56.2711,-1151.25,0,0
97208.8,56.1268,-1147.18,0,0
97469.1,56.1087,-1143.18,0,0
97729.5,56.0391,-1139.23,0,0
97989.8,55.9564,-1135.26,0,0
98250.1,55.9211,-1131.31,0,0
98510.4,55.8801,-1127.39,0,0
98770.8,55.9433,-1123.55,0,0
99031.1,55.8753,-1119.8,0,0
99291.4,55.7072,-1116.04,0,0
99551.7,55.5414,-1112.17,0,0
99812.1,55.4358,-1108.24,0,0
100072,55.33,-1104.32,0,0
100333,55.2415,-1100.43,0,0
100593,55.1335,-1096.49,0,0
100853,55.0333,-1092.45,0,0
101114,55.0845,-1088.31,0,0
101374,55.1912,-1084.24,0,0
101634,55.3687,-1080.11,0,0
101895,55.6623,-1076.03,0,0
102155,55.9719,-1071.91,0,0
102415,56.4857,-1067.73,0,0
102676,57.4605,-1063.67,0,0
102936,58.4405,-1060.1,0,0
103196,59.2386,-1056.79,0,0
103457,59.8151,-1053.41,0,0
103717,60.4302,-1050.02,0,0
103977,61.1237,-1046.61,0,0
104238,62.1071,-1043.39,0,0
104498,63.1143,-1040.74,0,0
104758,63.4499,-1038.39,0,0
105019,63.5164,-1035.71,0,0
105279,63.4969,-1032.97,0,0
105539,63.529,-1030.06,0,0
105800,63.547,-1027.36,0,0
106060,63.3677,-1024.55,0,0
106320.175,62.9985,-1021.74,0,0
106580.5,62.6615,-1018.69,0,0
106840.825,62.3234,-1015.72,0,0
107101.15,61.8484,-1012.61,0,0
107361.475,61.4396,-1009.33,0,0
107621.8,61.0261,-1006.07,0,0
107882.125,60.6543,-1002.65,0,0
108142.45,60.3152,-999.259,0,0
108402.775,59.949,-995.84,0,0
108663.1,59.5235,-992.286,0,0
108923.425,59.2461,-988.603,0,0
109183.75,59.0805,-984.774,0,0
109444.075,59.169,-980.974,0,0
109704.4,59.1626,-977.397,0,0
109964.725,59.2623,-973.649,0,0
110225.05,59.3301,-969.945,0,0
110485.375,59.3873,-966.121,0,0
110745.7,59.9719,-962.341,0,0
111006.025,60.5634,-958.851,0,0
111266.35,61.0856,-955.443,0,0
111526.675,61.4413,-952.128,0,0
111787.0,61.9792,-948.717,0,0
112047.325,62.514,-945.402,0,0
112307.65,62.9852,-942.245,0,0
112567.975,63.3833,-939.082,0,0
112828.3,63.7222,-935.961,0,0
113088.625,64.0867,-932.825,0,0
113348.95,64.4006,-929.643,0,0
113609.275,64.6567,-926.428,0,0
113869.6,64.9578,-923.21,0,0
114129.925,65.3044,-919.955,0,0
114390.25,65.5417,-916.752,0,0
114650.575,65.7836,-913.301,0,0
114910.9,66.2365,-909.855,0,0
115171.225,66.693,-906.42,0,0
115431.55,67.4003,-903.018,0,0
115691.875,68.0834,-899.82,0,0
115952.2,68.6146,-896.528,0,0
116212.525,69.2512,-893.076,0,0
116472.85,70.0625,-889.612,0,0
116733.175,71.1243,-886.337,0,0
116993.5,72.087,-883.262,0,0
117253.825,72.9461,-880.116,0,0
117514.15,73.8755,-876.748,0,0
117774.475,75.2589,-873.267,0,0
118034.8,77.1734,-870.285,0,0
118295.125,78.8662,-867.904,0,0
118555.45,80.2867,-865.788,0,0
118815.775,81.1895,-863.689,0,0
119076.1,82.1252,-860.989,0,0
119336.425,83.599,-858.263,0,0
119596.75,85.5529,-856.099,0,0
119857.075,87.3369,-854.505,0,0
120117.4,89.0106,-853.44,0,0
120377.725,89.9078,-853.076,0,0
120638.05,89.9087,-852.2,0,0
120898.375,89.9565,-851.202,0,0
121158.7,89.3814,-850.156,0,0
121419.025,88.4933,-848.558,0,0
121679.35,87.5568,-846.448,0,0
121939.675,86.7808,-843.791,0,0
122200.0,86.5336,-840.934,0,0
122460,86.5644,-838.211,0,0
122721,86.6412,-835.566,0,0
122981,86.8365,-832.882,0,0
123241,87.2622,-830.279,0,0
123502,87.7293,-827.95,0,0
123762,88.0021,-825.694,0,0
124022,88.2864,-823.374,0,0
124283,88.6094,-821.106,0,0
124543,88.9066,-818.864,0,0
124803,89.2053,-816.657,0,0
125064,89.532,-814.477,0,0
125324,89.8406,-812.439,0,0
125584,90.1314,-810.375,0,0
125845,90.382,-808.439,0,0
126105,90.4894,-806.611,0,0
126365,90.4416,-804.855,0,0
126626,90.1787,-802.907,0,0
126886,90.0092,-800.793,0,0
127146,89.8613,-798.723,0,0
127406,89.6388,-796.665,0,0
127667,89.3398,-794.469,0,0
127927,89.0672,-792.364,0,0
128187,88.7446,-790.163,0,0
128448,88.2674,-787.901,0,0
128708,87.7416,-785.443,0,0
128968,87.3861,-782.812,0,0
129229,87.1283,-780.196,0,0
129489,86.9814,-777.576,0,0
129749,86.7922,-774.962,0,0
130010,86.5979,-772.222,0,0
130270,86.6989,-769.312,0,0
130530,87.0558,-766.609,0,0
130791,87.5099,-764.225,0,0
131051,87.8178,-762.067,0,0
131311,87.8983,-759.958,0,0
131572,87.8651,-757.864,0,0
131832,87.69,-755.71,0,0
132092,87.4404,-753.415,0,0
132353,87.2196,-751.05,0,0
132613,87.0775,-748.607,0,0
132873,87.0028,-746.252,0,0
133134,86.8495,-743.981,0,0
133394,86.6152,-741.626,0,0
133654,86.3384,-739.329,0,0
133915,85.9143,-736.921,0,0
134175,85.4969,-734.263,0,0
134435,85.3327,-731.689,0,0
134696,85.1419,-729.179,0,0
134956,84.7487,-726.646,0,0
135216,84.4124,-723.911,0,0
135477,84.1694,-721.26,0,0
135737,83.9279,-718.619,0,0
135997,83.6301,-715.954,0,0
136258,83.1847,-713.204,0,0
136518,82.74,-710.207,0,0
136778,82.5432,-707.009,0,0
137039,82.5707,-703.878,0,0
137299,82.6504,-700.886,0,0
137559,82.7792,-697.891,0,0
137819,82.9893,-694.942,0,0
138080,83.2335,-692.068,0,0
138340.125,83.5194,-689.272,0,0
138600.45,83.8444,-686.578,0,0
138860.775,84.0383,-684.051,0,0
139121.1,84.124,-681.581,0,0
139381.425,84.021,-679.081,0,0
139641.75,83.7934,-676.443,0,0
139902.075,83.5608,-673.627,0,0
140162.4,83.464,-670.699,0,0
140422.725,83.4771,-667.773,0,0
140683.05,83.4071,-665.024,0,0
140943.375,83.2888,-662.225,0,0
141203.7,83.0862,-659.311,0,0
141464.025,82.8738,-656.347,0,0
141724.35,82.6129,-653.266,0,0
141984.675,82.4079,-650.034,0,0
142245.0,82.3457,-646.794,0,0
142505.325,82.2683,-643.559,0,0
142765.65,82.1784,-640.261,0,0
143025.975,82.133,-636.828,0,0
143286.3,82.2041,-633.421,0,0
143546.625,82.3038,-629.969,0,0
143806.95,82.3949,-626.518,0,0
144067.275,82.5344,-622.99,0,0
144327.6,82.7,-619.362,0,0
144587.925,83.0053,-615.701,0,0
144848.25,83.3735,-612.041,0,0
145108.575,83.794,-608.384,0,0
145368.9,84.2768,-604.791,0,0
145629.225,84.6876,-601.186,0,0
145889.55,85.0825,-597.472,0,0
146149.875,85.5334,-593.602,0,0
146410.2,86.2026,-589.673,0,0
146670.525,86.9367,-585.873,0,0
146930.85,87.6122,-582.031,0,0
147191.175,88.3449,-578.093,0,0
147451.5,89.1454,-574.07,0,0
147711.825,90.0878,-569.939,0,0
147972.15,91.2479,-565.852,0,0
148232.475,92.4799,-561.809,0,0
148492.8,93.7711,-557.799,0,0
148753.125,95.0818,-553.784,0,0
149013.45,96.4227,-549.7,0,0
149273.775,97.9097,-545.489,0,0
149534.1,99.6214,-541.185,0,0
149794.425,101.647,-536.931,0,0
150054.75,103.876,-532.914,0,0
150315.075,106.192,-529.045,0,0
150575.4,108.56,-525.306,0,0
150835.725,110.991,-521.683,0,0
151096.05,113.471,-518.145,0,0
151356.375,116.013,-514.731,0,0
151616.7,118.651,-511.401,0,0
151877.025,121.413,-508.266,0,0
152137.35,124.168,-505.48,0,0
152397.675,126.663,-502.862,0,0
152658.0,129.012,-500.201,0,0
152918.325,131.396,-497.512,0,0
153178.65,133.778,-495.042,0,0
153438.975,135.87,-492.661,0,0
153699.3,137.824,-490.143,0,0
153959.625,139.855,-487.533,0,0
154219.95,141.928,-485.078,0,0
154480,143.704,-482.882,0,0
154741,144.786,-480.425,0,0
155001,145.877,-477.198,0,0
155261,147.369,-473.447,0,0
155522,149.622,-469.679,0,0
155782,151.971,-466.337,0,0
156042,154.434,-463.215,0,0
156303,156.533,-460.202,0,0
156563,158.442,-456.751,0,0
156823,160.809,-452.763,0,0
157084,163.947,-448.855,0,0
157344,167.579,-445.499,0,0
157604,171.418,-442.858,0,0
157864,174.748,-440.764,0,0
158125,177.967,-438.897,0,0
158385,180.56,-437.766,0,0
158645,181.898,-436.411,0,0
158906,182.863,-434.272,0,0
159166,183.346,-431.505,0,0
159426,183.819,-427.733,0,0
159687,184.406,-423.313,0,0
159947,185.513,-417.74,0,0
160207,187.85,-411.445,0,0
160468,191.476,-405.428,0,0
160728,195.914,-400.117,0,0
160988,200.105,-395.551,0,0
161249,203.641,-390.579,0,0
161509,207.951,-384.428,0,0
161769,214.011,-378.515,0,0
162030,220.649,-374.13,0,0
162290,226.558,-370.222,0,0
162550,232.67,-365.879,0,0
162811,238.982,-361.843,0,0
163071,245.367,-357.536,0,0
163331,252.506,-352.837,0,0
163592,260.84,-348.356,0,0
163852,269.887,-344.673,0,0
164112,279.472,-341.77,0,0
164373,289.314,-339.484,0,0
164633,299.648,-337.839,0,0
164893,310.737,-336.92,0,0
165154,322.368,-337.712,0,0
165414,333.139,-340.171,0,0
165674,342.884,-343.004,0,0
165935,352.65,-346.192,0,0
166195,362.164,-349.867,0,0
166455,371.944,-354.366,0,0
166716,381.368,-360.467,0,0
166976,389.296,-367.645,0,0
167236,395.88,-374.709,0,0
167497,401.885,-381.787,0,0
167757,407.266,-389.02,0,0
168017,412.079,-396.422,0,0
168277,416.103,-403.95,0,0
168538,419.678,-411.38,0,0
168798,423.168,-418.957,0,0
169058,426.292,-427.336,0,0
169319,428.013,-436.932,0,0
169579,427.282,-446.49,0,0
169839,424.636,-454.791,0,0
170100,420.952,-461.183,0,0
170360.075,417.429,-465.901,0,0
170620.4,413.809,-469.444,0,0
170880.725,410.838,-472.043,0,0
171141.05,408.069,-474.261,0,0
171401.375,405.268,-475.462,0,0
171661.7,403.607,-475.714,0,0
171922.025,402.861,-476.202,0,0
172182.35,402.188,-476.699,0,0
172442.675,401.858,-476.719,0,0
172703.0,402.541,-476.164,0,0
172963.325,404.865,-476.156,0,0
173223.65,407.876,-478.007,0,0
173483.975,409.886,-481.368,0,0
173744.3,410.453,-484.817,0,0
174004.625,410.405,-487.271,0,0
174264.95,411.222,-489.064,0,0
174525.275,412.977,-491.797,0,0
174785.6,414.002,-496.05,0,0
175045.925,413.373,-500.135,0,0
175306.25,412.116,-503.144,0,0
175566.575,411.766,-505.135,0,0
175826.9,412.454,-507.934,0,0
176087.225,412.754,-512.012,0,0
176347.55,412.011,-516.461,0,0
176607.875,410.954,-520.878,0,0
176868.2,409.186,-526.198,0,0
177128.525,405.205,-531.713,0,0
177388.85,399.721,-535.431,0,0
177649.175,394.15,-537.468,0,0
177909.5,388.98,-538.621,0,0
178169.825,383.494,-539.478,0,0
178430.15,377.739,-538.734,0,0
178690.475,372.77,-536.521,0,0
178950.8,369.229,-533.645,0,0
179211.125,366.655,-530.962,0,0
179471.45,364.437,-528.431,0,0
179731.775,362.53,-525.369,0,0
179992.1,361.869,-522.2,0,0
180252.425,362.082,-519.842,0,0
180512.75,362.152,-518.009,0,0
180773.075,362.51,-516.305,0,0
181033.4,363.185,-514.832,0,0
181293.725,364.415,-513.81,0,0
181554.05,365.904,-513.806,0,0
181814.375,367.109,-514.937,0,0
182074.7,367.239,-517.004,0,0
182335.025,365.891,-518.719,0,0
182595.35,364.124,-519.789,0,0
182855.675,362.32,-520.452,0,0
183116.0,360.448,-521.131,0,0
183376.325,358.062,-521.903,0,0
183636.65,354.991,-522.317,0,0
183896.975,351.34,-522.041,0,0
184157.3,347.698,-520.638,0,0
184417.625,344.739,-518.61,0,0
184677.95,342.008,-516.795,0,0
184938.275,338.92,-514.643,0,0
185198.6,335.941,-511.798,0,0
185458.925,333.254,-508.341,0,0
185719.25,331.054,-504.56,0,0
185979.575,329.232,-500.533,0,0
186239.9,327.789,-496.233,0,0
186500,326.776,-491.587,0,0
186761,326.597,-486.617,0,0
187021,327.307,-482.101,0,0
187281,328.097,-478.052,0,0
187542,329.268,-474.117,0,0
187802,330.842,-470.601,0,0
188062,332.348,-467.602,0,0
188322,333.788,-464.744,0,0
188583,335.279,-462.257,0,0
188843,336.215,-460.189,0,0
189103,336.394,-457.605,0,0
189364,336.79,-454.045,0,0
189624,338.04,-450.117,0,0
189884,340.029,-446.505,0,0
190145,342.312,-443.55,0,0
190405,344.337,-440.934,0,0
190665,346.296,-438.378,0,0
190926,348.182,-435.941,0,0
191186,349.944,-433.573,0,0
191446,351.523,-431.114,0,0
191707,353.006,-428.434,0,0
191967,354.659,-425.508,0,0
192227,356.418,-422.641,0,0
192488,357.959,-419.656,0,0
192748,359.456,-416.119,0,0
193008,361.408,-411.908,0,0
193269,364.06,-407.416,0,0
193529,367.673,-402.978,0,0
193789,371.873,-399.028,0,0
194050,376.292,-395.405,0,0
194310,381.077,-391.971,0,0
194570,386.262,-388.87,0,0
194831,391.702,-386.247,0,0
195091,397.289,-383.701,0,0
195351,403.464,-381.491,0,0
195612,410.144,-379.825,0,0
195872,417.337,-379.165,0,0
196132,424.538,-379.849,0,0
196393,431.058,-381.225,0,0
196653,437.081,-383.593,0,0
196913,441.957,-386.817,0,0
197174,445.081,-389.95,0,0
197434,447.562,-391.87,0,0
197694,450.225,-393.213,0,0
197955,453.086,-394.407,0,0
198215,455.882,-395.615,0,0
198475,458.72,-396.753,0,0
198735,461.642,-398.288,0,0
198996,463.787,-399.853,0,0
199256,465.65,-400.997,0,0
199516,467.595,-401.774,0,0
199777,469.734,-402.685,0,0
200037,471.328,-403.918,0,0
200297,472.112,-404.683,0,0
200558,472.34,-404.448,0,0
200818,472.953,-402.808,0,0
201078,474.734,-400.507,0,0
201339,477.369,-398.336,0,0
201599,480.55,-396.278,0,0
201859,484.103,-394.298,0,0
202120,488.097,-392.329,0,0
202380.025,492.701,-390.369,0,0
202640.35,498.12,-388.797,0,0
202900.675,503.879,-387.978,0,0
203161.0,509.713,-387.619,0,0
203421.325,515.808,-387.655,0,0
203681.65,522.008,-388.269,0,0
203941.975,528.191,-389.417,0,0
204202.3,534.419,-391,0,0
204462.625,540.571,-393.363,0,0
204722.95,546.205,-396.362,0,0
204983.275,551.341,-399.619,0,0
205243.6,556.001,-403.35,0,0
205503.925,559.854,-406.999,0,0
205764.25,563.18,-410.582,0,0
206024.575,565.626,-414.251,0,0
206284.9,566.978,-417.043,0,0
206545.225,568.254,-418.202,0,0
206805.55,570.295,-418.224,0,0
207065.875,573.363,-417.599,0,0
207326.2,577.893,-416.923,0,0
207586.525,583.298,-416.993,0,0
207846.85,588.837,-417.721,0,0
208107.175,594.797,-418.49,0,0
208367.5,601.281,-419.8,0,0
208627.825,608.04,-421.828,0,0
208888.15,614.798,-424.46,0,0
209148.475,621.661,-427.657,0,0
209408.8,628.433,-431.354,0,0
209669.125,635.138,-435.469,0,0
209929.45,641.75,-440.232,0,0
210189.775,648.034,-445.312,0,0
210450.1,654.152,-450.693,0,0
210710.425,660.038,-456.55,0,0
210970.75,665.757,-462.77,0,0
211231.075,671.052,-469.395,0,0
211491.4,675.923,-476.212,0,0
211751.725,680.243,-482.964,0,0
212012.05,684.449,-489.702,0,0
212272.375,688.609,-496.505,0,0
212532.7,692.722,-503.316,0,0
212793.025,696.992,-510.451,0,0
213053.35,701.302,-518,0,0
213313.675,705.405,-526.217,0,0
213574.0,708.832,-534.941,0,0
213834.325,711.466,-543.855,0,0
214094.65,713.603,-552.44,0,0
214354.975,715.687,-560.894,0,0
214615.3,717.579,-569.393,0,0
214875.625,719.495,-578.256,0,0
215135.95,721.083,-587.497,0,0
215396.275,722.04,-597.096,0,0
215656.6,722.367,-606.731,0,0
215916.925,722.019,-616.13,0,0
216177.25,721.359,-625.14,0,0
216437.575,720.785,-634.005,0,0
216697.9,720.091,-643.246,0,0
216958.225,718.604,-652.77,0,0
217218.55,716.388,-661.827,0,0
217478.875,714.016,-670.309,0,0
217739.2,711.744,-678.662,0,0
217999.525,709.312,-687.276,0,0
218259.85,706.182,-696.062,0,0
218520,702.609,-704.328,0,0
218780,698.714,-712.056,0,0
219041,694.924,-719.085,0,0
219301,691.492,-726.007,0,0
219561,688.185,-733.074,0,0
219822,684.955,-740.342,0,0
220082,681.537,-748.038,0,0
220342,677.52,-755.985,0,0
220603,672.971,-763.559,0,0
220863,668.307,-771.063,0,0
221123,663.308,-778.573,0,0
221384,658.252,-785.935,0,0
221644,652.815,-793.719,0,0
221904,646.643,-801.887,0,0
222165,639.28,-809.826,0,0
222425,630.823,-816.803,0,0
222685,621.864,-823.131,0,0
222946,612.385,-828.405,0,0
223206,602.562,-832.951,0,0
223466,592.38,-835.88,0,0
223727,582.776,-837.424,0,0
223987,574.169,-838.214,0,0
224247,565.89,-838.528,0,0
224508,558.362,-838.072,0,0
224768,551.902,-837.186,0,0
225028,546.42,-836.202,0,0
225289,541.735,-835.35,0,0
225549,537.835,-835.197,0,0
225809,534.367,-835.414,0,0
226070,531.158,-836.445,0,0
226330,527.637,-838.017,0,0
226590,523.833,-839.669,0,0
226851,519.963,-841.086,0,0
227111,516.624,-842.958,0,0
227371,513.008,-845.581,0,0
227632,508.799,-848.621,0,0
227892,503.786,-851.413,0,0
228152,498.435,-853.87,0,0
228413,492.984,-856.05,0,0
228673,487.261,-857.813,0,0
228933,481.642,-859.18,0,0
229193,476.237,-860.291,0,0
229454,471.045,-861.471,0,0
229714,465.749,-862.747,0,0
229974,460.433,-863.817,0,0
230235,454.942,-864.981,0,0
230495,449.472,-865.984,0,0
230755,443.756,-866.856,0,0
231016,438.064,-867.539,0,0
231276,432.268,-867.897,0,0
231536,426.517,-868.008,0,0
231797,420.863,-867.946,0,0
232057,415.288,-867.706,0,0
232317,409.791,-867.294,0,0
232578,404.527,-866.711,0,0
232838,399.315,-866.118,0,0
233098,394.218,-865.517,0,0
233359,389.23,-864.685,0,0
233619,384.298,-863.877,0,0
233879,379.482,-863.117,0,0
234140,374.612,-862.283,0,0
234400,369.868,-861.222,0,0
234660.3,365.252,-860.237,0,0
234920.625,360.776,-859.294,0,0
235180.95,356.344,-858.468,0,0
235441.275,351.736,-857.762,0,0
235701.6,346.925,-857.061,0,0
235961.925,341.962,-856.186,0,0
236222.25,336.882,-855.048,0,0
236482.575,331.822,-853.668,0,0
236742.9,326.873,-852.091,0,0
237003.225,322.047,-850.484,0,0
237263.55,317.173,-848.872,0,0
237523.875,312.214,-847.132,0,0
237784.2,307.095,-845.211,0,0
238044.525,301.882,-842.925,0,0
238304.85,296.803,-840.191,0,0
238565.175,291.975,-837.142,0,0
238825.5,287.309,-833.852,0,0
239085.825,283.193,-830.364,0,0
239346.15,279.286,-826.817,0,0
239606.475,275.712,-823.365,0,0
239866.8,272.336,-819.915,0,0
240127.125,269.054,-816.56,0,0
240387.45,265.987,-813.271,0,0
240647.775,262.754,-809.979,0,0
240908.1,259.592,-806.479,0,0
241168.425,256.709,-802.85,0,0
241428.75,253.926,-799.26,0,0
241689.075,251.275,-795.329,0,0
241949.4,249.026,-791.384,0,0
242209.725,247.261,-787.48,0,0
242470.05,245.661,-783.832,0,0
242730.375,244.178,-780.324,0,0
242990.7,242.811,-776.871,0,0
243251.025,241.65,-773.497,0,0
243511.35,240.731,-770.304,0,0
243771.675,239.906,-767.338,0,0
244032.0,239.112,-764.678,0,0
244292.325,238.329,-762.202,0,0
244552.65,237.426,-759.805,0,0
244812.975,236.433,-757.474,0,0
245073.3,235.439,-755.334,0,0
245333.625,234.209,-753.215,0,0
245593.95,232.848,-750.79,0,0
245854.275,231.701,-748.395,0,0
246114.6,230.57,-746.056,0,0
246374.925,229.476,-743.603,0,0
246635.25,228.542,-741.157,0,0
246895.575,227.626,-738.743,0,0
247155.9,226.849,-736.509,0,0
247416.225,226.028,-734.296,0,0
247676.55,225.142,-731.996,0,0
247936.875,224.279,-729.691,0,0
248197.2,223.495,-727.265,0,0
248457.525,222.93,-724.824,0,0
248717.85,222.622,-722.333,0,0
248978.175,222.594,-720.075,0,0
249238.5,222.715,-718.202,0,0
249498.825,222.756,-716.598,0,0
249759.15,222.647,-715.301,0,0
250019.475,222.365,-714.166,0,0
250279.8,221.933,-713.15,0,0
250540,221.267,-712.175,0,0
250800,220.302,-711.147,0,0
251061,219.224,-710.11,0,0
251321,217.92,-708.922,0,0
251581,216.538,-707.605,0,0
251842,215.077,-706.143,0,0
252102,213.575,-704.595,0,0
252362,211.946,-702.926,0,0
252623,210.156,-700.981,0,0
252883,208.489,-698.698,0,0
253143,206.948,-696.185,0,0
253404,205.563,-693.595,0,0
253664,204.3,-690.868,0,0
253924,203.11,-687.957,0,0
254185,202.108,-684.856,0,0
254445,201.407,-681.637,0,0
254705,200.946,-678.379,0,0
254966,200.679,-675.193,0,0
255226,200.607,-671.896,0,0
255486,200.703,-668.632,0,0
255747,201.011,-665.305,0,0
256007,201.694,-661.923,0,0
256267,202.796,-658.625,0,0
256528,204.208,-655.625,0,0
256788,205.872,-652.937,0,0
257048,207.552,-650.652,0,0
257309,209.193,-648.66,0,0
257569,210.743,-646.822,0,0
257829,212.263,-645.147,0,0
258090,213.611,-643.45,0,0
258350,214.955,-641.662,0,0
258610,216.373,-639.754,0,0
258871,218.027,-637.783,0,0
259131,220.026,-635.854,0,0
259391,222.358,-634.019,0,0
259651,225.081,-632.45,0,0
259912,228.111,-631.331,0,0
260172,231.176,-630.638,0,0
260432,234.266,-630.315,0,0
260693,237.568,-630.34,0,0
260953,240.969,-630.95,0,0
261213,244.278,-632.256,0,0
261474,247.246,-634.282,0,0
261734,249.59,-636.734,0,0
261994,251.481,-639.422,0,0
262255,252.932,-642.345,0,0
262515,253.864,-645.463,0,0
262775,254.185,-648.647,0,0
263036,253.992,-651.72,0,0
263296,253.383,-654.61,0,0
263556,252.459,-657.4,0,0
263817,251.24,-660.068,0,0
264077,249.62,-662.611,0,0
264337,247.625,-664.967,0,0
264598,245.286,-666.906,0,0
264858,242.804,-668.52,0,0
265118,240.197,-669.813,0,0
265379,237.382,-670.878,0,0
265639,234.589,-671.628,0,0
265899,231.742,-672.075,0,0
266160,228.832,-672.278,0,0
266420,225.859,-672.22,0,0
266680.25,222.919,-671.836,0,0
266940.575,219.986,-671.139,0,0
267200.9,217.259,-670.108,0,0
267461.225,214.691,-668.861,0,0
267721.55,212.227,-667.461,0,0
267981.875,209.947,-665.819,0,0
268242.2,207.947,-664.019,0,0
268502.525,206.14,-662.155,0,0
268762.85,204.587,-660.273,0,0
269023.175,203.181,-658.359,0,0
269283.5,201.913,-656.512,0,0
269543.825,200.721,-654.625,0,0
269804.15,199.601,-652.631,0,0
270064.475,198.615,-650.599,0,0
270324.8,197.9,-648.508,0,0
270585.125,197.313,-646.458,0,0
270845.45,196.921,-644.413,0,0
271105.775,196.743,-642.45,0,0
271366.1,196.691,-640.633,0,0
271626.425,196.75,-638.961,0,0
271886.75,196.841,-637.449,0,0
272147.075,197.029,-636.109,0,0
272407.4,197.128,-634.965,0,0
272667.725,197.001,-633.902,0,0
272928.05,196.639,-632.796,0,0
273188.375,196.288,-631.34,0,0
273448.7,196.059,-629.727,0,0
273709.025,195.951,-628.025,0,0
273969.35,196.065,-626.245,0,0
274229.675,196.393,-624.464,0,0
274490.0,196.954,-622.787,0,0
274750.325,197.66,-621.161,0,0
275010.65,198.469,-619.665,0,0
275270.975,199.449,-618.242,0,0
275531.3,200.581,-616.874,0,0
275791.625,201.89,-615.763,0,0
276051.95,203.276,-614.757,0,0
276312.275,204.788,-613.964,0,0
276572.6,206.4,-613.382,0,0
276832.925,208.066,-613.099,0,0
277093.25,209.745,-613.132,0,0
277353.575,211.323,-613.388,0,0
277613.9,212.814,-613.884,0,0
277874.225,214.197,-614.577,0,0
278134.55,215.452,-615.504,0,0
278394.875,216.55,-616.649,0,0
278655.2,217.432,-617.938,0,0
278915.525,218.115,-619.336,0,0
279175.85,218.567,-620.877,0,0
279436.175,218.818,-622.483,0,0
279696.5,218.862,-624.186,0,0
279956.825,218.644,-625.936,0,0
280217.15,218.112,-627.769,0,0
280477.475,217.205,-629.46,0,0
280737.8,216.06,-630.973,0,0
280998.125,214.79,-632.265,0,0
281258.45,213.459,-633.39,0,0
281518.775,212.046,-634.445,0,0
281779.1,210.482,-635.444,0,0
282039.425,208.813,-636.302,0,0
282299.75,207.027,-636.965,0,0
282560,205.199,-637.384,0,0
282820,203.348,-637.765,0,0
283081,201.463,-637.978,0,0
283341,199.538,-638.077,0,0
283601,197.557,-637.993,0,0
283862,195.624,-637.734,0,0
284122,193.757,-637.352,0,0
284382,191.932,-636.869,0,0
284643,190.132,-636.292,0,0
284903,188.335,-635.647,0,0
285163,186.551,-634.782,0,0
285424,184.833,-633.796,0,0
285684,183.239,-632.714,0,0
285944,181.754,-631.495,0,0
286205,180.42,-630.193,0,0
286465,179.142,-628.872,0,0
286725,178.01,-627.48,0,0
286986,176.994,-625.965,0,0
287246,176.14,-624.448,0,0
287506,175.482,-622.919,0,0
287767,174.986,-621.396,0,0
288027,174.68,-619.986,0,0
288287,174.503,-618.7,0,0
288548,174.387,-617.547,0,0
288808,174.324,-616.52,0,0
289068,174.287,-615.641,0,0
289329,174.225,-614.857,0,0
289589,174.082,-614.197,0,0
289849,173.862,-613.53,0,0
290109,173.638,-612.854,0,0
290370,173.441,-612.218,0,0
290630,173.273,-611.654,0,0
290890,173.06,-611.184,0,0
291151,172.732,-610.738,0,0
291411,172.271,-610.293,0,0
291671,171.764,-609.789,0,0
291932,171.196,-609.195,0,0
292192,170.607,-608.517,0,0
292452,170.031,-607.696,0,0
292713,169.543,-606.783,0,0
292973,169.112,-605.787,0,0
293233,168.829,-604.691,0,0
293494,168.691,-603.567,0,0
293754,168.74,-602.471,0,0
294014,168.943,-601.479,0,0
294275,169.273,-600.568,0,0
294535,169.694,-599.786,0,0
294795,170.194,-599.085,0,0
295056,170.742,-598.547,0,0
295316,171.398,-598.181,0,0
295576,172.047,-598.003,0,0
295837,172.665,-598.019,0,0
296097,173.217,-598.173,0,0
296357,173.662,-598.475,0,0
296618,174.056,-598.923,0,0
296878,174.305,-599.494,0,0
297138,174.406,-600.157,0,0
297399,174.339,-600.88,0,0
297659,174.116,-601.65,0,0
297919,173.704,-602.425,0,0
298180,173.157,-603.135,0,0
298440,172.484,-603.797,0,0
298700.2,171.745,-604.4,0,0
298960.525,170.921,-604.943,0,0
299220.85,170.021,-605.474,0,0
299481.175,169.059,-605.941,0,0
299741.5,168.024,-606.326,0,0
300001.825,166.921,-606.698,0,0
300262.15,165.737,-607.018,0,0
300522.475,164.527,-607.265,0,0
300782.8,163.248,-607.433,0,0
301043.125,161.933,-607.536,0,0
301303.45,160.571,-607.558,0,0
301563.775,159.148,-607.514,0,0
301824.1,157.699,-607.343,0,0
302084.425,156.262,-607.061,0,0
302344.75,154.843,-606.7,0,0
302605.075,153.461,-606.242,0,0
302865.4,152.115,-605.724,0,0
303125.725,150.813,-605.148,0,0
303386.05,149.543,-604.547,0,0
303646.375,148.301,-603.91,0,0
303906.7,147.094,-603.24,0,0
304167.025,145.879,-602.527,0,0
304427.35,144.668,-601.751,0,0
304687.675,143.499,-600.908,0,0
304948.0,142.365,-599.992,0,0
305208.325,141.301,-599.044,0,0
305468.65,140.315,-598.05,0,0
305728.975,139.404,-597.031,0,0
305989.3,138.567,-596.011,0,0
306249.625,137.763,-594.99,0,0
306509.95,137.057,-593.96,0,0
306770.275,136.395,-592.958,0,0
307030.6,135.778,-591.971,0,0
307290.925,135.211,-590.995,0,0
307551.25,134.732,-590.072,0,0
307811.575,134.292,-589.191,0,0
308071.9,133.872,-588.364,0,0
308332.225,133.468,-587.602,0,0
308592.55,133.051,-586.925,0,0
308852.875,132.622,-586.26,0,0
309113.2,132.188,-585.639,0,0
309373.525,131.706,-585.052,0,0
309633.85,131.226,-584.481,0,0
309894.175,130.694,-583.946,0,0
310154.5,130.176,-583.416,0,0
310414.825,129.602,-582.944,0,0
310675.15,128.951,-582.49,0,0
310935.475,128.255,-582.032,0,0
311195.8,127.471,-581.57,0,0
311456.125,126.603,-581.057,0,0
311716.45,125.693,-580.458,0,0
311976.775,124.748,-579.784,0,0
312237.1,123.804,-579.045,0,0
312497.425,122.85,-578.23,0,0
312757.75,121.914,-577.342,0,0
313018.075,121.004,-576.36,0,0
313278.4,120.102,-575.328,0,0
313538.725,119.256,-574.218,0,0
313799.05,118.465,-573.054,0,0
314059.375,117.704,-571.817,0,0
314319.7,117.04,-570.55,0,0
314580,116.464,-569.208,0,0
314840,115.981,-567.862,0,0
315101,115.582,-566.387,0,0
315361,115.365,-564.98,0,0
315621,115.297,-563.653,0,0
315882,115.218,-562.393,0,0
316142,115.287,-561.177,0,0
316402,115.376,-560.015,0,0
316663,115.506,-558.971,0,0
316923,115.642,-558.016,0,0
317183,115.932,-557.192,0,0
317444,116.026,-556.488,0,0
317704,116.211,-555.736,0,0
317964,116.26,-555.115,0,0
318225,116.294,-554.426,0,0
318485,116.372,-553.82,0,0
318745,116.341,-553.181,0,0
319006,116.344,-552.556,0,0
319266,116.325,-551.902,0,0
319526,116.375,-551.307,0,0
319787,116.348,-550.683,0,0
320047,116.426,-550.146,0,0
320307,116.403,-549.543,0,0
320567,116.44,-548.93,0,0
320828,116.598,-548.344,0,0
321088,116.669,-547.766,0,0
321348,116.829,-547.305,0,0
321609,116.957,-546.867,0,0
321869,117.179,-546.468,0,0
322129,117.413,-546.179,0,0
322390,117.624,-545.902,0,0
322650,117.841,-545.809,0,0
322910,117.944,-545.708,0,0
323171,118.043,-545.674,0,0
323431,118.181,-545.774,0,0
323691,118.152,-545.836,0,0
323952,118.08,-545.99,0,0
324212,117.958,-546.175,0,0
324472,117.655,-546.488,0,0
324733,117.363,-546.706,0,0
324993,116.88,-546.949,0,0
325253,116.354,-547.269,0,0
325514,115.65,-547.342,0,0
325774,114.995,-547.452,0,0
326034,114.199,-547.521,0,0
326295,113.398,-547.584,0,0
326555,112.607,-547.516,0,0
326815,111.672,-547.4,0,0
327076,110.737,-547.256,0,0
327336,109.857,-546.985,0,0
327596,109.026,-546.745,0,0
327857,108.104,-546.421,0,0
328117,107.169,-546.052,0,0
328377,106.236,-545.746,0,0
328638,105.317,-545.272,0,0
328898,104.429,-544.689,0,0
329158,103.572,-544.233,0,0
329419,102.628,-543.724,0,0
329679,101.892,-543.103,0,0
329939,101.026,-542.581,0,0
330200,100.275,-542.02,0,0
330460,99.3672,-541.453,0,0
330720.15,98.5399,-540.876,0,0
330980.475,97.6957,-540.304,0,0
331240.8,96.8024,-539.716,0,0
331501.125,95.9908,-538.992,0,0
331761.45,95.1203,-538.322,0,0
332021.775,94.2617,-537.563,0,0
332282.1,93.3499,-536.916,0,0
332542.425,92.5306,-536.098,0,0
332802.75,91.6557,-535.355,0,0
333063.075,90.7528,-534.475,0,0
333323.4,89.9455,-533.682,0,0
333583.725,89.0703,-532.769,0,0
333844.05,88.1946,-531.811,0,0
334104.375,87.2808,-530.831,0,0
334364.7,86.4509,-529.851,0,0
334625.025,85.6873,-528.714,0,0
334885.35,84.9826,-527.639,0,0
335145.675,84.2485,-526.431,0,0
335406.0,83.5329,-525.266,0,0
335666.325,82.9043,-524.099,0,0
335926.65,82.2959,-522.929,0,0
336186.975,81.7863,-521.663,0,0
336447.3,81.1694,-520.501,0,0
336707.625,80.7182,-519.269,0,0
336967.95,80.2198,-517.903,0,0
337228.275,79.8314,-516.726,0,0
337488.6,79.4611,-515.397,0,0
337748.925,79.0646,-514.187,0,0
338009.25,78.752,-512.887,0,0
338269.575,78.4423,-511.64,0,0
338529.9,78.1572,-510.31,0,0
338790.225,77.8886,-508.995,0,0
339050.55,77.7167,-507.685,0,0
339310.875,77.5578,-506.319,0,0
339571.2,77.4108,-504.969,0,0
339831.525,77.401,-503.568,0,0
340091.85,77.4554,-502.203,0,0
340352.175,77.5218,-500.881,0,0
340612.5,77.7656,-499.515,0,0
340872.825,78.0073,-498.174,0,0
341133.15,78.3829,-496.949,0,0
341393.475,78.7748,-495.823,0,0
341653.8,79.2303,-494.706,0,0
341914.125,79.6792,-493.65,0,0
342174.45,80.2596,-492.654,0,0
342434.775,80.8035,-491.782,0,0
342695.1,81.4055,-491.034,0,0
342955.425,81.9038,-490.328,0,0
343215.75,82.5,-489.766,0,0
343476.075,82.9731,-489.237,0,0
343736.4,83.4307,-488.795,0,0
343996.725,83.8562,-488.485,0,0
344257.05,84.164,-488.162,0,0
344517.375,84.3845,-487.861,0,0
344777.7,84.5145,-487.516,0,0
345038.025,84.5947,-487.199,0,0
345298.35,84.6132,-486.909,0,0
345558.675,84.606,-486.575,0,0
345819.0,84.5844,-486.146,0,0
346079.325,84.5452,-485.753,0,0
346339.65,84.5202,-485.302,0,0
346599.975,84.4273,-484.846,0,0
346860,84.3842,-484.417,0,0
347121,84.3301,-484.003,0,0
347381,84.2194,-483.485,0,0
347641,84.1094,-483.09,0,0
347902,83.918,-482.629,0,0
348162,83.7394,-482.089,0,0
348422,83.4975,-481.535,0,0
348683,83.3069,-480.888,0,0
348943,83.117,-480.222,0,0
349203,82.9618,-479.462,0,0
349464,82.9241,-478.68,0,0
349724,82.8864,-477.934,0,0
349984,82.9476,-477.083,0,0
350245,83.05,-476.32,0,0
350505,83.2521,-475.557,0,0
350765,83.5166,-474.814,0,0
351025,83.8938,-474.113,0,0
351286,84.2887,-473.564,0,0
351546,84.715,-473.2,0,0
351806,85.1081,-472.83,0,0
352067,85.4283,-472.614,0,0
352327,85.749,-472.443,0,0
352587,85.9249,-472.303,0,0
352848,86.0687,-472.233,0,0
353108,86.1144,-472.202,0,0
353368,86.0494,-472.206,0,0
353629,85.9011,-472.13,0,0
353889,85.6497,-472.051,0,0
354149,85.3884,-471.864,0,0
354410,85.0645,-471.696,0,0
354670,84.7486,-471.41,0,0
354930,84.3478,-471.073,0,0
355191,84.0858,-470.744,0,0
355451,83.7441,-470.4,0,0
355711,83.3868,-469.994,0,0
355972,83.0958,-469.581,0,0
356232,82.7401,-469.096,0,0
356492,82.3579,-468.649,0,0
356753,81.9778,-468.251,0,0
357013,81.6277,-467.621,0,0
357273,81.2852,-467.088,0,0
357534,80.9065,-466.429,0,0
357794,80.6117,-465.745,0,0
358054,80.3199,-465.002,0,0
358315,80.1114,-464.28,0,0
358575,79.9966,-463.526,0,0
358835,79.8976,-462.819,0,0
359096,79.8091,-462.087,0,0
359356,79.7179,-461.401,0,0
359616,79.7411,-460.715,0,0
359877,79.724,-460.106,0,0
360137,79.6967,-459.434,0,0
360397,79.7195,-458.871,0,0
360658,79.6928,-458.311,0,0
360918,79.7293,-457.77,0,0
361178,79.6876,-457.218,0,0
361438,79.6243,-456.671,0,0
361699,79.5996,-456.146,0,0
361959,79.5026,-455.547,0,0
362219,79.4233,-454.994,0,0
362480,79.3783,-454.344,0,0
362740.1,79.2673,-453.686,0,0
363000.425,79.3107,-452.989,0,0
363260.75,79.3797,-452.259,0,0
363521.075,79.5296,-451.556,0,0
363781.4,79.7114,-450.938,0,0
364041.725,80.0293,-450.367,0,0
364302.05,80.2725,-449.809,0,0
364562.375,80.5988,-449.328,0,0
364822.7,80.9094,-448.943,0,0
365083.025,81.2314,-448.623,0,0
365343.35,81.5564,-448.408,0,0
365603.675,81.8233,-448.243,0,0
365864.0,81.992,-448.188,0,0
366124.325,82.0808,-448.223,0,0
366384.65,82.1329,-448.232,0,0
366644.975,81.9394,-448.207,0,0
366905.3,81.7263,-448.16,0,0
367165.625,81.4499,-448.106,0,0
367425.95,81.1047,-447.992,0,0
367686.275,80.7721,-447.805,0,0
367946.6,80.2978,-447.548,0,0
368206.925,79.8363,-447.277,0,0
368467.25,79.3131,-446.91,0,0
368727.575,78.7434,-446.418,0,0
368987.9,78.2141,-445.789,0,0
369248.225,77.7311,-445.102,0,0
369508.55,77.3639,-444.183,0,0
369768.875,77.073,-443.243,0,0
370029.2,76.9781,-442.291,0,0
370289.525,77.077,-441.313,0,0
370549.85,77.2145,-440.529,0,0
370810.175,77.4907,-439.733,0,0
371070.5,77.8817,-439.116,0,0
371330.825,78.2232,-438.542,0,0
371591.15,78.6035,-438.177,0,0
371851.475,78.9233,-437.905,0,0
372111.8,79.2247,-437.787,0,0
372372.125,79.4303,-437.732,0,0
372632.45,79.4672,-437.706,0,0
372892.775,79.3959,-437.687,0,0
373153.1,79.1932,-437.639,0,0
373413.425,78.8819,-437.583,0,0
373673.75,78.5185,-437.413,0,0
373934.075,78.1432,-437.174,0,0
374194.4,77.7302,-436.853,0,0
374454.725,77.2735,-436.434,0,0
374715.05,76.8983,-435.943,0,0
374975.375,76.452,-435.445,0,0
375235.7,76.0771,-434.902,0,0
375496.025,75.7024,-434.238,0,0
375756.35,75.3758,-433.549,0,0
376016.675,75.0928,-432.78,0,0
376277.0,74.8856,-432.06,0,0
376537.325,74.7553,-431.343,0,0
376797.65,74.6463,-430.525,0,0
377057.975,74.6032,-429.797,0,0
377318.3,74.6246,-429.049,0,0
377578.625,74.6676,-428.335,0,0
377838.95,74.7866,-427.641,0,0
378099.275,74.8733,-426.948,0,0
378359.6,75.0066,-426.357,0,0
378619.925,75.1561,-425.724,0,0
378880,75.2843,-425.185,0,0
379141,75.4855,-424.624,0,0
379401,75.6869,-424.057,0,0
379661,75.8851,-423.601,0,0
379922,76.1457,-423.177,0,0
380182,76.3521,-422.835,0,0
380442,76.5731,-422.526,0,0
380703,76.6934,-422.284,0,0
380963,76.7627,-422.052,0,0
381223,76.8407,-421.792,0,0
381483,76.7821,-421.522,0,0
381744,76.7767,-421.226,0,0
382004,76.7708,-420.934,0,0
382264,76.7153,-420.61,0,0
382525,76.6282,-420.25,0,0
382785,76.6263,-419.911,0,0
383045,76.6347,-419.583,0,0
383306,76.6165,-419.321,0,0
383566,76.5705,-419.051,0,0
383826,76.5271,-418.853,0,0
384087,76.3741,-418.622,0,0
384347,76.2561,-418.371,0,0
384607,76.032,-418.123,0,0
384868,75.7952,-417.784,0,0
385128,75.5443,-417.476,0,0
385388,75.3018,-417.042,0,0
385649,74.9936,-416.678,0,0
385909,74.7994,-416.271,0,0
386169,74.5521,-415.825,0,0
386430,74.2637,-415.391,0,0
386690,74.0097,-414.937,0,0
386950,73.7354,-414.443,0,0
387211,73.4243,-413.897,0,0
387471,73.1307,-413.342,0,0
387731,72.8478,-412.757,0,0
387992,72.62,-412.115,0,0
388252,72.379,-411.449,0,0
388512,72.0907,-410.746,0,0
388773,71.9291,-410.035,0,0
389033,71.7677,-409.235,0,0
389293,71.6195,-408.471,0,0
389554,71.5533,-407.668,0,0
389814,71.488,-406.796,0,0
390074,71.4824,-405.977,0,0
390335,71.5031,-405.113,0,0
390595,71.5757,-404.212,0,0
390855,71.7057,-403.398,0,0
391116,71.9053,-402.514,0,0
391376,72.1317,-401.678,0,0
391636,72.4769,-400.861,0,0
391896,72.8607,-400.039,0,0
392157,73.2233,-399.344,0,0
392417,73.6956,-398.66,0,0
392677,74.2101,-397.993,0,0
392938,74.6942,-397.445,0,0
393198,75.2231,-396.915,0,0
393458,75.7442,-396.486,0,0
393719,76.1967,-396.087,0,0
393979,76.7068,-395.728,0,0
394239,77.1868,-395.389,0,0
394500,77.6639,-395.129,0,0
394760.05,78.0895,-394.866,0,0
395020.375,78.5418,-394.652,0,0
395280.7,78.9647,-394.458,0,0
395541.025,79.4132,-394.304,0,0
395801.35,79.8091,-394.207,0,0
396061.675,80.1511,-394.119,0,0
396322.0,80.5576,-394.084,0,0
396582.325,80.8707,-394.059,0,0
396842.65,81.1679,-394.092,0,0
397102.975,81.4408,-394.135,0,0
397363.3,81.6737,-394.232,0,0
397623.625,81.8207,-394.361,0,0
397883.95,81.9562,-394.449,0,0
398144.275,82.0155,-394.575,0,0
398404.6,82.0167,-394.679,0,0
398664.925,81.9286,-394.745,0,0
398925.25,81.9075,-394.84,0,0
399185.575,81.8098,-394.877,0,0
399445.9,81.7028,-394.936,0,0
399706.225,81.5891,-394.921,0,0
399966.55,81.4202,-394.95,0,0
400006.6,81.3966,-394.965,0,0