File: Accelerated corrosion test data/2025-10-16_18-00-04/sample_8.csv
Frequency (Hz),Impedance (ohms),Phase (Radians),Temperature (C),Humidity (%)
10000.0,311.867,-10943.6,0,0
10260.325,303.586,-10669.3,0,0
10520.65,296.297,-10408.7,0,0
10780.975,288.964,-10160.5,0,0
11041.3,282.324,-9923.34,0,0
11301.625,276.003,-9698.53,0,0
11561.95,270.067,-9481.91,0,0
11822.275,264.524,-9275.59,0,0
12082.6,262.792,-9076.65,0,0
12342.925,258.592,-8890.6,0,0
12603.25,253.601,-8709.53,0,0
12863.575,250.286,-8539.67,0,0
13123.9,241.326,-8374.71,0,0
13384.225,235.569,-8213.18,0,0
13644.55,232.77,-8058.72,0,0
13904.875,225.258,-7909.93,0,0
14165.2,220.284,-7766.33,0,0
14425.525,217.14,-7627.19,0,0
14685.8,211.967,-7493.86,0,0
14946.175,208.41,-7363.53,0,0
15206.5,204.913,-7238.37,0,0
15466.825,201.557,-7118.9,0,0
15727.15,198.396,-7001.78,0,0
15987.5,195.095,-6889.06,0,0
16247.8,191.937,-6779.7,0,0
16508.125,189.007,-6673.46,0,0
16768.45,185.877,-6570.87,0,0
17028.775,183.034,-6471.17,0,0
17289.1,180.156,-6374.16,0,0
17549.425,177.805,-6280.14,0,0
17809.75,175.732,-6187.9,0,0
18070.075,173.368,-6100.69,0,0
18330.4,170.412,-6013.64,0,0
18590.725,168.639,-5928.85,0,0
18851.05,169.423,-5845.94,0,0
19111.375,167.793,-5766.81,0,0
19371.7,168.803,-5691.46,0,0
19632.025,166.738,-5618.86,0,0
19892.35,162.775,-5548.09,0,0
20152.675,160.714,-5475.57,0,0
20413.0,160.641,-5406.1,0,0
20673.3,161.094,-5339.47,0,0
20933.65,157.443,-5276.68,0,0
21193.975,153.776,-5213.03,0,0
21454.3,151.504,-5149.01,0,0
21714.625,150.053,-5086.73,0,0
21974.9,149.054,-5027.4,0,0
22235.275,149.176,-4969.26,0,0
22495.6,147.947,-4912.62,0,0
22755.925,145.569,-4858.59,0,0
23016.25,143.844,-4805.11,0,0
23276.6,139.697,-4752.64,0,0
23536.9,137.827,-4700.04,0,0
23797.225,136.296,-4648.23,0,0
24057.55,134.405,-4597.91,0,0
24317.875,132.142,-4548.72,0,0
24578.2,130.146,-4500.29,0,0
24838.525,129.242,-4452.65,0,0
25098.85,128.247,-4406.22,0,0
25359.175,126.345,-4361.13,0,0
25619.5,125.515,-4316.42,0,0
25879.8,124.391,-4271.92,0,0
26140.1,123.928,-4230.29,0,0
26400.5,122.141,-4188.55,0,0
26660.8,120.287,-4147.12,0,0
26921.1,120.547,-4106,0,0
27181.4,120.165,-4067.32,0,0
27441.8,119.259,-4028.21,0,0
27702.1,118.672,-3991.11,0,0
27962.4,116.185,-3953.58,0,0
28222.7,117.401,-3916.65,0,0
28483.1,115.534,-3881.03,0,0
28743.4,115.98,-3845.46,0,0
29003.7,114.863,-3811.42,0,0
29264,114.636,-3777.33,0,0
29524.4,113.627,-3744.05,0,0
29784.7,113.465,-3711.04,0,0
30045,112.466,-3679.36,0,0
30305.3,111.803,-3648.65,0,0
30565.7,110.5,-3617.99,0,0
30826,109.598,-3587.08,0,0
31086.3,107.968,-3556.6,0,0
31346.6,107.525,-3526.7,0,0
31607,107.178,-3497.04,0,0
31867.3,106.243,-3467.99,0,0
32127.6,105.616,-3439.36,0,0
32387.9,105.233,-3411.11,0,0
32648.3,104.996,-3383.31,0,0
32908.6,105.333,-3355.86,0,0
33168.9,104.811,-3329.23,0,0
33429.2,105.364,-3302.79,0,0
33689.6,105.432,-3277.21,0,0
33949.9,105.507,-3252.21,0,0
34210.2,105.722,-3227.21,0,0
34470.5,105.782,-3202.78,0,0
34730.9,106.173,-3178.55,0,0
34991.2,106.906,-3154.8,0,0
35251.5,107.608,-3132.31,0,0
35511.8,108.465,-3110.2,0,0
35772.2,108.831,-3088.74,0,0
36032.5,109.34,-3067.92,0,0
36292.8,108.75,-3046.99,0,0
36553.1,108.57,-3027.37,0,0
36813.5,107.385,-3007.23,0,0
37073.8,107.263,-2987.71,0,0
37334.1,105.916,-2968.43,0,0
37594.4,103.882,-2949.59,0,0
37854.8,102.201,-2930.09,0,0
38115.1,100.144,-2910.92,0,0
38375.4,98.0699,-2891.4,0,0
38635.7,96.165,-2871.8,0,0
38896.1,94.1538,-2852.71,0,0
39156.4,92.4568,-2833.04,0,0
39416.7,91.0887,-2813.8,0,0
39677,89.6251,-2794.94,0,0
39937.4,88.3142,-2775.78,0,0
40197.7,87.5318,-2756.53,0,0
40458,87.3679,-2737.98,0,0
40718.3,87.2186,-2720.6,0,0
40978.7,86.0468,-2702.93,0,0
41239,85.4307,-2685.44,0,0
41499.3,84.5903,-2668.02,0,0
41759.6,84.3264,-2651.21,0,0
42020,83.3068,-2634.31,0,0
42280.275,82.7928,-2617.37,0,0
42540.6,82.4491,-2600.47,0,0
42800.925,81.9106,-2584.34,0,0
43061.25,82.2144,-2567.92,0,0
43321.575,82.3591,-2552.86,0,0
43581.9,82.1845,-2537.95,0,0
43842.225,81.5676,-2523.26,0,0
44102.55,80.3303,-2508.11,0,0
44362.875,79.7341,-2492.99,0,0
44623.2,78.888,-2478.22,0,0
44883.525,78.205,-2463.38,0,0
45143.85,77.5747,-2448.78,0,0
45404.175,76.9887,-2434.3,0,0
45664.5,76.6176,-2419.98,0,0
45924.825,75.8402,-2406.04,0,0
46185.15,75.4543,-2391.94,0,0
46445.475,75.0383,-2377.87,0,0
46705.8,74.4864,-2364,0,0
46966.125,74.0548,-2350.34,0,0
47226.45,73.7622,-2336.96,0,0
47486.775,73.2924,-2323.78,0,0
47747.1,72.5006,-2310.45,0,0
48007.425,72.5534,-2297.84,0,0
48267.75,72.4627,-2285.04,0,0
48528.075,71.9704,-2272.48,0,0
48788.4,71.3776,-2260.03,0,0
49048.725,70.9016,-2247.52,0,0
49309.05,70.5155,-2235.28,0,0
49569.375,70.0792,-2222.99,0,0
49829.7,69.6651,-2210.67,0,0
50090.025,69.3679,-2198.58,0,0
50350.35,68.9777,-2186.78,0,0
50610.675,68.798,-2174.98,0,0
50871.0,68.4661,-2163.28,0,0
51131.325,68.2727,-2151.49,0,0
51391.65,68.006,-2140.2,0,0
51651.975,68.0292,-2128.7,0,0
51912.3,67.8648,-2117.66,0,0
52172.625,67.7931,-2106.66,0,0
52432.95,67.5155,-2095.84,0,0
52693.275,67.5196,-2084.85,0,0
52953.6,67.6777,-2074.17,0,0
53213.925,67.5909,-2063.81,0,0
53474.25,67.7134,-2053.46,0,0
53734.575,67.8401,-2043.81,0,0
53994.9,67.2352,-2034.24,0,0
54255.225,66.4928,-2024.32,0,0
54515.55,65.9786,-2014.44,0,0
54775.875,65.4097,-2004.33,0,0
55036.2,64.9095,-1994.75,0,0
55296.525,64.0453,-1984.98,0,0
55556.85,63.3783,-1974.99,0,0
55817.175,63.0124,-1965.2,0,0
56077.5,62.4171,-1955.41,0,0
56337.825,61.9504,-1945.57,0,0
56598.15,61.6247,-1935.91,0,0
56858.475,61.341,-1926.17,0,0
57118.8,61.1196,-1916.85,0,0
57379.125,60.8829,-1907.42,0,0
57639.45,60.8424,-1898.16,0,0
57899.775,60.5275,-1888.95,0,0
58160.1,60.3218,-1879.78,0,0
58420.4,60.2256,-1870.78,0,0
58680.7,60.1498,-1861.94,0,0
58941.1,60.1702,-1853.16,0,0
59201.4,60.0758,-1844.54,0,0
59461.7,59.7967,-1836.11,0,0
59722,59.4638,-1827.55,0,0
59982.4,59.1202,-1819.05,0,0
60242.7,58.8055,-1810.57,0,0
60503,58.5504,-1801.98,0,0
60763.3,58.3687,-1793.49,0,0
61023.7,58.2892,-1785.08,0,0
61284,58.173,-1776.86,0,0
61544.3,58.2134,-1768.52,0,0
61804.6,58.2412,-1760.63,0,0
62065,57.9964,-1752.71,0,0
62325.3,57.8508,-1744.65,0,0
62585.6,57.7666,-1736.54,0,0
62845.9,57.913,-1728.62,0,0
63106.3,57.9775,-1720.79,0,0
63366.6,58.2171,-1713.17,0,0
63626.9,58.3254,-1705.62,0,0
63887.2,58.4338,-1698.16,0,0
64147.6,58.6876,-1690.71,0,0
64407.9,58.9068,-1683.7,0,0
64668.2,58.9482,-1676.65,0,0
64928.5,58.8192,-1669.72,0,0
65188.9,58.6296,-1662.82,0,0
65449.2,58.3781,-1656.01,0,0
65709.5,58.092,-1648.83,0,0
65969.8,58.0285,-1642.01,0,0
66230.2,57.7403,-1635.38,0,0
66490.5,57.1918,-1628.73,0,0
66750.8,56.5389,-1621.73,0,0
67011.1,56.1908,-1614.53,0,0
67271.5,56.0619,-1607.53,0,0
67531.8,55.8604,-1600.66,0,0
67792.1,55.7471,-1593.82,0,0
68052.4,55.583,-1587.09,0,0
68312.8,55.2894,-1580.4,0,0
68573.1,55.149,-1573.68,0,0
68833.4,54.9575,-1566.95,0,0
69093.7,54.8441,-1560.28,0,0
69354.1,54.8652,-1553.59,0,0
69614.4,54.9568,-1547.1,0,0
69874.7,54.9152,-1540.64,0,0
70135,54.9508,-1534.26,0,0
70395.4,54.7947,-1527.98,0,0
70655.7,54.8637,-1521.69,0,0
70916,54.7207,-1515.36,0,0
71176.3,54.8359,-1509.15,0,0
71436.7,54.8428,-1502.98,0,0
71697,55.103,-1496.9,0,0
71957.3,55.1803,-1491.1,0,0
72217.6,55.1526,-1485.32,0,0
72478,55.0537,-1479.48,0,0
72738.3,54.8513,-1473.82,0,0
72998.6,54.6524,-1468.03,0,0
73258.9,54.3744,-1462.08,0,0
73519.3,54.3471,-1456.17,0,0
73779.6,54.2936,-1450.51,0,0
74039.9,54.1938,-1444.8,0,0
74300.225,53.9957,-1439.19,0,0
74560.55,53.7341,-1433.57,0,0
74820.875,53.5258,-1427.76,0,0
75081.2,53.4194,-1422.05,0,0
75341.525,53.3354,-1416.41,0,0
75601.85,53.2635,-1410.69,0,0
75862.175,53.2023,-1405.12,0,0
76122.5,53.1731,-1399.55,0,0
76382.825,53.2357,-1394.09,0,0
76643.15,53.2239,-1388.72,0,0
76903.475,53.14,-1383.42,0,0
77163.8,53.0696,-1378.08,0,0
77424.125,52.9411,-1372.75,0,0
77684.45,52.82,-1367.46,0,0
77944.775,52.7233,-1362.23,0,0
78205.1,52.5972,-1356.95,0,0
78465.425,52.4273,-1351.71,0,0
78725.75,52.2678,-1346.41,0,0
78986.075,52.2221,-1341.16,0,0
79246.4,52.0565,-1335.97,0,0
79506.725,51.9076,-1330.74,0,0
79767.05,51.8506,-1325.47,0,0
80027.375,51.8039,-1320.23,0,0
80287.7,51.8306,-1315.08,0,0
80548.025,51.7275,-1309.95,0,0
80808.35,51.683,-1304.81,0,0
81068.675,51.6838,-1299.58,0,0
81329.0,51.7622,-1294.46,0,0
81589.325,51.8665,-1289.38,0,0
81849.65,51.9682,-1284.32,0,0
82109.975,52.1649,-1279.2,0,0
82370.3,52.3896,-1274.31,0,0
82630.625,52.5202,-1269.34,0,0
82890.95,52.7458,-1264.43,0,0
83151.275,52.999,-1259.69,0,0
83411.6,53.055,-1254.92,0,0
83671.925,53.3237,-1250,0,0
83932.25,53.7272,-1245.29,0,0
84192.575,54.0111,-1240.66,0,0
84452.9,54.3514,-1236.04,0,0
84713.225,54.8113,-1231.51,0,0
84973.55,55.2198,-1227.31,0,0
85233.875,55.175,-1223.38,0,0
85494.2,54.8981,-1219.15,0,0
85754.525,54.6316,-1214.67,0,0
86014.85,54.457,-1210.08,0,0
86275.175,54.3299,-1205.43,0,0
86535.5,54.2918,-1200.69,0,0
86795.825,54.3919,-1195.96,0,0
87056.15,54.5991,-1191.39,0,0
87316.475,54.9116,-1186.92,0,0
87576.8,55.0277,-1182.51,0,0
87837.125,55.0455,-1178.07,0,0
88097.45,55.222,-1173.54,0,0
88357.775,55.3515,-1169.07,0,0
88618.1,55.4776,-1164.66,0,0
88878.425,55.7209,-1160.3,0,0
89138.75,55.7757,-1155.75,0,0
89399.075,55.8972,-1151.21,0,0
89659.4,56.1967,-1146.71,0,0
89919.725,56.5828,-1142.05,0,0
90180,56.989,-1137.6,0,0
90440.4,57.44,-1133.18,0,0
90700.7,57.9233,-1128.71,0,0
90961,58.5558,-1124.12,0,0
91221.3,59.406,-1119.69,0,0
91481.7,60.4635,-1115.51,0,0
91742,61.3621,-1111.59,0,0
92002.3,62.1002,-1107.78,0,0
92262.6,62.9077,-1104.03,0,0
92523,63.7324,-1100.34,0,0
92783.3,64.4027,-1096.62,0,0
93043.6,65.2837,-1093.16,0,0
93303.9,65.8787,-1090,0,0
93564.3,66.2062,-1086.94,0,0
93824.6,66.0554,-1083.75,0,0
94084.9,65.7521,-1079.98,0,0
94345.2,65.8564,-1076.12,0,0
94605.6,65.8341,-1072.16,0,0
94865.9,66.2856,-1068.19,0,0
95126.2,66.4721,-1064.35,0,0
95386.5,66.7745,-1060.33,0,0
95646.9,67.2883,-1056.51,0,0
95907.2,67.678,-1052.52,0,0
96167.5,68.3097,-1048.6,0,0
96427.8,68.8551,-1044.61,0,0
96688.2,69.7589,-1040.67,0,0
96948.5,70.6192,-1037.05,0,0
97208.8,71.481,-1033.36,0,0
97469.1,72.3712,-1029.77,0,0
97729.5,73.2972,-1026.23,0,0
97989.8,74.3122,-1022.77,0,0
98250.1,75.3193,-1019.46,0,0
98510.4,76.3286,-1016.1,0,0
98770.8,77.5945,-1012.9,0,0
99031.1,78.8273,-1010.08,0,0
99291.4,79.7885,-1007.52,0,0
99551.7,80.4244,-1004.83,0,0
99812.1,81.0883,-1001.95,0,0
100072,81.8603,-999.133,0,0
100333,82.6992,-996.395,0,0
100593,83.488,-993.841,0,0
100853,84.2421,-991.314,0,0
101114,84.9305,-988.955,0,0
101374,85.4093,-986.594,0,0
101634,85.9159,-984.299,0,0
101895,86.2857,-982.129,0,0
102155,86.4663,-979.871,0,0
102415,86.5951,-977.564,0,0
102676,86.7454,-975.316,0,0
102936,86.7625,-973.1,0,0
103196,86.5067,-970.855,0,0
103457,86.1021,-968.415,0,0
103717,85.7528,-965.72,0,0
103977,85.5776,-962.866,0,0
104238,85.5874,-960.124,0,0
104498,85.5929,-957.544,0,0
104758,85.4105,-955.005,0,0
105019,85.061,-952.382,0,0
105279,84.7574,-949.552,0,0
105539,84.6257,-946.627,0,0
105800,84.5459,-943.762,0,0
106060,84.4811,-940.859,0,0
106320.175,84.4616,-937.997,0,0
106580.5,84.4792,-935.159,0,0
106840.825,84.5596,-932.356,0,0
107101.15,84.6683,-929.599,0,0
107361.475,84.7559,-927.015,0,0
107621.8,84.6572,-924.489,0,0
107882.125,84.4172,-921.855,0,0
108142.45,84.1993,-918.978,0,0
108402.775,84.0476,-916.071,0,0
108663.1,84.0313,-913.134,0,0
108923.425,83.999,-910.189,0,0
109183.75,84.1005,-907.191,0,0
109444.075,84.3531,-904.327,0,0
109704.4,84.5865,-901.494,0,0
109964.725,84.8986,-898.763,0,0
110225.05,85.1249,-896.15,0,0
110485.375,85.3178,-893.583,0,0
110745.7,85.5475,-891.006,0,0
111006.025,85.6465,-888.589,0,0
111266.35,85.7147,-886.06,0,0
111526.675,85.8749,-883.383,0,0
111787.0,85.9976,-880.807,0,0
112047.325,86.1349,-878.395,0,0
112307.65,86.2468,-875.912,0,0
112567.975,86.2555,-873.473,0,0
112828.3,86.3396,-871.065,0,0
113088.625,86.3811,-868.646,0,0
113348.95,86.4,-866.281,0,0
113609.275,86.4285,-863.913,0,0
113869.6,86.3403,-861.609,0,0
114129.925,86.1489,-859.22,0,0
114390.25,85.999,-856.773,0,0
114650.575,85.9359,-854.351,0,0
114910.9,85.8099,-851.904,0,0
115171.225,85.7242,-849.484,0,0
115431.55,85.6947,-847.179,0,0
115691.875,85.3979,-844.96,0,0
115952.2,84.9835,-842.581,0,0
116212.525,84.5819,-840.059,0,0
116472.85,84.1651,-837.477,0,0
116733.175,83.7614,-834.768,0,0
116993.5,83.5163,-831.96,0,0
117253.825,83.4377,-829.164,0,0
117514.15,83.4693,-826.462,0,0
117774.475,83.4742,-823.94,0,0
118034.8,83.3627,-821.459,0,0
118295.125,83.3181,-819.003,0,0
118555.45,83.0063,-816.403,0,0
118815.775,82.9214,-813.862,0,0
119076.1,82.8318,-811.318,0,0
119336.425,82.6832,-808.892,0,0
119596.75,82.4138,-806.41,0,0
119857.075,82.1378,-803.856,0,0
120117.4,81.8147,-801.182,0,0
120377.725,81.5624,-798.554,0,0
120638.05,81.31,-795.831,0,0
120898.375,81.1395,-793.066,0,0
121158.7,81.0431,-790.36,0,0
121419.025,80.8683,-787.712,0,0
121679.35,80.713,-785.034,0,0
121939.675,80.5657,-782.328,0,0
122200.0,80.4495,-779.511,0,0
122460,80.4348,-776.832,0,0
122721,80.3499,-774.187,0,0
122981,80.2386,-771.531,0,0
123241,80.0883,-768.834,0,0
123502,79.9295,-766.097,0,0
123762,79.82,-763.339,0,0
124022,79.6761,-760.544,0,0
124283,79.6546,-757.64,0,0
124543,79.6803,-754.81,0,0
124803,79.7237,-752.006,0,0
125064,79.7709,-749.272,0,0
125324,79.8365,-746.498,0,0
125584,79.8497,-743.724,0,0
125845,79.8957,-740.914,0,0
126105,79.9518,-738.093,0,0
126365,80.0568,-735.242,0,0
126626,80.2631,-732.37,0,0
126886,80.5502,-729.57,0,0
127146,80.8423,-726.862,0,0
127406,81.0311,-724.257,0,0
127667,81.1047,-721.536,0,0
127927,81.3767,-718.801,0,0
128187,81.648,-716.139,0,0
128448,81.8706,-713.519,0,0
128708,82.0556,-710.942,0,0
128968,82.1565,-708.221,0,0
129229,82.4104,-705.496,0,0
129489,82.6797,-702.875,0,0
129749,82.8474,-700.331,0,0
130010,82.8939,-697.683,0,0
130270,82.9969,-694.865,0,0
130530,83.2225,-692.026,0,0
130791,83.6048,-689.188,0,0
131051,84.0443,-686.464,0,0
131311,84.5119,-683.844,0,0
131572,84.9338,-681.409,0,0
131832,85.1244,-678.937,0,0
132092,85.3266,-676.386,0,0
132353,85.5631,-673.862,0,0
132613,85.7438,-671.31,0,0
132873,85.8977,-668.714,0,0
133134,86.0177,-666.112,0,0
133394,86.1552,-663.408,0,0
133654,86.28,-660.608,0,0
133915,86.5235,-657.804,0,0
134175,86.8243,-654.995,0,0
134435,87.1497,-652.249,0,0
134696,87.3873,-649.487,0,0
134956,87.7296,-646.605,0,0
135216,88.2611,-643.763,0,0
135477,88.7754,-641.04,0,0
135737,89.3577,-638.288,0,0
135997,90.1124,-635.686,0,0
136258,90.7714,-633.385,0,0
136518,91.2361,-631.13,0,0
136778,91.5537,-629.036,0,0
137039,91.5495,-626.873,0,0
137299,91.3856,-624.466,0,0
137559,91.1874,-621.914,0,0
137819,90.9687,-619.269,0,0
138080,90.6418,-616.382,0,0
138340.125,90.4086,-613.235,0,0
138600.45,90.4159,-609.931,0,0
138860.775,90.6096,-606.636,0,0
139121.1,90.957,-603.325,0,0
139381.425,91.3804,-600.159,0,0
139641.75,91.7347,-597.024,0,0
139902.075,92.1064,-593.783,0,0
140162.4,92.6557,-590.518,0,0
140422.725,93.1908,-587.38,0,0
140683.05,93.7041,-584.18,0,0
140943.375,94.3074,-580.913,0,0
141203.7,94.9788,-577.745,0,0
141464.025,95.5747,-574.642,0,0
141724.35,96.0625,-571.449,0,0
141984.675,96.6133,-568.121,0,0
142245.0,97.2637,-564.699,0,0
142505.325,97.9813,-561.311,0,0
142765.65,98.7344,-557.905,0,0
143025.975,99.4575,-554.439,0,0
143286.3,100.327,-550.777,0,0
143546.625,101.488,-547.189,0,0
143806.95,102.571,-543.782,0,0
144067.275,103.57,-540.331,0,0
144327.6,104.601,-536.717,0,0
144587.925,105.719,-533.004,0,0
144848.25,107.07,-529.168,0,0
145108.575,108.701,-525.374,0,0
145368.9,110.378,-521.705,0,0
145629.225,112.238,-518.099,0,0
145889.55,114.174,-514.696,0,0
146149.875,115.981,-511.308,0,0
146410.2,117.824,-507.846,0,0
146670.525,119.899,-504.365,0,0
146930.85,122.086,-501.05,0,0
147191.175,124.304,-497.896,0,0
147451.5,126.462,-494.854,0,0
147711.825,128.414,-491.911,0,0
147972.15,130.168,-488.726,0,0
148232.475,132.013,-485.225,0,0
148492.8,134.123,-481.465,0,0
148753.125,136.63,-477.627,0,0
149013.45,139.434,-473.88,0,0
149273.775,142.445,-470.228,0,0
149534.1,145.71,-466.624,0,0
149794.425,149.267,-463.116,0,0
150054.75,153.069,-459.903,0,0
150315.075,157.065,-456.821,0,0
150575.4,161.325,-453.871,0,0
150835.725,165.921,-451.209,0,0
151096.05,171.055,-449.007,0,0
151356.375,176.283,-447.619,0,0
151616.7,181.381,-447.137,0,0
151877.025,186.104,-447.091,0,0
152137.35,190.396,-447.54,0,0
152397.675,194.047,-448.573,0,0
152658.0,196.836,-449.497,0,0
152918.325,199.205,-450.046,0,0
153178.65,201.566,-450.51,0,0
153438.975,203.625,-450.97,0,0
153699.3,205.779,-451.822,0,0
153959.625,207.137,-452.037,0,0
154219.95,208.463,-452.288,0,0
154480,209.055,-452.332,0,0
154741,209.453,-451.256,0,0
155001,210.858,-449.232,0,0
155261,213.279,-447.513,0,0
155522,216.37,-446.415,0,0
155782,219.895,-446.192,0,0
156042,223.012,-447.479,0,0
156303,225.303,-449.206,0,0
156563,226.52,-451.647,0,0
156823,225.981,-453.857,0,0
157084,224.41,-454.855,0,0
157344,222.515,-454.487,0,0
157604,221.094,-452.831,0,0
157864,220.233,-450.531,0,0
158125,220.087,-447.738,0,0
158385,220.822,-444.718,0,0
158645,222.352,-441.866,0,0
158906,224.54,-439.439,0,0
159166,227.44,-437.644,0,0
159426,230.442,-437.124,0,0
159687,232.571,-437.597,0,0
159947,233.687,-438.288,0,0
160207,234.077,-438.858,0,0
160468,233.54,-438.795,0,0
160728,232.322,-437.858,0,0
160988,231.435,-435.634,0,0
161249,231.203,-432.654,0,0
161509,231.964,-429.436,0,0
161769,233.513,-426.328,0,0
162030,235.547,-423.455,0,0
162290,238.061,-421.152,0,0
162550,240.785,-419.225,0,0
162811,243.643,-417.817,0,0
163071,246.397,-416.881,0,0
163331,249.056,-416.486,0,0
163592,251.236,-416.515,0,0
163852,252.888,-416.382,0,0
164112,254.38,-416.115,0,0
164373,256.083,-415.747,0,0
164633,257.952,-415.619,0,0
164893,259.612,-415.988,0,0
165154,260.967,-416.516,0,0
165414,262.235,-417.556,0,0
165674,262.872,-418.866,0,0
165935,262.452,-420.501,0,0
166195,261.081,-421.404,0,0
166455,259.353,-421.849,0,0
166716,257.093,-421.787,0,0
166976,254.248,-420.529,0,0
167236,251.788,-418.121,0,0
167497,250.196,-415.025,0,0
167757,249.195,-412.169,0,0
168017,248.518,-409.104,0,0
168277,248.022,-406.163,0,0
168538,247.574,-403.492,0,0
168798,246.684,-400.455,0,0
169058,246.051,-396.803,0,0
169319,245.996,-392.701,0,0
169579,246.51,-388.819,0,0
169839,247.177,-385.269,0,0
170100,247.74,-381.891,0,0
170360.075,248.323,-378.337,0,0
170620.4,249.014,-374.693,0,0
170880.725,249.704,-371.229,0,0
171141.05,250.087,-367.64,0,0
171401.375,250.098,-363.346,0,0
171661.7,250.728,-358.018,0,0
171922.025,252.501,-352.602,0,0
172182.35,255.099,-347.511,0,0
172442.675,258.044,-343.011,0,0
172703.0,261.044,-339.061,0,0
172963.325,263.919,-335.211,0,0
173223.65,267.172,-331.346,0,0
173483.975,270.704,-327.929,0,0
173744.3,274.296,-325.146,0,0
174004.625,277.554,-323.016,0,0
174264.95,280.233,-321.231,0,0
174525.275,282.017,-319.557,0,0
174785.6,282.921,-317.299,0,0
175045.925,283.614,-314.197,0,0
175306.25,284.365,-310.307,0,0
175566.575,285.082,-305.826,0,0
175826.9,286.183,-300.328,0,0
176087.225,288.335,-294.157,0,0
176347.55,291.401,-288.124,0,0
176607.875,295.159,-282.318,0,0
176868.2,299.516,-276.887,0,0
177128.525,303.913,-272.055,0,0
177388.85,308.015,-267.325,0,0
177649.175,312.042,-262.111,0,0
177909.5,316.721,-256.512,0,0
178169.825,322.08,-250.996,0,0
178430.15,327.725,-245.772,0,0
178690.475,333.717,-240.673,0,0
178950.8,340.022,-235.521,0,0
179211.125,346.799,-230.376,0,0
179471.45,354.111,-225.483,0,0
179731.775,362.01,-220.965,0,0
179992.1,370.409,-216.506,0,0
180252.425,379.723,-212.801,0,0
180512.75,388.985,-209.986,0,0
180773.075,398.573,-207.709,0,0
181033.4,408.273,-206.237,0,0
181293.725,417.434,-205.423,0,0
181554.05,426.612,-204.891,0,0
181814.375,435.975,-204.787,0,0
182074.7,445.211,-205.347,0,0
182335.025,454.217,-206.598,0,0
182595.35,462.788,-208.44,0,0
182855.675,470.733,-210.657,0,0
183116.0,478.318,-213.249,0,0
183376.325,485.15,-216.143,0,0
183636.65,490.978,-218.907,0,0
183896.975,496.226,-221.218,0,0
184157.3,501.297,-222.824,0,0
184417.625,506.539,-223.973,0,0
184677.95,511.789,-225.04,0,0
184938.275,517.074,-225.723,0,0
185198.6,522.814,-225.984,0,0
185458.925,528.898,-226.413,0,0
185719.25,534.986,-227.075,0,0
185979.575,540.97,-227.326,0,0
186239.9,547.987,-227.424,0,0
186500,555.303,-228.521,0,0
186761,562.008,-230.05,0,0
187021,568.547,-231.306,0,0
187281,575.192,-232.456,0,0
187542,581.782,-233.586,0,0
187802,588.73,-234.267,0,0
188062,596.599,-234.979,0,0
188322,605.217,-236.616,0,0
188583,613.131,-239.605,0,0
188843,620.893,-242.823,0,0
189103,627.91,-246.66,0,0
189364,633.992,-249.857,0,0
189624,640.027,-252.445,0,0
189884,646.247,-254.667,0,0
190145,652.466,-256.596,0,0
190405,658.832,-257.821,0,0
190665,666.144,-258.332,0,0
190926,675.143,-258.805,0,0
191186,685.413,-260.636,0,0
191446,695.65,-263.972,0,0
191707,705.361,-268.197,0,0
191967,714.432,-272.838,0,0
192227,723.142,-277.435,0,0
192488,731.334,-282.187,0,0
192748,738.725,-285.884,0,0
193008,747.457,-287.573,0,0
193269,758.556,-289.523,0,0
193529,771.081,-292.669,0,0
193789,784.664,-296.637,0,0
194050,799.602,-302.586,0,0
194310,814.695,-310.671,0,0
194570,829.796,-320.564,0,0
194831,844.17,-332.7,0,0
195091,857.07,-345.929,0,0
195351,869.251,-359.418,0,0
195612,881.441,-373.972,0,0
195872,893.417,-389.753,0,0
196132,904.514,-407.134,0,0
196393,914.273,-426.079,0,0
196653,922.234,-446.375,0,0
196913,928.349,-467.367,0,0
197174,932.54,-488.568,0,0
197434,935.267,-509.17,0,0
197694,937.562,-530.16,0,0
197955,937.685,-551.573,0,0
198215,935.965,-572.632,0,0
198475,932.897,-593.064,0,0
198735,928.413,-612.643,0,0
198996,923.439,-631.147,0,0
199256,918.369,-649.471,0,0
199516,912.733,-668.33,0,0
199777,905.256,-687.458,0,0
200037,895.691,-705.897,0,0
200297,884.617,-722.773,0,0
200558,872.787,-737.988,0,0
200818,860.847,-751.539,0,0
201078,849.343,-764.075,0,0
201339,838.251,-776.536,0,0
201599,826.636,-789.258,0,0
201859,813.691,-802.293,0,0
202120,798.742,-814.63,0,0
202380.025,781.658,-825.154,0,0
202640.35,763.328,-832.769,0,0
202900.675,745.519,-837.075,0,0
203161.0,729.753,-839.232,0,0
203421.325,715.335,-840.422,0,0
203681.65,702.434,-840.978,0,0
203941.975,690.679,-841.617,0,0
204202.3,679.183,-842.402,0,0
204462.625,667.975,-842.908,0,0
204722.95,657.378,-843.139,0,0
204983.275,646.827,-843.419,0,0
205243.6,636.19,-843.437,0,0
205503.925,625.137,-842.986,0,0
205764.25,613.916,-841.615,0,0
206024.575,602.524,-838.83,0,0
206284.9,591.87,-834.379,0,0
206545.225,582.709,-828.304,0,0
206805.55,575.583,-821.5,0,0
207065.875,570.761,-814.693,0,0
207326.2,567.669,-809.032,0,0
207586.525,565.387,-804.365,0,0
207846.85,563.818,-800.582,0,0
208107.175,562.757,-797.893,0,0
208367.5,561.751,-796.468,0,0
208627.825,560.138,-795.635,0,0
208888.15,557.869,-794.999,0,0
209148.475,555.331,-794.258,0,0
209408.8,552.827,-793.184,0,0
209669.125,550.584,-791.792,0,0
209929.45,548.905,-790.199,0,0
210189.775,547.972,-789.159,0,0
210450.1,547.207,-788.661,0,0
210710.425,546.256,-788.567,0,0
210970.75,545.36,-788.599,0,0
211231.075,544.46,-788.779,0,0
211491.4,543.779,-788.984,0,0
211751.725,543.387,-789.534,0,0
212012.05,543.149,-790.626,0,0
212272.375,542.793,-792.099,0,0
212532.7,542.281,-793.827,0,0
212793.025,541.686,-795.968,0,0
213053.35,540.895,-798.441,0,0
213313.675,539.708,-801.1,0,0
213574.0,538.407,-803.795,0,0
213834.325,536.942,-806.678,0,0
214094.65,535.228,-809.708,0,0
214354.975,533.293,-812.852,0,0
214615.3,531.295,-816.154,0,0
214875.625,528.933,-819.76,0,0
215135.95,526.205,-823.453,0,0
215396.275,522.963,-827.177,0,0
215656.6,519.294,-830.851,0,0
215916.925,515.19,-834.282,0,0
216177.25,510.796,-837.458,0,0
216437.575,506.064,-840.198,0,0
216697.9,501.244,-842.556,0,0
216958.225,496.505,-844.652,0,0
217218.55,491.844,-846.551,0,0
217478.875,487.089,-848.298,0,0
217739.2,482.322,-849.973,0,0
217999.525,477.515,-851.46,0,0
218259.85,472.552,-852.781,0,0
218520,467.626,-853.852,0,0
218780,462.716,-854.759,0,0
219041,457.824,-855.442,0,0
219301,453.081,-855.937,0,0
219561,448.316,-856.442,0,0
219822,443.489,-856.778,0,0
220082,438.554,-857.119,0,0
220342,433.62,-857.206,0,0
220603,428.599,-856.977,0,0
220863,423.495,-856.434,0,0
221123,418.473,-855.416,0,0
221384,413.777,-853.854,0,0
221644,409.555,-852.007,0,0
221904,405.985,-850.111,0,0
222165,402.78,-848.409,0,0
222425,399.87,-846.753,0,0
222685,397.117,-845.387,0,0
222946,394.485,-844.107,0,0
223206,392.086,-842.723,0,0
223466,389.914,-841.442,0,0
223727,388.038,-840.378,0,0
223987,386.283,-839.531,0,0
224247,384.659,-838.942,0,0
224508,383.187,-838.584,0,0
224768,381.793,-838.417,0,0
225028,380.616,-838.697,0,0
225289,379.37,-839.38,0,0
225549,377.881,-840.626,0,0
225809,376.036,-842.104,0,0
226070,373.669,-843.775,0,0
226330,370.98,-845.461,0,0
226590,367.934,-847.079,0,0
226851,364.61,-848.756,0,0
227111,360.95,-850.205,0,0
227371,357.085,-851.478,0,0
227632,352.898,-852.607,0,0
227892,348.543,-853.343,0,0
228152,344.169,-853.818,0,0
228413,339.933,-854.01,0,0
228673,335.797,-854.103,0,0
228933,331.726,-854.073,0,0
229193,327.706,-854.033,0,0
229454,323.692,-854.069,0,0
229714,319.655,-854.097,0,0
229974,315.486,-854.171,0,0
230235,311.167,-854.36,0,0
230495,306.571,-854.352,0,0
230755,301.534,-854.062,0,0
231016,296.564,-853.354,0,0
231276,291.731,-852.423,0,0
231536,286.948,-851.292,0,0
231797,282.257,-849.986,0,0
232057,277.625,-848.56,0,0
232317,273.022,-847.02,0,0
232578,268.46,-845.364,0,0
232838,263.965,-843.515,0,0
233098,259.464,-841.69,0,0
233359,254.966,-839.693,0,0
233619,250.394,-837.493,0,0
233879,245.888,-835.048,0,0
234140,241.432,-832.345,0,0
234400,237.114,-829.481,0,0
234660.3,232.835,-826.362,0,0
234920.625,228.869,-823.024,0,0
235180.95,225.101,-819.33,0,0
235441.275,221.7,-815.578,0,0
235701.6,218.636,-811.918,0,0
235961.925,215.661,-808.209,0,0
236222.25,212.898,-804.395,0,0
236482.575,210.352,-800.594,0,0
236742.9,208.033,-796.776,0,0
237003.225,205.907,-793.065,0,0
237263.55,203.919,-789.263,0,0
237523.875,202.155,-785.511,0,0
237784.2,200.572,-781.849,0,0
238044.525,199.223,-778.175,0,0
238304.85,197.999,-774.61,0,0
238565.175,197.04,-771.016,0,0
238825.5,196.322,-767.489,0,0
239085.825,195.963,-764.212,0,0
239346.15,195.758,-761.244,0,0
239606.475,195.612,-758.663,0,0
239866.8,195.504,-756.391,0,0
240127.125,195.144,-754.527,0,0
240387.45,194.601,-752.587,0,0
240647.775,194.07,-750.808,0,0
240908.1,193.443,-749.137,0,0
241168.425,192.639,-747.667,0,0
241428.75,191.604,-746.162,0,0
241689.075,190.425,-744.643,0,0
241949.4,189.072,-743.043,0,0
242209.725,187.691,-741.308,0,0
242470.05,186.141,-739.497,0,0
242730.375,184.569,-737.473,0,0
242990.7,183.101,-735.186,0,0
243251.025,181.751,-732.913,0,0
243511.35,180.502,-730.582,0,0
243771.675,179.277,-728.213,0,0
244032.0,178.226,-725.676,0,0
244292.325,177.292,-723.177,0,0
244552.65,176.597,-720.605,0,0
244812.975,176.048,-718.296,0,0
245073.3,175.486,-716.154,0,0
245333.625,174.743,-714.076,0,0
245593.95,174.069,-711.929,0,0
245854.275,173.399,-709.72,0,0
246114.6,172.81,-707.459,0,0
246374.925,172.42,-705.264,0,0
246635.25,172.054,-703.276,0,0
246895.575,171.698,-701.341,0,0
247155.9,171.285,-699.552,0,0
247416.225,170.721,-697.753,0,0
247676.55,170.085,-695.936,0,0
247936.875,169.467,-694.144,0,0
248197.2,168.682,-692.298,0,0
248457.525,167.898,-690.265,0,0
248717.85,167.161,-688.152,0,0
248978.175,166.498,-685.993,0,0
249238.5,165.874,-683.691,0,0
249498.825,165.34,-681.386,0,0
249759.15,164.888,-679.042,0,0
250019.475,164.551,-676.609,0,0
250279.8,164.273,-674.131,0,0
250540,164.141,-671.575,0,0
250800,164.197,-668.972,0,0
251061,164.493,-666.381,0,0
251321,165.001,-663.873,0,0
251581,165.764,-661.549,0,0
251842,166.672,-659.411,0,0
252102,167.64,-657.501,0,0
252362,168.724,-655.817,0,0
252623,169.833,-654.405,0,0
252883,170.866,-653.356,0,0
253143,171.689,-652.538,0,0
253404,172.226,-651.811,0,0
253664,172.55,-651.145,0,0
253924,172.67,-650.402,0,0
254185,172.636,-649.592,0,0
254445,172.543,-648.648,0,0
254705,172.362,-647.677,0,0
254966,172.192,-646.655,0,0
255226,171.983,-645.559,0,0
255486,171.667,-644.364,0,0
255747,171.291,-643.052,0,0
256007,171.03,-641.588,0,0
256267,170.852,-640.083,0,0
256528,170.698,-638.555,0,0
256788,170.492,-636.98,0,0
257048,170.373,-635.204,0,0
257309,170.397,-633.309,0,0
257569,170.624,-631.427,0,0
257829,170.96,-629.57,0,0
258090,171.418,-627.704,0,0
258350,171.969,-625.867,0,0
258610,172.621,-624.074,0,0
258871,173.392,-622.331,0,0
259131,174.272,-620.6,0,0
259391,175.352,-618.963,0,0
259651,176.522,-617.498,0,0
259912,177.723,-616.193,0,0
260172,178.926,-615.06,0,0
260432,180.121,-613.972,0,0
260693,181.229,-612.937,0,0
260953,182.368,-611.961,0,0
261213,183.533,-611.107,0,0
261474,184.718,-610.304,0,0
261734,185.913,-609.59,0,0
261994,187.135,-608.982,0,0
262255,188.293,-608.598,0,0
262515,189.206,-608.315,0,0
262775,189.935,-607.941,0,0
263036,190.631,-607.45,0,0
263296,191.332,-606.879,0,0
263556,191.993,-606.307,0,0
263817,192.543,-605.673,0,0
264077,193.077,-604.888,0,0
264337,193.65,-603.93,0,0
264598,194.322,-602.773,0,0
264858,195.222,-601.486,0,0
265118,196.282,-600.146,0,0
265379,197.654,-598.671,0,0
265639,199.234,-597.278,0,0
265899,201.038,-595.872,0,0
266160,203.223,-594.44,0,0
266420,205.759,-593.176,0,0
266680.25,208.639,-592.076,0,0
266940.575,211.862,-591.273,0,0
267200.9,215.409,-590.825,0,0
267461.225,219.202,-590.807,0,0
267721.55,223.258,-591.292,0,0
267981.875,227.501,-592.47,0,0
268242.2,231.66,-594.175,0,0
268502.525,235.698,-596.496,0,0
268762.85,239.483,-599.462,0,0
269023.175,242.923,-602.933,0,0
269283.5,245.946,-606.806,0,0
269543.825,248.507,-611.088,0,0
269804.15,250.674,-615.513,0,0
270064.475,252.452,-620.176,0,0
270324.8,253.898,-625.139,0,0
270585.125,254.856,-630.363,0,0
270845.45,255.347,-635.778,0,0
271105.775,255.18,-641.376,0,0
271366.1,254.442,-647.005,0,0
271626.425,253.111,-652.565,0,0
271886.75,251.245,-658.026,0,0
272147.075,248.81,-663.329,0,0
272407.4,245.866,-668.393,0,0
272667.725,242.423,-673.327,0,0
272928.05,238.507,-677.922,0,0
273188.375,234.03,-682.164,0,0
273448.7,229.132,-685.903,0,0
273709.025,223.876,-689.143,0,0
273969.35,218.285,-691.745,0,0
274229.675,212.519,-693.636,0,0
274490.0,206.8,-694.973,0,0
274750.325,201.01,-695.722,0,0
275010.65,195.467,-695.86,0,0
275270.975,189.995,-695.498,0,0
275531.3,184.893,-694.641,0,0
275791.625,180.149,-693.47,0,0
276051.95,175.772,-692.103,0,0
276312.275,171.641,-690.498,0,0
276572.6,167.83,-688.758,0,0
276832.925,164.272,-686.975,0,0
277093.25,160.878,-685.064,0,0
277353.575,157.744,-683.113,0,0
277613.9,154.821,-681.086,0,0
277874.225,152.093,-679.087,0,0
278134.55,149.482,-677.086,0,0
278394.875,146.934,-675.066,0,0
278655.2,144.457,-672.966,0,0
278915.525,142.094,-670.69,0,0
279175.85,139.9,-668.336,0,0
279436.175,137.985,-665.84,0,0
279696.5,136.3,-663.321,0,0
279956.825,134.838,-660.782,0,0
280217.15,133.633,-658.332,0,0
280477.475,132.625,-655.909,0,0
280737.8,131.82,-653.609,0,0
280998.125,131.187,-651.429,0,0
281258.45,130.719,-649.404,0,0
281518.775,130.323,-647.532,0,0
281779.1,130.038,-645.821,0,0
282039.425,129.785,-644.259,0,0
282299.75,129.595,-642.842,0,0
282560,129.379,-641.621,0,0
282820,129.143,-640.566,0,0
283081,128.769,-639.61,0,0
283341,128.283,-638.721,0,0
283601,127.687,-637.835,0,0
283862,126.988,-636.881,0,0
284122,126.249,-635.808,0,0
284382,125.526,-634.684,0,0
284643,124.834,-633.453,0,0
284903,124.23,-632.123,0,0
285163,123.749,-630.659,0,0
285424,123.502,-629.207,0,0
285684,123.47,-627.792,0,0
285944,123.666,-626.497,0,0
286205,124.027,-625.366,0,0
286465,124.494,-624.442,0,0
286725,125.097,-623.767,0,0
286986,125.769,-623.39,0,0
287246,126.442,-623.336,0,0
287506,127.022,-623.64,0,0
287767,127.393,-624.335,0,0
288027,127.418,-625.271,0,0
288287,127.022,-626.362,0,0
288548,126.208,-627.433,0,0
288808,125.067,-628.382,0,0
289068,123.698,-629.199,0,0
289329,122.104,-629.847,0,0
289589,120.293,-630.356,0,0
289849,118.302,-630.66,0,0
290109,116.19,-630.667,0,0
290370,114.109,-630.423,0,0
290630,112.092,-629.959,0,0
290890,110.159,-629.358,0,0
291151,108.272,-628.656,0,0
291411,106.454,-627.874,0,0
291671,104.69,-627.026,0,0
291932,102.948,-626.154,0,0
292192,101.182,-625.2,0,0
292452,99.4357,-624.167,0,0
292713,97.7407,-623.005,0,0
292973,96.1184,-621.776,0,0
293233,94.5611,-620.487,0,0
293494,93.0757,-619.173,0,0
293754,91.6442,-617.837,0,0
294014,90.2129,-616.481,0,0
294275,88.7955,-615.046,0,0
294535,87.4331,-613.532,0,0
294795,86.1381,-611.952,0,0
295056,84.9458,-610.337,0,0
295316,83.8369,-608.667,0,0
295576,82.8481,-607.015,0,0
295837,81.9195,-605.367,0,0
296097,81.0751,-603.747,0,0
296357,80.2794,-602.164,0,0
296618,79.5319,-600.624,0,0
296878,78.7592,-599.088,0,0
297138,78.0318,-597.575,0,0
297399,77.2919,-596.033,0,0
297659,76.5834,-594.497,0,0
297919,75.901,-592.919,0,0
298180,75.2775,-591.349,0,0
298440,74.672,-589.752,0,0
298700.2,74.1172,-588.158,0,0
298960.525,73.582,-586.568,0,0
299220.85,73.1171,-584.941,0,0
299481.175,72.7061,-583.314,0,0
299741.5,72.3048,-581.719,0,0
300001.825,71.9704,-580.071,0,0
300262.15,71.6889,-578.452,0,0
300522.475,71.4868,-576.797,0,0
300782.8,71.3803,-575.176,0,0
301043.125,71.3267,-573.591,0,0
301303.45,71.3635,-572.048,0,0
301563.775,71.4529,-570.565,0,0
301824.1,71.58,-569.141,0,0
302084.425,71.7334,-567.792,0,0
302344.75,71.9219,-566.477,0,0
302605.075,72.1283,-565.239,0,0
302865.4,72.3549,-564.044,0,0
303125.725,72.5898,-562.898,0,0
303386.05,72.8379,-561.795,0,0
303646.375,73.1027,-560.755,0,0
303906.7,73.3718,-559.76,0,0
304167.025,73.6297,-558.833,0,0
304427.35,73.8803,-557.944,0,0
304687.675,74.1338,-557.09,0,0
304948.0,74.3664,-556.273,0,0
305208.325,74.5838,-555.496,0,0
305468.65,74.8125,-554.756,0,0
305728.975,75.046,-554.044,0,0
305989.3,75.2511,-553.402,0,0
306249.625,75.4419,-552.792,0,0
306509.95,75.5927,-552.214,0,0
306770.275,75.74,-551.663,0,0
307030.6,75.8415,-551.134,0,0
307290.925,75.9353,-550.616,0,0
307551.25,76.0348,-550.113,0,0
307811.575,76.1454,-549.659,0,0
308071.9,76.2513,-549.251,0,0
308332.225,76.3217,-548.941,0,0
308592.55,76.3227,-548.693,0,0
308852.875,76.232,-548.503,0,0
309113.2,76.0184,-548.297,0,0
309373.525,75.7139,-548.066,0,0
309633.85,75.3434,-547.772,0,0
309894.175,74.9607,-547.398,0,0
310154.5,74.5576,-546.974,0,0
310414.825,74.1475,-546.517,0,0
310675.15,73.7674,-546.065,0,0
310935.475,73.3746,-545.577,0,0
311195.8,72.9838,-545.079,0,0
311456.125,72.6067,-544.57,0,0
311716.45,72.2308,-544.052,0,0
311976.775,71.8488,-543.556,0,0
312237.1,71.4464,-543.055,0,0
312497.425,71.0173,-542.562,0,0
312757.75,70.5948,-542.059,0,0
313018.075,70.1421,-541.54,0,0
313278.4,69.6569,-541.011,0,0
313538.725,69.1469,-540.468,0,0
313799.05,68.6131,-539.883,0,0
314059.375,68.0945,-539.26,0,0
314319.7,67.543,-538.595,0,0
314580,67.0683,-537.897,0,0
314840,66.506,-537.242,0,0
315101,66.0301,-536.536,0,0
315361,65.4693,-535.736,0,0
315621,65.0218,-534.962,0,0
315882,64.5333,-534.174,0,0
316142,64.1825,-533.226,0,0
316402,63.8265,-532.448,0,0
316663,63.3764,-531.525,0,0
316923,63.0893,-530.755,0,0
317183,62.8071,-529.902,0,0
317444,62.5674,-529.081,0,0
317704,62.2724,-528.278,0,0
317964,62.0837,-527.478,0,0
318225,61.828,-526.7,0,0
318485,61.6022,-525.837,0,0
318745,61.3437,-525.097,0,0
319006,61.2793,-524.393,0,0
319266,61.1686,-523.567,0,0
319526,61.1069,-522.892,0,0
319787,61.0235,-522.264,0,0
320047,60.9371,-521.617,0,0
320307,60.7332,-521.089,0,0
320567,60.6376,-520.51,0,0
320828,60.4367,-520.061,0,0
321088,60.1963,-519.577,0,0
321348,59.9547,-519.101,0,0
321609,59.6893,-518.648,0,0
321869,59.3902,-518.097,0,0
322129,59.0113,-517.591,0,0
322390,58.7261,-517.08,0,0
322650,58.434,-516.57,0,0
322910,57.9975,-516.092,0,0
323171,57.6323,-515.526,0,0
323431,57.2277,-515.1,0,0
323691,56.7619,-514.5,0,0
323952,56.3592,-514.059,0,0
324212,55.8653,-513.49,0,0
324472,55.3489,-512.895,0,0
324733,54.7775,-512.243,0,0
324993,54.2897,-511.637,0,0
325253,53.7594,-510.957,0,0
325514,53.1803,-510.208,0,0
325774,52.7058,-509.432,0,0
326034,52.1548,-508.676,0,0
326295,51.7438,-507.79,0,0
326555,51.2859,-507.022,0,0
326815,50.9245,-506.217,0,0
327076,50.4637,-505.38,0,0
327336,50.0382,-504.537,0,0
327596,49.7009,-503.674,0,0
327857,49.2757,-502.799,0,0
328117,49.0093,-501.97,0,0
328377,48.6811,-501.133,0,0
328638,48.3562,-500.343,0,0
328898,47.9781,-499.45,0,0
329158,47.6894,-498.608,0,0
329419,47.3583,-497.779,0,0
329679,47.118,-496.868,0,0
329939,46.9024,-496.07,0,0
330200,46.5241,-495.182,0,0
330460,46.3003,-494.297,0,0
330720.15,46.034,-493.44,0,0
330980.475,45.809,-492.544,0,0
331240.8,45.5518,-491.684,0,0
331501.125,45.3099,-490.82,0,0
331761.45,45.1522,-489.994,0,0
332021.775,44.9273,-489.106,0,0
332282.1,44.7019,-488.213,0,0
332542.425,44.5327,-487.316,0,0
332802.75,44.3554,-486.434,0,0
333063.075,44.1932,-485.573,0,0
333323.4,44.0953,-484.707,0,0
333583.725,43.9673,-483.818,0,0
333844.05,43.9201,-482.859,0,0
334104.375,43.8379,-482.029,0,0
334364.7,43.7474,-481.212,0,0
334625.025,43.7333,-480.39,0,0
334885.35,43.7386,-479.514,0,0
335145.675,43.6733,-478.826,0,0
335406.0,43.6622,-478.009,0,0
335666.325,43.6713,-477.266,0,0
335926.65,43.6621,-476.498,0,0
336186.975,43.6241,-475.811,0,0
336447.3,43.5864,-475.113,0,0
336707.625,43.5697,-474.38,0,0
336967.95,43.5663,-473.678,0,0
337228.275,43.5343,-473.027,0,0
337488.6,43.4742,-472.355,0,0
337748.925,43.436,-471.679,0,0
338009.25,43.3832,-471.066,0,0
338269.575,43.295,-470.426,0,0
338529.9,43.2386,-469.848,0,0
338790.225,43.1553,-469.174,0,0
339050.55,43.0684,-468.575,0,0
339310.875,42.9899,-467.89,0,0
339571.2,42.9082,-467.253,0,0
339831.525,42.7464,-466.674,0,0
340091.85,42.5834,-466.068,0,0
340352.175,42.4583,-465.44,0,0
340612.5,42.2844,-464.824,0,0
340872.825,42.1683,-464.171,0,0
341133.15,41.9632,-463.457,0,0
341393.475,41.737,-462.803,0,0
341653.8,41.5934,-462.13,0,0
341914.125,41.3789,-461.387,0,0
342174.45,41.2415,-460.683,0,0
342434.775,41.0715,-459.947,0,0
342695.1,40.8663,-459.16,0,0
342955.425,40.7359,-458.453,0,0
343215.75,40.646,-457.662,0,0
343476.075,40.5375,-456.889,0,0
343736.4,40.3854,-456.162,0,0
343996.725,40.263,-455.386,0,0
344257.05,40.1783,-454.633,0,0
344517.375,40.076,-453.89,0,0
344777.7,39.9556,-453.075,0,0
345038.025,39.8939,-452.258,0,0
345298.35,39.8567,-451.449,0,0
345558.675,39.7644,-450.675,0,0
345819.0,39.7733,-449.898,0,0
346079.325,39.7071,-449.077,0,0
346339.65,39.7084,-448.289,0,0
346599.975,39.7182,-447.478,0,0
346860,39.721,-446.685,0,0
347121,39.7777,-445.883,0,0
347381,39.8134,-445.099,0,0
347641,39.9171,-444.325,0,0
347902,39.9679,-443.603,0,0
348162,40.0502,-442.839,0,0
348422,40.1467,-442.088,0,0
348683,40.2517,-441.359,0,0
348943,40.3132,-440.638,0,0
349203,40.4246,-439.943,0,0
349464,40.5337,-439.248,0,0
349724,40.6652,-438.535,0,0
349984,40.7741,-437.882,0,0
350245,40.9093,-437.125,0,0
350505,41.07,-436.475,0,0
350765,41.2247,-435.799,0,0
351025,41.3597,-435.136,0,0
351286,41.5625,-434.507,0,0
351546,41.6996,-433.884,0,0
351806,41.8841,-433.351,0,0
352067,42.0331,-432.741,0,0
352327,42.1876,-432.191,0,0
352587,42.3414,-431.64,0,0
352848,42.4824,-431.061,0,0
353108,42.589,-430.549,0,0
353368,42.761,-429.968,0,0
353629,42.8765,-429.451,0,0
353889,43.0148,-428.965,0,0
354149,43.1219,-428.413,0,0
354410,43.2077,-427.899,0,0
354670,43.2912,-427.379,0,0
354930,43.4289,-426.884,0,0
355191,43.5466,-426.393,0,0
355451,43.6092,-425.889,0,0
355711,43.757,-425.37,0,0
355972,43.8203,-424.891,0,0
356232,43.8703,-424.392,0,0
356492,43.9678,-423.944,0,0
356753,44.0457,-423.48,0,0
357013,44.1075,-422.975,0,0
357273,44.1558,-422.53,0,0
357534,44.2009,-422.04,0,0
357794,44.2285,-421.556,0,0
358054,44.3014,-421.041,0,0
358315,44.302,-420.522,0,0
358575,44.3948,-420.01,0,0
358835,44.448,-419.598,0,0
359096,44.4904,-419.026,0,0
359356,44.5565,-418.537,0,0
359616,44.6167,-418.036,0,0
359877,44.6749,-417.56,0,0
360137,44.7187,-417.069,0,0
360397,44.8381,-416.571,0,0
360658,44.8312,-416.135,0,0
360918,44.8901,-415.62,0,0
361178,44.9436,-415.18,0,0
361438,45.0188,-414.708,0,0
361699,45.0431,-414.253,0,0
361959,45.0998,-413.734,0,0
362219,45.0922,-413.24,0,0
362480,45.2141,-412.765,0,0
362740.1,45.2559,-412.279,0,0
363000.425,45.3356,-411.736,0,0
363260.75,45.3335,-411.33,0,0
363521.075,45.4152,-410.827,0,0
363781.4,45.4124,-410.347,0,0
364041.725,45.4832,-409.85,0,0
364302.05,45.5385,-409.421,0,0
364562.375,45.6192,-408.891,0,0
364822.7,45.6609,-408.402,0,0
365083.025,45.7401,-407.916,0,0
365343.35,45.8605,-407.412,0,0
365603.675,45.9383,-406.968,0,0
365864.0,45.9791,-406.491,0,0
366124.325,46.0851,-406.036,0,0
366384.65,46.1967,-405.606,0,0
366644.975,46.2683,-405.131,0,0
366905.3,46.3389,-404.681,0,0
367165.625,46.3733,-404.209,0,0
367425.95,46.4593,-403.827,0,0
367686.275,46.5131,-403.328,0,0
367946.6,46.5776,-402.859,0,0
368206.925,46.6686,-402.417,0,0
368467.25,46.7235,-401.934,0,0
368727.575,46.8399,-401.414,0,0
368987.9,46.9396,-400.965,0,0
369248.225,47.0713,-400.474,0,0
369508.55,47.2057,-400.007,0,0
369768.875,47.3891,-399.54,0,0
370029.2,47.6108,-399.072,0,0
370289.525,47.8384,-398.699,0,0
370549.85,48.0589,-398.306,0,0
370810.175,48.264,-397.988,0,0
371070.5,48.4659,-397.687,0,0
371330.825,48.6391,-397.435,0,0
371591.15,48.7369,-397.142,0,0
371851.475,48.9141,-396.908,0,0
372111.8,48.9965,-396.687,0,0
372372.125,49.0911,-396.468,0,0
372632.45,49.1337,-396.28,0,0
372892.775,49.162,-396.047,0,0
373153.1,49.1991,-395.85,0,0
373413.425,49.155,-395.612,0,0
373673.75,49.1368,-395.383,0,0
373934.075,49.0737,-395.144,0,0
374194.4,48.9799,-394.886,0,0
374454.725,48.8696,-394.611,0,0
374715.05,48.7689,-394.264,0,0
374975.375,48.6673,-393.979,0,0
375235.7,48.5351,-393.564,0,0
375496.025,48.4377,-393.23,0,0
375756.35,48.3471,-392.799,0,0
376016.675,48.3158,-392.4,0,0
376277.0,48.284,-391.92,0,0
376537.325,48.2701,-391.514,0,0
376797.65,48.2853,-391.099,0,0
377057.975,48.3742,-390.719,0,0
377318.3,48.4344,-390.365,0,0
377578.625,48.4946,-390.074,0,0
377838.95,48.5099,-389.793,0,0
378099.275,48.507,-389.552,0,0
378359.6,48.4602,-389.328,0,0
378619.925,48.3238,-389.1,0,0
378880,48.2152,-388.826,0,0
379141,48.003,-388.512,0,0
379401,47.8092,-388.154,0,0
379661,47.6305,-387.707,0,0
379922,47.4929,-387.242,0,0
380182,47.402,-386.732,0,0
380442,47.3717,-386.226,0,0
380703,47.3878,-385.729,0,0
380963,47.5001,-385.257,0,0
381223,47.63,-384.841,0,0
381483,47.8012,-384.537,0,0
381744,47.8792,-384.283,0,0
382004,47.9655,-384.108,0,0
382264,47.9444,-383.934,0,0
382525,47.8976,-383.811,0,0
382785,47.7476,-383.629,0,0
383045,47.5641,-383.482,0,0
383306,47.3791,-383.25,0,0
383566,47.1406,-383.054,0,0
383826,46.9063,-382.763,0,0
384087,46.5992,-382.447,0,0
384347,46.3254,-382.096,0,0
384607,46.0224,-381.753,0,0
384868,45.7277,-381.339,0,0
385128,45.4541,-380.923,0,0
385388,45.1492,-380.473,0,0
385649,44.8863,-379.949,0,0
385909,44.6495,-379.478,0,0
386169,44.3595,-378.981,0,0
386430,44.1528,-378.462,0,0
386690,43.9213,-377.883,0,0
386950,43.7001,-377.323,0,0
387211,43.498,-376.712,0,0
387471,43.3257,-376.119,0,0
387731,43.151,-375.497,0,0
387992,43.042,-374.841,0,0
388252,42.9057,-374.255,0,0
388512,42.8442,-373.579,0,0
388773,42.791,-372.959,0,0
389033,42.7127,-372.334,0,0
389293,42.698,-371.681,0,0
389554,42.739,-371.106,0,0
389814,42.764,-370.526,0,0
390074,42.7619,-369.958,0,0
390335,42.7984,-369.456,0,0
390595,42.8106,-368.901,0,0
390855,42.8116,-368.407,0,0
391116,42.814,-367.88,0,0
391376,42.8427,-367.39,0,0
391636,42.8124,-366.876,0,0
391896,42.8233,-366.393,0,0
392157,42.787,-365.859,0,0
392417,42.7343,-365.359,0,0
392677,42.7107,-364.839,0,0
392938,42.7082,-364.317,0,0
393198,42.7048,-363.802,0,0
393458,42.6769,-363.286,0,0
393719,42.6464,-362.735,0,0
393979,42.5848,-362.202,0,0
394239,42.5898,-361.646,0,0
394500,42.5622,-361.082,0,0
394760.05,42.5529,-360.529,0,0
395020.375,42.5785,-359.962,0,0
395280.7,42.616,-359.372,0,0
395541.025,42.6422,-358.81,0,0
395801.35,42.7057,-358.252,0,0
396061.675,42.7306,-357.674,0,0
396322.0,42.7999,-357.108,0,0
396582.325,42.8833,-356.582,0,0
396842.65,42.9774,-356.031,0,0
397102.975,43.0508,-355.513,0,0
397363.3,43.1305,-355.029,0,0
397623.625,43.2009,-354.477,0,0
397883.95,43.2578,-353.965,0,0
398144.275,43.3544,-353.473,0,0
398404.6,43.4381,-352.966,0,0
398664.925,43.4807,-352.502,0,0
398925.25,43.5466,-351.956,0,0
399185.575,43.6463,-351.489,0,0
399445.9,43.6975,-350.983,0,0
399706.225,43.7461,-350.47,0,0
399966.55,43.8074,-349.959,0,0
400006.6,43.7923,-349.92,0,0