File: Accelerated corrosion test data/2025-10-20_18-00-03/sample_6.csv
Frequency (Hz),Impedance (ohms),Phase (Radians),Temperature (C),Humidity (%)
10000.0,4087.63,-6819.61,0,0
10260.325,3949.77,-6730.52,0,0
10520.65,3818.17,-6642.28,0,0
10780.975,3692.76,-6555.47,0,0
11041.3,3573.7,-6469.19,0,0
11301.625,3459.82,-6384.57,0,0
11561.95,3351.13,-6300.53,0,0
11822.275,3247.77,-6219.01,0,0
12082.6,3148.29,-6138.09,0,0
12342.925,3054.24,-6058.31,0,0
12603.25,2965.18,-5979,0,0
12863.575,2879.55,-5901.94,0,0
13123.9,2798.06,-5827.34,0,0
13384.225,2718.37,-5756.1,0,0
13644.55,2641.29,-5684.03,0,0
13904.875,2568.47,-5612.66,0,0
14165.2,2498.22,-5542.8,0,0
14425.525,2431.56,-5473.33,0,0
14685.8,2365.88,-5406.37,0,0
14946.175,2305.75,-5339.9,0,0
15206.5,2246.03,-5275,0,0
15466.825,2188.09,-5213.26,0,0
15727.15,2133.57,-5151.22,0,0
15987.5,2081.17,-5090.31,0,0
16247.8,2030.87,-5029.33,0,0
16508.125,1981.45,-4971.5,0,0
16768.45,1934.5,-4913.43,0,0
17028.775,1889.4,-4857.98,0,0
17289.1,1845.53,-4802.64,0,0
17549.425,1803.04,-4748.76,0,0
17809.75,1761.89,-4695.11,0,0
18070.075,1722.27,-4643.32,0,0
18330.4,1684.26,-4592.55,0,0
18590.725,1647.55,-4541.73,0,0
18851.05,1612.65,-4492.14,0,0
19111.375,1578.99,-4444.75,0,0
19371.7,1545.69,-4396.87,0,0
19632.025,1513.59,-4352.43,0,0
19892.35,1481.69,-4306.86,0,0
20152.675,1452.03,-4261.68,0,0
20413.0,1423.03,-4218.28,0,0
20673.3,1394.33,-4174.85,0,0
20933.65,1366.8,-4132.74,0,0
21193.975,1340.42,-4090.97,0,0
21454.3,1314.3,-4050.51,0,0
21714.625,1289.16,-4010.41,0,0
21974.9,1265.16,-3970.55,0,0
22235.275,1241.31,-3932.23,0,0
22495.6,1218.16,-3894.2,0,0
22755.925,1196.13,-3855.99,0,0
23016.25,1175.4,-3818.04,0,0
23276.6,1156.89,-3782.24,0,0
23536.9,1136.34,-3747.59,0,0
23797.225,1116.63,-3713.8,0,0
24057.55,1097.52,-3680.26,0,0
24317.875,1078.34,-3646.78,0,0
24578.2,1060.12,-3614.2,0,0
24838.525,1042.01,-3581.21,0,0
25098.85,1025.43,-3549.41,0,0
25359.175,1009.1,-3518.58,0,0
25619.5,992.429,-3487.97,0,0
25879.8,975.979,-3457.54,0,0
26140.1,960.449,-3427.5,0,0
26400.5,945.461,-3397.62,0,0
26660.8,931.213,-3368.67,0,0
26921.1,917.212,-3340.3,0,0
27181.4,903.453,-3312.22,0,0
27441.8,889.89,-3284.98,0,0
27702.1,876.922,-3258.13,0,0
27962.4,863.945,-3232.65,0,0
28222.7,850.157,-3206.55,0,0
28483.1,836.821,-3180.83,0,0
28743.4,824.336,-3154.42,0,0
29003.7,811.955,-3129.03,0,0
29264,799.657,-3103.26,0,0
29524.4,788.281,-3077.3,0,0
29784.7,779.048,-3051.73,0,0
30045,769.227,-3028.47,0,0
30305.3,759.462,-3004.48,0,0
30565.7,751.399,-2982.45,0,0
30826,740.721,-2961.37,0,0
31086.3,730.573,-2939.74,0,0
31346.6,719.689,-2917.65,0,0
31607,710.253,-2894.74,0,0
31867.3,701.502,-2873.65,0,0
32127.6,692.088,-2851.7,0,0
32387.9,684.266,-2829.71,0,0
32648.3,677.262,-2809.28,0,0
32908.6,670.303,-2789.59,0,0
33168.9,663.203,-2771.38,0,0
33429.2,654.86,-2753.6,0,0
33689.6,645.397,-2735.58,0,0
33949.9,636.361,-2716.14,0,0
34210.2,627.928,-2696.94,0,0
34470.5,620.317,-2678.09,0,0
34730.9,612.532,-2659.42,0,0
34991.2,605.323,-2640.79,0,0
35251.5,598.205,-2623.1,0,0
35511.8,590.952,-2605.76,0,0
35772.2,583.251,-2588.16,0,0
36032.5,575.709,-2570.39,0,0
36292.8,568.796,-2552.1,0,0
36553.1,562.518,-2534.75,0,0
36813.5,556.152,-2517.27,0,0
37073.8,549.918,-2500.11,0,0
37334.1,544.476,-2483.21,0,0
37594.4,538.739,-2466.91,0,0
37854.8,532.946,-2450.42,0,0
38115.1,527.2,-2434.06,0,0
38375.4,522.031,-2417.73,0,0
38635.7,517.204,-2401.7,0,0
38896.1,512.06,-2385.64,0,0
39156.4,508.32,-2369.83,0,0
39416.7,504.55,-2354.68,0,0
39677,500.748,-2340.2,0,0
39937.4,497.042,-2326.29,0,0
40197.7,493.038,-2312.03,0,0
40458,489.766,-2299.03,0,0
40718.3,485.732,-2286.6,0,0
40978.7,481.105,-2274.19,0,0
41239,475.981,-2260.99,0,0
41499.3,471.703,-2248.02,0,0
41759.6,467.436,-2236.24,0,0
42020,462.132,-2223.88,0,0
42280.275,456.408,-2211.43,0,0
42540.6,450.901,-2198.28,0,0
42800.925,445.853,-2185.06,0,0
43061.25,440.784,-2171.05,0,0
43321.575,437.302,-2156.4,0,0
43581.9,434.378,-2142.84,0,0
43842.225,431.499,-2130.18,0,0
44102.55,429.294,-2117.79,0,0
44362.875,426.391,-2105.59,0,0
44623.2,424.133,-2093.92,0,0
44883.525,421.38,-2082.66,0,0
45143.85,418.65,-2071.16,0,0
45404.175,416.466,-2060.32,0,0
45664.5,413.445,-2049.19,0,0
45924.825,411.519,-2038.3,0,0
46185.15,409.517,-2028.66,0,0
46445.475,406.54,-2018.62,0,0
46705.8,403.623,-2008.6,0,0
46966.125,400.995,-1998.26,0,0
47226.45,398.758,-1988.63,0,0
47486.775,396.524,-1978.8,0,0
47747.1,395,-1969.78,0,0
48007.425,392.43,-1961.67,0,0
48267.75,389.527,-1953.38,0,0
48528.075,386.883,-1945.02,0,0
48788.4,384.356,-1937.63,0,0
49048.725,380.293,-1930.54,0,0
49309.05,375.448,-1922.91,0,0
49569.375,370.52,-1914.2,0,0
49829.7,366.21,-1905.5,0,0
50090.025,361.481,-1897.25,0,0
50350.35,356.366,-1888.07,0,0
50610.675,351.571,-1878.47,0,0
50871.0,347.016,-1868.6,0,0
51131.325,343.081,-1858.24,0,0
51391.65,339.68,-1848.51,0,0
51651.975,336.171,-1838.44,0,0
51912.3,333.12,-1828.59,0,0
52172.625,329.971,-1818.87,0,0
52432.95,327.41,-1809.12,0,0
52693.275,325.241,-1799.48,0,0
52953.6,323.238,-1790.7,0,0
53213.925,320.825,-1782.17,0,0
53474.25,318.167,-1773.67,0,0
53734.575,315.355,-1764.84,0,0
53994.9,312.756,-1755.89,0,0
54255.225,310.666,-1746.98,0,0
54515.55,308.83,-1738.21,0,0
54775.875,307.148,-1729.89,0,0
55036.2,305.567,-1722.05,0,0
55296.525,303.395,-1714.52,0,0
55556.85,300.862,-1706.98,0,0
55817.175,298.292,-1698.98,0,0
56077.5,295.834,-1690.87,0,0
56337.825,293.659,-1682.6,0,0
56598.15,291.649,-1674.24,0,0
56858.475,290.142,-1666.14,0,0
57118.8,288.936,-1658.39,0,0
57379.125,287.581,-1651.21,0,0
57639.45,286.045,-1644.08,0,0
57899.775,284.614,-1637.2,0,0
58160.1,282.737,-1630.75,0,0
58420.4,280.817,-1624.25,0,0
58680.7,278.532,-1617.6,0,0
58941.1,276.245,-1610.94,0,0
59201.4,273.809,-1604.24,0,0
59461.7,271.568,-1597.29,0,0
59722,269.135,-1590.56,0,0
59982.4,266.866,-1583.58,0,0
60242.7,264.532,-1576.63,0,0
60503,262.293,-1569.62,0,0
60763.3,260.025,-1562.62,0,0
61023.7,258.127,-1555.71,0,0
61284,255.704,-1548.99,0,0
61544.3,253.119,-1541.86,0,0
61804.6,250.77,-1534.41,0,0
62065,248.719,-1526.53,0,0
62325.3,247.197,-1518.58,0,0
62585.6,246.165,-1510.65,0,0
62845.9,245.974,-1502.93,0,0
63106.3,246.178,-1496.22,0,0
63366.6,246.287,-1490.34,0,0
63626.9,245.991,-1485.12,0,0
63887.2,245.093,-1480.14,0,0
64147.6,243.645,-1475.26,0,0
64407.9,241.572,-1470.14,0,0
64668.2,239.449,-1464.31,0,0
64928.5,237.399,-1458.33,0,0
65188.9,235.59,-1452.1,0,0
65449.2,234.283,-1445.91,0,0
65709.5,233.043,-1439.91,0,0
65969.8,231.892,-1434.08,0,0
66230.2,230.715,-1428.86,0,0
66490.5,229.218,-1423.33,0,0
66750.8,227.538,-1418,0,0
67011.1,225.887,-1412.66,0,0
67271.5,224.131,-1407.22,0,0
67531.8,222.345,-1401.69,0,0
67792.1,220.762,-1396.02,0,0
68052.4,219.049,-1390.52,0,0
68312.8,217.328,-1384.95,0,0
68573.1,215.759,-1379.25,0,0
68833.4,214.228,-1373.6,0,0
69093.7,212.894,-1368.02,0,0
69354.1,211.318,-1362.64,0,0
69614.4,209.751,-1357.05,0,0
69874.7,208.334,-1351.54,0,0
70135,206.822,-1345.98,0,0
70395.4,205.417,-1340.57,0,0
70655.7,204.03,-1335.1,0,0
70916,202.678,-1329.6,0,0
71176.3,201.314,-1324.11,0,0
71436.7,200.071,-1318.65,0,0
71697,198.772,-1313.16,0,0
71957.3,197.605,-1307.9,0,0
72217.6,196.474,-1302.54,0,0
72478,195.443,-1297.25,0,0
72738.3,194.282,-1292.05,0,0
72998.6,193.216,-1286.83,0,0
73258.9,192.128,-1281.68,0,0
73519.3,191.018,-1276.54,0,0
73779.6,189.919,-1271.48,0,0
74039.9,188.993,-1266.36,0,0
74300.225,187.964,-1261.4,0,0
74560.55,186.917,-1256.5,0,0
74820.875,185.858,-1251.57,0,0
75081.2,184.804,-1246.68,0,0
75341.525,183.738,-1241.77,0,0
75601.85,182.633,-1236.92,0,0
75862.175,181.569,-1232,0,0
76122.5,180.525,-1227.14,0,0
76382.825,179.562,-1222.28,0,0
76643.15,178.524,-1217.38,0,0
76903.475,177.597,-1212.55,0,0
77163.8,176.582,-1207.71,0,0
77424.125,175.638,-1202.87,0,0
77684.45,174.678,-1198.07,0,0
77944.775,173.743,-1193.24,0,0
78205.1,172.871,-1188.45,0,0
78465.425,171.983,-1183.75,0,0
78725.75,171.125,-1178.95,0,0
78986.075,170.238,-1174.21,0,0
79246.4,169.459,-1169.45,0,0
79506.725,168.645,-1164.76,0,0
79767.05,167.867,-1160.06,0,0
80027.375,167.058,-1155.35,0,0
80287.7,166.318,-1150.64,0,0
80548.025,165.627,-1145.94,0,0
80808.35,165.012,-1141.22,0,0
81068.675,164.441,-1136.51,0,0
81329.0,163.836,-1131.81,0,0
81589.325,163.299,-1127.24,0,0
81849.65,162.847,-1122.69,0,0
82109.975,162.374,-1118.17,0,0
82370.3,161.938,-1113.62,0,0
82630.625,161.431,-1109.17,0,0
82890.95,160.991,-1104.7,0,0
83151.275,160.584,-1100.24,0,0
83411.6,160.189,-1095.77,0,0
83671.925,159.901,-1091.27,0,0
83932.25,159.588,-1086.82,0,0
84192.575,159.35,-1082.34,0,0
84452.9,159.185,-1077.94,0,0
84713.225,159.063,-1073.59,0,0
84973.55,159.048,-1069.25,0,0
85233.875,159.035,-1065.03,0,0
85494.2,159.211,-1060.88,0,0
85754.525,159.286,-1056.75,0,0
86014.85,159.337,-1052.7,0,0
86275.175,159.412,-1048.87,0,0
86535.5,159.514,-1044.94,0,0
86795.825,159.566,-1041.02,0,0
87056.15,159.773,-1037.19,0,0
87316.475,159.854,-1033.46,0,0
87576.8,159.986,-1029.84,0,0
87837.125,160.075,-1026.21,0,0
88097.45,160.246,-1022.58,0,0
88357.775,160.284,-1018.92,0,0
88618.1,160.618,-1015.15,0,0
88878.425,160.928,-1011.65,0,0
89138.75,161.373,-1008.2,0,0
89399.075,161.803,-1005.09,0,0
89659.4,162.291,-1002.13,0,0
89919.725,162.63,-999.373,0,0
90180,162.483,-996.98,0,0
90440.4,162.219,-994.36,0,0
90700.7,161.689,-991.592,0,0
90961,161.196,-988.892,0,0
91221.3,160.226,-985.901,0,0
91481.7,159.508,-982.558,0,0
91742,159.041,-978.96,0,0
92002.3,158.826,-975.534,0,0
92262.6,158.715,-972.311,0,0
92523,158.4,-969.32,0,0
92783.3,157.942,-966.19,0,0
93043.6,157.496,-962.993,0,0
93303.9,157.118,-959.656,0,0
93564.3,156.842,-956.317,0,0
93824.6,156.523,-952.879,0,0
94084.9,156.407,-949.562,0,0
94345.2,156.297,-946.289,0,0
94605.6,156.307,-942.982,0,0
94865.9,156.335,-939.907,0,0
95126.2,156.203,-936.723,0,0
95386.5,156.406,-933.447,0,0
95646.9,156.623,-930.392,0,0
95907.2,156.963,-927.555,0,0
96167.5,157.175,-924.896,0,0
96427.8,157.269,-922.354,0,0
96688.2,157.286,-919.88,0,0
96948.5,157.163,-917.541,0,0
97208.8,156.805,-915.115,0,0
97469.1,156.241,-912.656,0,0
97729.5,155.573,-909.878,0,0
97989.8,155.128,-906.849,0,0
98250.1,154.846,-903.977,0,0
98510.4,154.599,-901,0,0
98770.8,154.443,-897.992,0,0
99031.1,154.544,-895.161,0,0
99291.4,154.555,-892.501,0,0
99551.7,154.563,-889.889,0,0
99812.1,154.566,-887.34,0,0
100072,154.534,-884.858,0,0
100333,154.478,-882.393,0,0
100593,154.529,-880.049,0,0
100853,154.497,-877.889,0,0
101114,154.277,-875.798,0,0
101374,153.963,-873.747,0,0
101634,153.428,-871.733,0,0
101895,152.853,-869.522,0,0
102155,152.331,-867.272,0,0
102415,151.854,-865.024,0,0
102676,151.347,-862.946,0,0
102936,150.674,-860.914,0,0
103196,149.933,-858.884,0,0
103457,149.122,-856.821,0,0
103717,148.176,-854.772,0,0
103977,147.126,-852.671,0,0
104238,146.026,-850.573,0,0
104498,144.69,-848.599,0,0
104758,143.082,-846.378,0,0
105019,141.371,-844.028,0,0
105279,139.458,-841.457,0,0
105539,137.435,-838.573,0,0
105800,135.316,-835.27,0,0
106060,133.411,-831.572,0,0
106320.175,131.721,-827.502,0,0
106580.5,130.335,-823.324,0,0
106840.825,129.241,-818.903,0,0
107101.15,128.574,-814.442,0,0
107361.475,128.17,-810.088,0,0
107621.8,128.034,-805.707,0,0
107882.125,128.324,-801.462,0,0
108142.45,128.689,-797.523,0,0
108402.775,129.129,-793.666,0,0
108663.1,129.792,-790.114,0,0
108923.425,130.315,-786.644,0,0
109183.75,130.842,-783.267,0,0
109444.075,131.455,-779.976,0,0
109704.4,132.008,-776.72,0,0
109964.725,132.785,-773.523,0,0
110225.05,133.486,-770.326,0,0
110485.375,134.218,-767.318,0,0
110745.7,135.06,-764.295,0,0
111006.025,136.101,-761.293,0,0
111266.35,137.154,-758.472,0,0
111526.675,138.674,-755.98,0,0
111787.0,140.097,-754.003,0,0
112047.325,141.336,-752.193,0,0
112307.65,142.339,-750.775,0,0
112567.975,142.915,-749.692,0,0
112828.3,142.947,-748.444,0,0
113088.625,142.775,-746.981,0,0
113348.95,142.291,-745.277,0,0
113609.275,142.094,-743.178,0,0
113869.6,142.135,-741.311,0,0
114129.925,141.807,-739.584,0,0
114390.25,141.472,-737.541,0,0
114650.575,140.924,-735.558,0,0
114910.9,140.458,-733.184,0,0
115171.225,140.347,-730.552,0,0
115431.55,140.741,-728.076,0,0
115691.875,141.294,-726.292,0,0
115952.2,141.513,-724.963,0,0
116212.525,141.236,-723.627,0,0
116472.85,140.644,-722.274,0,0
116733.175,139.89,-720.895,0,0
116993.5,138.735,-719.38,0,0
117253.825,137.375,-717.468,0,0
117514.15,135.916,-715.216,0,0
117774.475,134.584,-712.677,0,0
118034.8,133.286,-709.833,0,0
118295.125,132.291,-706.823,0,0
118555.45,131.449,-703.729,0,0
118815.775,130.666,-700.673,0,0
119076.1,129.974,-697.334,0,0
119336.425,129.552,-693.926,0,0
119596.75,129.362,-690.5,0,0
119857.075,129.471,-687.15,0,0
120117.4,129.713,-684.057,0,0
120377.725,129.85,-680.951,0,0
120638.05,130.257,-677.808,0,0
120898.375,130.97,-674.814,0,0
121158.7,131.783,-672.244,0,0
121419.025,132.457,-670.063,0,0
121679.35,132.84,-668.02,0,0
121939.675,132.983,-665.992,0,0
122200.0,132.993,-663.939,0,0
122460,132.779,-661.807,0,0
122721,132.473,-659.464,0,0
122981,132.283,-656.92,0,0
123241,132.181,-654.413,0,0
123502,132.093,-651.826,0,0
123762,132.11,-649.279,0,0
124022,132.079,-646.724,0,0
124283,132.142,-644.148,0,0
124543,132.223,-641.646,0,0
124803,132.301,-639.155,0,0
125064,132.295,-636.717,0,0
125324,132.288,-634.227,0,0
125584,132.256,-631.663,0,0
125845,132.271,-629.077,0,0
126105,132.342,-626.477,0,0
126365,132.381,-623.896,0,0
126626,132.432,-621.268,0,0
126886,132.478,-618.618,0,0
127146,132.582,-615.873,0,0
127406,132.591,-613.137,0,0
127667,132.841,-610.414,0,0
127927,132.992,-607.534,0,0
128187,133.292,-604.65,0,0
128448,133.71,-601.832,0,0
128708,134.294,-598.987,0,0
128968,134.881,-596.25,0,0
129229,135.473,-593.581,0,0
129489,136.129,-590.922,0,0
129749,136.83,-588.315,0,0
130010,137.494,-585.8,0,0
130270,138.189,-583.28,0,0
130530,138.886,-580.835,0,0
130791,139.595,-578.388,0,0
131051,140.365,-575.924,0,0
131311,141.114,-573.518,0,0
131572,141.883,-571.153,0,0
131832,142.634,-568.749,0,0
132092,143.473,-566.382,0,0
132353,144.37,-564.089,0,0
132613,145.267,-561.839,0,0
132873,146.229,-559.673,0,0
133134,147.122,-557.567,0,0
133394,148.016,-555.53,0,0
133654,148.905,-553.468,0,0
133915,149.687,-551.477,0,0
134175,150.541,-549.481,0,0
134435,151.366,-547.476,0,0
134696,152.285,-545.505,0,0
134956,153.211,-543.586,0,0
135216,154.111,-541.765,0,0
135477,154.946,-539.927,0,0
135737,155.836,-538.113,0,0
135997,156.794,-536.395,0,0
136258,157.757,-534.763,0,0
136518,158.674,-533.232,0,0
136778,159.517,-531.81,0,0
137039,160.251,-530.406,0,0
137299,160.869,-529.067,0,0
137559,161.468,-527.703,0,0
137819,161.981,-526.386,0,0
138080,162.441,-525.099,0,0
138340.125,162.788,-523.794,0,0
138600.45,163.055,-522.517,0,0
138860.775,163.259,-521.174,0,0
139121.1,163.314,-519.874,0,0
139381.425,163.284,-518.39,0,0
139641.75,163.29,-516.808,0,0
139902.075,163.167,-515.198,0,0
140162.4,163.174,-513.383,0,0
140422.725,163.118,-511.6,0,0
140683.05,163.319,-509.734,0,0
140943.375,163.46,-507.944,0,0
141203.7,163.582,-506.208,0,0
141464.025,163.691,-504.529,0,0
141724.35,163.752,-502.829,0,0
141984.675,163.781,-501.167,0,0
142245.0,163.545,-499.595,0,0
142505.325,163.301,-497.739,0,0
142765.65,162.868,-495.753,0,0
143025.975,162.653,-493.524,0,0
143286.3,162.486,-491.148,0,0
143546.625,162.438,-488.698,0,0
143806.95,162.527,-486.236,0,0
144067.275,162.881,-483.774,0,0
144327.6,163.352,-481.397,0,0
144587.925,163.888,-479.204,0,0
144848.25,164.392,-477.1,0,0
145108.575,164.861,-475.166,0,0
145368.9,165.321,-473.238,0,0
145629.225,165.606,-471.434,0,0
145889.55,165.813,-469.512,0,0
146149.875,165.953,-467.654,0,0
146410.2,166.121,-465.722,0,0
146670.525,166.135,-463.827,0,0
146930.85,166.133,-461.791,0,0
147191.175,166.072,-459.8,0,0
147451.5,165.929,-457.691,0,0
147711.825,165.761,-455.495,0,0
147972.15,165.46,-453.169,0,0
148232.475,165.223,-450.649,0,0
148492.8,165.142,-448.031,0,0
148753.125,165.093,-445.336,0,0
149013.45,165.17,-442.448,0,0
149273.775,165.373,-439.565,0,0
149534.1,165.637,-436.731,0,0
149794.425,166.114,-433.87,0,0
150054.75,166.605,-431.027,0,0
150315.075,167.081,-428.24,0,0
150575.4,167.598,-425.462,0,0
150835.725,168.135,-422.546,0,0
151096.05,168.798,-419.765,0,0
151356.375,169.42,-416.871,0,0
151616.7,170.011,-413.86,0,0
151877.025,170.957,-410.695,0,0
152137.35,172.072,-407.61,0,0
152397.675,173.478,-404.679,0,0
152658.0,174.954,-402.007,0,0
152918.325,176.417,-399.627,0,0
153178.65,177.757,-397.405,0,0
153438.975,178.851,-395.325,0,0
153699.3,179.873,-393.13,0,0
153959.625,180.861,-390.931,0,0
154219.95,181.705,-388.622,0,0
154480,182.483,-386.297,0,0
154741,183.202,-383.895,0,0
155001,184.025,-381.193,0,0
155261,184.963,-378.431,0,0
155522,186.066,-375.63,0,0
155782,187.554,-372.793,0,0
156042,189.134,-370.196,0,0
156303,190.777,-367.854,0,0
156563,192.341,-365.673,0,0
156823,193.895,-363.651,0,0
157084,195.322,-361.692,0,0
157344,196.673,-359.864,0,0
157604,197.811,-358.095,0,0
157864,198.787,-356.347,0,0
158125,199.611,-354.401,0,0
158385,200.45,-352.321,0,0
158645,201.236,-350.27,0,0
158906,201.976,-348.064,0,0
159166,202.789,-345.774,0,0
159426,203.62,-343.509,0,0
159687,204.545,-341.162,0,0
159947,205.434,-338.76,0,0
160207,206.306,-336.528,0,0
160468,207.091,-334.163,0,0
160728,207.897,-331.701,0,0
160988,208.749,-329.205,0,0
161249,209.593,-326.671,0,0
161509,210.46,-324.084,0,0
161769,211.423,-321.421,0,0
162030,212.358,-318.775,0,0
162290,213.278,-316.149,0,0
162550,214.253,-313.331,0,0
162811,215.345,-310.562,0,0
163071,216.464,-307.77,0,0
163331,217.699,-305.015,0,0
163592,218.879,-302.371,0,0
163852,220.081,-299.778,0,0
164112,221.107,-297.119,0,0
164373,222.084,-294.488,0,0
164633,223.022,-291.804,0,0
164893,223.875,-288.944,0,0
165154,224.709,-285.973,0,0
165414,225.534,-282.876,0,0
165674,226.421,-279.662,0,0
165935,227.315,-276.309,0,0
166195,228.349,-272.84,0,0
166455,229.416,-269.282,0,0
166716,230.577,-265.652,0,0
166976,231.862,-261.94,0,0
167236,233.198,-258.042,0,0
167497,234.716,-254.152,0,0
167757,236.337,-250.181,0,0
168017,238.169,-246.245,0,0
168277,240.062,-242.335,0,0
168538,242.022,-238.399,0,0
168798,244.083,-234.473,0,0
169058,246.201,-230.597,0,0
169319,248.361,-226.714,0,0
169579,250.609,-222.825,0,0
169839,252.815,-218.914,0,0
170100,255.089,-214.968,0,0
170360.075,257.459,-210.969,0,0
170620.4,259.917,-206.934,0,0
170880.725,262.375,-202.977,0,0
171141.05,264.799,-198.927,0,0
171401.375,267.251,-194.771,0,0
171661.7,269.757,-190.524,0,0
171922.025,272.384,-186.163,0,0
172182.35,275.082,-181.683,0,0
172442.675,277.886,-177.164,0,0
172703.0,280.813,-172.518,0,0
172963.325,283.874,-167.842,0,0
173223.65,287.026,-163.084,0,0
173483.975,290.342,-158.225,0,0
173744.3,293.799,-153.252,0,0
174004.625,297.439,-148.229,0,0
174264.95,301.229,-143.143,0,0
174525.275,305.244,-138.045,0,0
174785.6,309.407,-132.864,0,0
175045.925,313.802,-127.674,0,0
175306.25,318.405,-122.453,0,0
175566.575,323.117,-117.215,0,0
175826.9,328.104,-111.943,0,0
176087.225,333.215,-106.693,0,0
176347.55,338.593,-101.383,0,0
176607.875,344.215,-96.0892,0,0
176868.2,350.039,-90.8405,0,0
177128.525,356.098,-85.572,0,0
177388.85,362.432,-80.4183,0,0
177649.175,368.976,-75.2731,0,0
177909.5,375.707,-70.2607,0,0
178169.825,382.668,-65.2557,0,0
178430.15,389.823,-60.3066,0,0
178690.475,397.28,-55.4131,0,0
178950.8,405.061,-50.5777,0,0
179211.125,413.041,-45.9186,0,0
179471.45,421.335,-41.4573,0,0
179731.775,429.759,-37.1995,0,0
179992.1,438.418,-33.2044,0,0
180252.425,447.089,-29.3106,0,0
180512.75,455.935,-25.6178,0,0
180773.075,464.85,-21.9587,0,0
181033.4,473.843,-18.432,0,0
181293.725,482.988,-14.8977,0,0
181554.05,492.398,-11.4928,0,0
181814.375,501.889,-8.10721,0,0
182074.7,511.579,-4.76826,0,0
182335.025,521.533,-1.54364,0,0
182595.35,531.617,1.6255,0,0
182855.675,541.842,4.7617,0,0
183116.0,552.385,7.84831,0,0
183376.325,563.144,10.9174,0,0
183636.65,574.191,13.9142,0,0
183896.975,585.638,16.9449,0,0
184157.3,597.44,19.862,0,0
184417.625,609.584,22.6546,0,0
184677.95,622.124,25.3935,0,0
184938.275,635.08,27.9539,0,0
185198.6,648.52,30.4336,0,0
185458.925,662.443,32.6985,0,0
185719.25,676.9,34.8063,0,0
185979.575,691.937,36.5855,0,0
186239.9,707.647,38.0907,0,0
186500,723.964,39.0716,0,0
186761,740.834,39.6644,0,0
187021,758.279,39.6513,0,0
187281,776.368,39.0674,0,0
187542,794.957,37.7846,0,0
187802,814.12,35.7829,0,0
188062,833.831,33.0307,0,0
188322,854.133,29.3854,0,0
188583,874.921,24.7658,0,0
188843,896.189,19.0644,0,0
189103,917.835,12.1257,0,0
189364,939.735,3.96551,0,0
189624,961.761,-5.60387,0,0
189884,983.867,-16.5051,0,0
190145,1005.65,-28.689,0,0
190405,1027.33,-42.2123,0,0
190665,1048.58,-57.0188,0,0
190926,1069.67,-73.2322,0,0
191186,1090.24,-90.7637,0,0
191446,1110.26,-109.539,0,0
191707,1129.6,-129.827,0,0
191967,1148.03,-151.286,0,0
192227,1165.5,-174.131,0,0
192488,1182.06,-198.056,0,0
192748,1197.42,-223.191,0,0
193008,1211.48,-249.218,0,0
193269,1224.32,-276.379,0,0
193529,1235.69,-304.19,0,0
193789,1245.67,-332.811,0,0
194050,1254.08,-361.893,0,0
194310,1261.11,-391.6,0,0
194570,1266.39,-421.781,0,0
194831,1270.33,-452.518,0,0
195091,1272.46,-483.219,0,0
195351,1273.15,-513.941,0,0
195612,1271.92,-544.685,0,0
195872,1269.16,-575.438,0,0
196132,1264.64,-605.631,0,0
196393,1258.56,-635.624,0,0
196653,1250.87,-665.003,0,0
196913,1241.73,-693.569,0,0
197174,1231.11,-721.472,0,0
197434,1219.27,-748.516,0,0
197694,1206.27,-774.441,0,0
197955,1191.97,-799.532,0,0
198215,1176.71,-823.379,0,0
198475,1160.65,-846.216,0,0
198735,1143.64,-867.928,0,0
198996,1125.79,-888.62,0,0
199256,1107.78,-907.913,0,0
199516,1088.7,-926.11,0,0
199777,1069.79,-943.244,0,0
200037,1050.33,-959.253,0,0
200297,1029.72,-974.236,0,0
200558,1009.34,-987.815,0,0
200818,989.015,-1000.37,0,0
201078,967.991,-1011.76,0,0
201339,947.263,-1022,0,0
201599,926.525,-1031.33,0,0
201859,905.906,-1039.18,0,0
202120,885.519,-1046.04,0,0
202380.025,865.39,-1052.14,0,0
202640.35,845.619,-1057.1,0,0
202900.675,826.214,-1061.21,0,0
203161.0,807.207,-1064.85,0,0
203421.325,788.559,-1067.27,0,0
203681.65,770.742,-1069.41,0,0
203941.975,752.942,-1071.09,0,0
204202.3,735.585,-1071.92,0,0
204462.625,718.932,-1072.38,0,0
204722.95,702.458,-1072.32,0,0
204983.275,686.557,-1072.33,0,0
205243.6,670.605,-1071.32,0,0
205503.925,655.632,-1069.93,0,0
205764.25,640.806,-1068.48,0,0
206024.575,626.38,-1066.71,0,0
206284.9,612.339,-1064.48,0,0
206545.225,598.703,-1062,0,0
206805.55,585.265,-1058.96,0,0
207065.875,572.436,-1056.15,0,0
207326.2,559.969,-1053.02,0,0
207586.525,547.857,-1049.62,0,0
207846.85,536.043,-1046.02,0,0
208107.175,524.561,-1042.24,0,0
208367.5,513.511,-1038.34,0,0
208627.825,502.787,-1034.3,0,0
208888.15,492.414,-1030.21,0,0
209148.475,482.314,-1025.94,0,0
209408.8,472.598,-1021.72,0,0
209669.125,463.012,-1017.24,0,0
209929.45,453.726,-1012.84,0,0
210189.775,444.949,-1008.67,0,0
210450.1,436.16,-1004.06,0,0
210710.425,427.49,-999.591,0,0
210970.75,419.069,-994.94,0,0
211231.075,410.86,-990.306,0,0
211491.4,402.78,-985.531,0,0
211751.725,394.985,-980.543,0,0
212012.05,387.55,-975.476,0,0
212272.375,380.244,-970.459,0,0
212532.7,373.355,-965.198,0,0
212793.025,366.696,-960.081,0,0
213053.35,360.338,-954.94,0,0
213313.675,354.167,-949.864,0,0
213574.0,348.161,-944.812,0,0
213834.325,342.346,-939.822,0,0
214094.65,336.683,-934.888,0,0
214354.975,331.177,-929.856,0,0
214615.3,325.842,-924.837,0,0
214875.625,320.553,-919.658,0,0
215135.95,315.618,-914.866,0,0
215396.275,310.747,-909.778,0,0
215656.6,306.095,-904.741,0,0
215916.925,301.604,-899.823,0,0
216177.25,297.361,-894.887,0,0
216437.575,293.081,-889.983,0,0
216697.9,289.072,-885.203,0,0
216958.225,285.164,-880.389,0,0
217218.55,281.369,-875.6,0,0
217478.875,277.575,-870.91,0,0
217739.2,274.089,-866.242,0,0
217999.525,270.609,-861.591,0,0
218259.85,267.257,-856.945,0,0
218520,263.928,-852.354,0,0
218780,260.683,-847.793,0,0
219041,257.675,-843.266,0,0
219301,254.733,-838.741,0,0
219561,251.813,-834.302,0,0
219822,249.02,-829.85,0,0
220082,246.198,-825.333,0,0
220342,243.532,-820.976,0,0
220603,241.031,-816.515,0,0
220863,238.532,-812.167,0,0
221123,236.103,-807.802,0,0
221384,233.828,-803.407,0,0
221644,231.6,-799.043,0,0
221904,229.41,-794.738,0,0
222165,227.428,-790.306,0,0
222425,225.535,-786.004,0,0
222685,223.747,-781.77,0,0
222946,221.797,-777.373,0,0
223206,220.197,-772.999,0,0
223466,218.517,-768.79,0,0
223727,217.212,-764.527,0,0
223987,215.765,-760.234,0,0
224247,214.464,-756.174,0,0
224508,213.428,-751.849,0,0
224768,212.265,-747.716,0,0
225028,211.402,-743.602,0,0
225289,210.614,-739.438,0,0
225549,209.933,-735.57,0,0
225809,209.365,-731.61,0,0
226070,208.714,-727.794,0,0
226330,208.357,-724.026,0,0
226590,207.954,-720.362,0,0
226851,207.516,-716.793,0,0
227111,207.167,-713.314,0,0
227371,206.93,-709.799,0,0
227632,206.631,-706.411,0,0
227892,206.355,-702.996,0,0
228152,206.088,-699.713,0,0
228413,205.901,-696.406,0,0
228673,205.733,-693.061,0,0
228933,205.644,-689.777,0,0
229193,205.596,-686.503,0,0
229454,205.538,-683.275,0,0
229714,205.593,-679.98,0,0
229974,205.648,-676.779,0,0
230235,205.842,-673.613,0,0
230495,206.047,-670.431,0,0
230755,206.365,-667.299,0,0
231016,206.745,-664.191,0,0
231276,207.163,-661.083,0,0
231536,207.643,-658.051,0,0
231797,208.197,-655.037,0,0
232057,208.853,-652.089,0,0
232317,209.549,-649.132,0,0
232578,210.362,-646.256,0,0
232838,211.215,-643.427,0,0
233098,212.177,-640.687,0,0
233359,213.171,-637.895,0,0
233619,214.222,-635.229,0,0
233879,215.366,-632.607,0,0
234140,216.545,-630.074,0,0
234400,217.927,-627.598,0,0
234660.3,219.282,-625.208,0,0
234920.625,220.58,-622.803,0,0
235180.95,222.079,-620.513,0,0
235441.275,223.649,-618.393,0,0
235701.6,225.239,-616.359,0,0
235961.925,226.927,-614.338,0,0
236222.25,228.586,-612.395,0,0
236482.575,230.377,-610.618,0,0
236742.9,232.13,-608.868,0,0
237003.225,234.009,-607.219,0,0
237263.55,235.923,-605.719,0,0
237523.875,237.844,-604.277,0,0
237784.2,239.799,-602.964,0,0
238044.525,241.795,-601.706,0,0
238304.85,243.827,-600.578,0,0
238565.175,245.859,-599.594,0,0
238825.5,247.944,-598.684,0,0
239085.825,250.028,-597.858,0,0
239346.15,252.11,-597.21,0,0
239606.475,254.244,-596.666,0,0
239866.8,256.334,-596.115,0,0
240127.125,258.387,-595.97,0,0
240387.45,260.435,-595.756,0,0
240647.775,262.55,-595.646,0,0
240908.1,264.543,-595.743,0,0
241168.425,266.612,-595.824,0,0
241428.75,268.587,-596.177,0,0
241689.075,270.523,-596.464,0,0
241949.4,272.352,-597.051,0,0
242209.725,274.179,-597.564,0,0
242470.05,275.97,-598.307,0,0
242730.375,277.726,-599.04,0,0
242990.7,279.41,-599.967,0,0
243251.025,281.043,-600.914,0,0
243511.35,282.605,-601.99,0,0
243771.675,284.132,-603.244,0,0
244032.0,285.578,-604.513,0,0
244292.325,286.915,-606.034,0,0
244552.65,288.194,-607.671,0,0
244812.975,289.254,-609.35,0,0
245073.3,290.207,-611.026,0,0
245333.625,290.987,-612.853,0,0
245593.95,291.564,-614.668,0,0
245854.275,292.028,-616.519,0,0
246114.6,292.334,-618.271,0,0
246374.925,292.548,-620.128,0,0
246635.25,292.64,-621.832,0,0
246895.575,292.642,-623.495,0,0
247155.9,292.595,-625.193,0,0
247416.225,292.477,-626.756,0,0
247676.55,292.311,-628.453,0,0
247936.875,292.096,-630.063,0,0
248197.2,291.847,-631.655,0,0
248457.525,291.427,-633.242,0,0
248717.85,290.972,-634.55,0,0
248978.175,290.515,-636.062,0,0
249238.5,290.006,-637.398,0,0
249498.825,289.673,-638.717,0,0
249759.15,289.084,-639.945,0,0
250019.475,289.138,-641.249,0,0
250279.8,288.799,-642.67,0,0
250540,288.762,-644.113,0,0
250800,288.546,-645.817,0,0
251061,288.362,-647.623,0,0
251321,288.007,-649.628,0,0
251581,287.533,-651.73,0,0
251842,286.926,-653.853,0,0
252102,286.073,-656.06,0,0
252362,285.206,-658.272,0,0
252623,284.175,-660.541,0,0
252883,282.956,-662.862,0,0
253143,281.583,-665.196,0,0
253404,280.03,-667.552,0,0
253664,278.279,-669.887,0,0
253924,276.329,-672.192,0,0
254185,274.129,-674.405,0,0
254445,271.839,-676.419,0,0
254705,269.193,-678.47,0,0
254966,266.617,-680.182,0,0
255226,263.882,-681.916,0,0
255486,260.985,-683.393,0,0
255747,258.072,-684.761,0,0
256007,255.102,-685.867,0,0
256267,252.093,-686.863,0,0
256528,248.971,-687.789,0,0
256788,245.962,-688.517,0,0
257048,242.939,-689.104,0,0
257309,239.867,-689.527,0,0
257569,236.797,-689.882,0,0
257829,233.812,-690.06,0,0
258090,230.797,-690.158,0,0
258350,227.83,-690.147,0,0
258610,224.929,-690.047,0,0
258871,222.041,-689.857,0,0
259131,219.195,-689.599,0,0
259391,216.38,-689.208,0,0
259651,213.582,-688.847,0,0
259912,210.835,-688.303,0,0
260172,208.154,-687.754,0,0
260432,205.518,-687.199,0,0
260693,202.934,-686.48,0,0
260953,200.341,-685.68,0,0
261213,197.839,-684.846,0,0
261474,195.337,-684.044,0,0
261734,192.932,-683.084,0,0
261994,190.643,-682.168,0,0
262255,188.235,-681.114,0,0
262515,185.998,-680.13,0,0
262775,183.795,-679.033,0,0
263036,181.652,-677.915,0,0
263296,179.552,-676.822,0,0
263556,177.485,-675.691,0,0
263817,175.477,-674.524,0,0
264077,173.474,-673.396,0,0
264337,171.545,-672.235,0,0
264598,169.68,-670.924,0,0
264858,167.71,-669.682,0,0
265118,165.963,-668.479,0,0
265379,164.211,-667.281,0,0
265639,162.362,-665.832,0,0
265899,160.786,-664.65,0,0
266160,159.079,-663.401,0,0
266420,157.47,-662.166,0,0
266680.25,155.862,-660.808,0,0
266940.575,154.308,-659.583,0,0
267200.9,152.747,-658.239,0,0
267461.225,151.266,-656.969,0,0
267721.55,149.778,-655.63,0,0
267981.875,148.319,-654.336,0,0
268242.2,146.828,-653.093,0,0
268502.525,145.42,-651.742,0,0
268762.85,144.147,-650.456,0,0
269023.175,142.813,-649.075,0,0
269283.5,141.412,-647.886,0,0
269543.825,140.11,-646.528,0,0
269804.15,138.889,-645.213,0,0
270064.475,137.52,-643.9,0,0
270324.8,136.354,-642.591,0,0
270585.125,135.132,-641.246,0,0
270845.45,133.926,-639.938,0,0
271105.775,132.727,-638.621,0,0
271366.1,131.533,-637.357,0,0
271626.425,130.442,-636.014,0,0
271886.75,129.321,-634.71,0,0
272147.075,128.191,-633.378,0,0
272407.4,127.102,-632.058,0,0
272667.725,126.023,-630.789,0,0
272928.05,124.977,-629.437,0,0
273188.375,123.961,-628.137,0,0
273448.7,122.947,-626.821,0,0
273709.025,121.95,-625.515,0,0
273969.35,120.968,-624.215,0,0
274229.675,119.957,-622.946,0,0
274490.0,119.071,-621.611,0,0
274750.325,118.053,-620.273,0,0
275010.65,117.171,-619.063,0,0
275270.975,116.284,-617.708,0,0
275531.3,115.388,-616.427,0,0
275791.625,114.475,-615.098,0,0
276051.95,113.604,-613.764,0,0
276312.275,112.741,-612.48,0,0
276572.6,111.901,-611.18,0,0
276832.925,111.087,-609.858,0,0
277093.25,110.288,-608.557,0,0
277353.575,109.467,-607.234,0,0
277613.9,108.712,-605.942,0,0
277874.225,107.927,-604.601,0,0
278134.55,107.16,-603.29,0,0
278394.875,106.435,-601.959,0,0
278655.2,105.719,-600.625,0,0
278915.525,105.029,-599.236,0,0
279175.85,104.314,-597.898,0,0
279436.175,103.766,-596.521,0,0
279696.5,103.118,-595.182,0,0
279956.825,102.592,-593.717,0,0
280217.15,102.077,-592.373,0,0
280477.475,101.626,-591.061,0,0
280737.8,101.258,-589.756,0,0
280998.125,100.873,-588.506,0,0
281258.45,100.524,-587.31,0,0
281518.775,100.164,-586.182,0,0
281779.1,99.8001,-585.093,0,0
282039.425,99.4136,-584.01,0,0
282299.75,98.9835,-582.967,0,0
282560,98.5527,-581.903,0,0
282820,98.0282,-580.823,0,0
283081,97.6642,-579.815,0,0
283341,97.1547,-578.819,0,0
283601,96.683,-577.701,0,0
283862,96.2744,-576.709,0,0
284122,95.835,-575.57,0,0
284382,95.3737,-574.469,0,0
284643,95.0467,-573.34,0,0
284903,94.5484,-572.359,0,0
285163,94.2125,-571.267,0,0
285424,93.9375,-570.22,0,0
285684,93.6435,-569.197,0,0
285944,93.336,-568.212,0,0
286205,93.0013,-567.212,0,0
286465,92.6732,-566.389,0,0
286725,92.4007,-565.48,0,0
286986,92.0252,-564.671,0,0
287246,91.7171,-563.799,0,0
287506,91.2962,-562.884,0,0
287767,90.8297,-562.14,0,0
288027,90.4201,-561.278,0,0
288287,89.9445,-560.444,0,0
288548,89.5101,-559.538,0,0
288808,89.0271,-558.634,0,0
289068,88.5831,-557.835,0,0
289329,88.1295,-556.797,0,0
289589,87.719,-555.912,0,0
289849,87.2774,-555.026,0,0
290109,86.902,-554.07,0,0
290370,86.458,-553.182,0,0
290630,86.0382,-552.272,0,0
290890,85.6585,-551.37,0,0
291151,85.2624,-550.474,0,0
291411,84.9043,-549.5,0,0
291671,84.4929,-548.661,0,0
291932,84.176,-547.883,0,0
292192,83.8126,-546.948,0,0
292452,83.4195,-546.155,0,0
292713,83.0001,-545.282,0,0
292973,82.5677,-544.427,0,0
293233,82.2283,-543.623,0,0
293494,81.7744,-542.693,0,0
293754,81.3423,-541.935,0,0
294014,80.9121,-541.065,0,0
294275,80.3996,-540.239,0,0
294535,79.9262,-539.336,0,0
294795,79.4473,-538.472,0,0
295056,79.0828,-537.531,0,0
295316,78.6228,-536.581,0,0
295576,78.1655,-535.651,0,0
295837,77.7253,-534.716,0,0
296097,77.3021,-533.739,0,0
296357,76.9065,-532.808,0,0
296618,76.528,-531.807,0,0
296878,76.1165,-530.763,0,0
297138,75.8713,-529.791,0,0
297399,75.5017,-528.751,0,0
297659,75.3176,-527.775,0,0
297919,74.9642,-526.748,0,0
298180,74.8092,-525.868,0,0
298440,74.6169,-524.881,0,0
298700.2,74.442,-524.029,0,0
298960.525,74.2343,-523.181,0,0
299220.85,74.0889,-522.361,0,0
299481.175,73.9002,-521.511,0,0
299741.5,73.6856,-520.711,0,0
300001.825,73.4407,-519.978,0,0
300262.15,73.2122,-519.11,0,0
300522.475,72.9341,-518.442,0,0
300782.8,72.5823,-517.627,0,0
301043.125,72.3233,-516.798,0,0
301303.45,72.0768,-516.014,0,0
301563.775,71.735,-515.127,0,0
301824.1,71.4728,-514.386,0,0
302084.425,71.1508,-513.518,0,0
302344.75,70.868,-512.726,0,0
302605.075,70.6278,-511.896,0,0
302865.4,70.3267,-511.114,0,0
303125.725,70.0517,-510.282,0,0
303386.05,69.8347,-509.42,0,0
303646.375,69.4983,-508.572,0,0
303906.7,69.3121,-507.708,0,0
304167.025,69.0846,-506.887,0,0
304427.35,68.8857,-506.042,0,0
304687.675,68.721,-505.274,0,0
304948.0,68.5045,-504.413,0,0
305208.325,68.3108,-503.613,0,0
305468.65,68.0603,-502.85,0,0
305728.975,67.9465,-502.058,0,0
305989.3,67.7058,-501.288,0,0
306249.625,67.5043,-500.554,0,0
306509.95,67.3142,-499.809,0,0
306770.275,67.1834,-499.09,0,0
307030.6,66.891,-498.353,0,0
307290.925,66.6631,-497.553,0,0
307551.25,66.4169,-496.838,0,0
307811.575,66.2465,-496.099,0,0
308071.9,65.9884,-495.328,0,0
308332.225,65.8139,-494.584,0,0
308592.55,65.55,-493.844,0,0
308852.875,65.2933,-493.097,0,0
309113.2,65.1291,-492.304,0,0
309373.525,64.9204,-491.56,0,0
309633.85,64.7049,-490.751,0,0
309894.175,64.5044,-490.036,0,0
310154.5,64.3937,-489.267,0,0
310414.825,64.1509,-488.555,0,0
310675.15,64.0327,-487.849,0,0
310935.475,63.7612,-487.124,0,0
311195.8,63.6219,-486.401,0,0
311456.125,63.3644,-485.656,0,0
311716.45,63.1794,-484.879,0,0
311976.775,62.9586,-484.248,0,0
312237.1,62.8289,-483.48,0,0
312497.425,62.6606,-482.784,0,0
312757.75,62.4377,-482.036,0,0
313018.075,62.2337,-481.317,0,0
313278.4,62.0303,-480.626,0,0
313538.725,61.8384,-479.879,0,0
313799.05,61.6177,-479.197,0,0
314059.375,61.4572,-478.438,0,0
314319.7,61.2733,-477.739,0,0
314580,61.0738,-477.005,0,0
314840,60.8732,-476.311,0,0
315101,60.7255,-475.602,0,0
315361,60.5146,-474.92,0,0
315621,60.3526,-474.181,0,0
315882,60.1614,-473.445,0,0
316142,60.0028,-472.722,0,0
316402,59.7983,-472.067,0,0
316663,59.6506,-471.345,0,0
316923,59.4123,-470.63,0,0
317183,59.2707,-469.963,0,0
317444,59.0675,-469.222,0,0
317704,58.8989,-468.533,0,0
317964,58.8041,-467.843,0,0
318225,58.5968,-467.118,0,0
318485,58.4698,-466.445,0,0
318745,58.3032,-465.719,0,0
319006,58.122,-465.065,0,0
319266,57.9492,-464.355,0,0
319526,57.7488,-463.636,0,0
319787,57.6308,-462.917,0,0
320047,57.5213,-462.205,0,0
320307,57.3518,-461.492,0,0
320567,57.2263,-460.787,0,0
320828,57.0693,-460.124,0,0
321088,56.9967,-459.423,0,0
321348,56.7728,-458.744,0,0
321609,56.714,-458.029,0,0
321869,56.5675,-457.403,0,0
322129,56.4536,-456.686,0,0
322390,56.291,-456.04,0,0
322650,56.2066,-455.381,0,0
322910,56.0543,-454.68,0,0
323171,55.9609,-454.063,0,0
323431,55.7969,-453.393,0,0
323691,55.7234,-452.755,0,0
323952,55.5484,-452.096,0,0
324212,55.419,-451.427,0,0
324472,55.2793,-450.776,0,0
324733,55.1417,-450.119,0,0
324993,55.0295,-449.467,0,0
325253,54.8755,-448.795,0,0
325514,54.717,-448.154,0,0
325774,54.6084,-447.545,0,0
326034,54.4767,-446.882,0,0
326295,54.3082,-446.264,0,0
326555,54.1791,-445.556,0,0
326815,54.0259,-444.944,0,0
327076,53.9056,-444.244,0,0
327336,53.7871,-443.558,0,0
327596,53.6811,-442.917,0,0
327857,53.5328,-442.24,0,0
328117,53.4432,-441.606,0,0
328377,53.2818,-440.924,0,0
328638,53.1542,-440.275,0,0
328898,53.0346,-439.587,0,0
329158,52.9683,-438.93,0,0
329419,52.838,-438.269,0,0
329679,52.7473,-437.612,0,0
329939,52.6641,-436.949,0,0
330200,52.5583,-436.281,0,0
330460,52.4571,-435.621,0,0
330720.15,52.4271,-434.949,0,0
330980.475,52.3049,-434.371,0,0
331240.8,52.2199,-433.712,0,0
331501.125,52.1616,-433.054,0,0
331761.45,52.0214,-432.442,0,0
332021.775,51.9915,-431.802,0,0
332282.1,51.9302,-431.176,0,0
332542.425,51.8301,-430.531,0,0
332802.75,51.789,-429.944,0,0
333063.075,51.6975,-429.306,0,0
333323.4,51.5759,-428.666,0,0
333583.725,51.5139,-428.05,0,0
333844.05,51.4201,-427.444,0,0
334104.375,51.3448,-426.811,0,0
334364.7,51.2622,-426.177,0,0
334625.025,51.1571,-425.556,0,0
334885.35,51.1028,-424.881,0,0
335145.675,51.0929,-424.273,0,0
335406.0,51.0028,-423.637,0,0
335666.325,50.872,-423.036,0,0
335926.65,50.8459,-422.477,0,0
336186.975,50.779,-421.818,0,0
336447.3,50.7269,-421.239,0,0
336707.625,50.6592,-420.596,0,0
336967.95,50.5896,-420.016,0,0
337228.275,50.5146,-419.37,0,0
337488.6,50.4855,-418.79,0,0
337748.925,50.4108,-418.203,0,0
338009.25,50.3486,-417.532,0,0
338269.575,50.3115,-416.934,0,0
338529.9,50.2321,-416.373,0,0
338790.225,50.1697,-415.782,0,0
339050.55,50.1237,-415.144,0,0
339310.875,50.0443,-414.559,0,0
339571.2,49.9963,-413.933,0,0
339831.525,49.9566,-413.336,0,0
340091.85,49.8846,-412.707,0,0
340352.175,49.8225,-412.122,0,0
340612.5,49.8427,-411.475,0,0
340872.825,49.7929,-410.878,0,0
341133.15,49.7455,-410.282,0,0
341393.475,49.6964,-409.688,0,0
341653.8,49.6804,-409.078,0,0
341914.125,49.669,-408.464,0,0
342174.45,49.608,-407.852,0,0
342434.775,49.6173,-407.242,0,0
342695.1,49.6295,-406.662,0,0
342955.425,49.6101,-406.113,0,0
343215.75,49.6365,-405.535,0,0
343476.075,49.6248,-404.968,0,0
343736.4,49.6679,-404.399,0,0
343996.725,49.6045,-403.856,0,0
344257.05,49.5883,-403.308,0,0
344517.375,49.5541,-402.771,0,0
344777.7,49.5077,-402.235,0,0
345038.025,49.5242,-401.653,0,0
345298.35,49.4681,-401.079,0,0
345558.675,49.4236,-400.529,0,0
345819.0,49.4231,-399.947,0,0
346079.325,49.3921,-399.382,0,0
346339.65,49.3669,-398.791,0,0
346599.975,49.3788,-398.229,0,0
346860,49.3727,-397.653,0,0
347121,49.3621,-397.086,0,0
347381,49.3289,-396.56,0,0
347641,49.3626,-396.002,0,0
347902,49.3963,-395.416,0,0
348162,49.3817,-394.876,0,0
348422,49.4235,-394.334,0,0
348683,49.4313,-393.786,0,0
348943,49.4129,-393.209,0,0
349203,49.4547,-392.687,0,0
349464,49.4946,-392.15,0,0
349724,49.5048,-391.659,0,0
349984,49.5434,-391.105,0,0
350245,49.5843,-390.62,0,0
350505,49.602,-390.073,0,0
350765,49.6153,-389.564,0,0
351025,49.6368,-389.092,0,0
351286,49.6825,-388.576,0,0
351546,49.6955,-388.078,0,0
351806,49.7212,-387.599,0,0
352067,49.7263,-387.074,0,0
352327,49.7424,-386.639,0,0
352587,49.7868,-386.125,0,0
352848,49.7632,-385.634,0,0
353108,49.7709,-385.188,0,0
353368,49.7925,-384.707,0,0
353629,49.8185,-384.262,0,0
353889,49.8438,-383.76,0,0
354149,49.8234,-383.327,0,0
354410,49.8425,-382.841,0,0
354670,49.8181,-382.422,0,0
354930,49.846,-381.951,0,0
355191,49.8053,-381.472,0,0
355451,49.7869,-381.025,0,0
355711,49.7452,-380.625,0,0
355972,49.6845,-380.161,0,0
356232,49.6668,-379.721,0,0
356492,49.6701,-379.253,0,0
356753,49.6122,-378.8,0,0
357013,49.5639,-378.36,0,0
357273,49.5134,-377.85,0,0
357534,49.4845,-377.403,0,0
357794,49.4757,-376.915,0,0
358054,49.4167,-376.463,0,0
358315,49.354,-375.971,0,0
358575,49.3174,-375.48,0,0
358835,49.3296,-375.051,0,0
359096,49.2269,-374.529,0,0
359356,49.1889,-374.072,0,0
359616,49.2007,-373.565,0,0
359877,49.1317,-373.074,0,0
360137,49.0673,-372.579,0,0
360397,49.0845,-372.149,0,0
360658,49.0338,-371.657,0,0
360918,48.9928,-371.173,0,0
361178,48.9802,-370.649,0,0
361438,48.9316,-370.185,0,0
361699,48.8572,-369.724,0,0
361959,48.8533,-369.213,0,0
362219,48.8088,-368.712,0,0
362480,48.8013,-368.23,0,0
362740.1,48.7517,-367.724,0,0
363000.425,48.7558,-367.257,0,0
363260.75,48.7157,-366.747,0,0
363521.075,48.6309,-366.222,0,0
363781.4,48.6318,-365.749,0,0
364041.725,48.6106,-365.28,0,0
364302.05,48.5987,-364.779,0,0
364562.375,48.6042,-364.277,0,0
364822.7,48.5754,-363.817,0,0
365083.025,48.5841,-363.299,0,0
365343.35,48.5869,-362.833,0,0
365603.675,48.5675,-362.311,0,0
365864.0,48.5789,-361.825,0,0
366124.325,48.5952,-361.36,0,0
366384.65,48.5634,-360.857,0,0
366644.975,48.5598,-360.399,0,0
366905.3,48.5829,-359.92,0,0
367165.625,48.567,-359.4,0,0
367425.95,48.5711,-358.933,0,0
367686.275,48.5819,-358.49,0,0
367946.6,48.5866,-358.011,0,0
368206.925,48.5908,-357.578,0,0
368467.25,48.5705,-357.083,0,0
368727.575,48.5698,-356.635,0,0
368987.9,48.5584,-356.151,0,0
369248.225,48.5406,-355.656,0,0
369508.55,48.5554,-355.213,0,0
369768.875,48.5229,-354.72,0,0
370029.2,48.5325,-354.255,0,0
370289.525,48.5445,-353.762,0,0
370549.85,48.5672,-353.276,0,0
370810.175,48.555,-352.813,0,0
371070.5,48.5776,-352.305,0,0
371330.825,48.5703,-351.853,0,0
371591.15,48.6502,-351.401,0,0
371851.475,48.6609,-350.943,0,0
372111.8,48.689,-350.472,0,0
372372.125,48.7145,-350.023,0,0
372632.45,48.7496,-349.59,0,0
372892.775,48.757,-349.15,0,0
373153.1,48.8103,-348.726,0,0
373413.425,48.8386,-348.346,0,0
373673.75,48.8538,-347.897,0,0
373934.075,48.8337,-347.491,0,0
374194.4,48.8274,-347.096,0,0
374454.725,48.824,-346.708,0,0
374715.05,48.8258,-346.285,0,0
374975.375,48.7594,-345.898,0,0
375235.7,48.7213,-345.49,0,0
375496.025,48.6925,-345.067,0,0
375756.35,48.6131,-344.643,0,0
376016.675,48.5707,-344.193,0,0
376277.0,48.4858,-343.782,0,0
376537.325,48.4326,-343.313,0,0
376797.65,48.3684,-342.882,0,0
377057.975,48.3099,-342.428,0,0
377318.3,48.2619,-341.942,0,0
377578.625,48.2224,-341.483,0,0
377838.95,48.1837,-341.01,0,0
378099.275,48.1319,-340.524,0,0
378359.6,48.0752,-340.049,0,0
378619.925,48.0376,-339.523,0,0
378880,48.0186,-339.04,0,0
379141,47.9663,-338.588,0,0
379401,47.9516,-338.093,0,0
379661,47.8968,-337.612,0,0
379922,47.8425,-337.121,0,0
380182,47.8101,-336.62,0,0
380442,47.7922,-336.127,0,0
380703,47.8194,-335.602,0,0
380963,47.7436,-335.094,0,0
381223,47.7232,-334.547,0,0
381483,47.6988,-334.039,0,0
381744,47.7159,-333.511,0,0
382004,47.7418,-332.966,0,0
382264,47.7598,-332.469,0,0
382525,47.7959,-331.969,0,0
382785,47.8681,-331.444,0,0
383045,47.918,-330.978,0,0
383306,48.0047,-330.476,0,0
383566,48.0261,-330.061,0,0
383826,48.0272,-329.637,0,0
384087,48.0603,-329.207,0,0
384347,48.0429,-328.762,0,0
384607,48.0376,-328.305,0,0
384868,48.025,-327.85,0,0
385128,47.987,-327.342,0,0
385388,47.9875,-326.924,0,0
385649,47.9875,-326.405,0,0
385909,47.9435,-325.934,0,0
386169,47.9714,-325.431,0,0
386430,47.9661,-324.966,0,0
386690,47.9462,-324.499,0,0
386950,47.9335,-324.015,0,0
387211,47.9156,-323.477,0,0
387471,47.9298,-323.001,0,0
387731,47.9584,-322.541,0,0
387992,47.9415,-322.042,0,0
388252,47.948,-321.554,0,0
388512,47.9462,-321.05,0,0
388773,47.9454,-320.549,0,0
389033,47.9311,-320.026,0,0
389293,47.9624,-319.515,0,0
389554,47.9955,-319.002,0,0
389814,47.9362,-318.525,0,0
390074,47.9915,-317.994,0,0
390335,47.9839,-317.505,0,0
390595,48.0058,-317.017,0,0
390855,48.0335,-316.481,0,0
391116,48.0544,-315.975,0,0
391376,48.0755,-315.443,0,0
391636,48.0925,-314.954,0,0
391896,48.1142,-314.44,0,0
392157,48.1292,-313.959,0,0
392417,48.1438,-313.449,0,0
392677,48.1825,-312.923,0,0
392938,48.2072,-312.405,0,0
393198,48.2413,-311.904,0,0
393458,48.2508,-311.364,0,0
393719,48.2949,-310.853,0,0
393979,48.3161,-310.341,0,0
394239,48.3577,-309.816,0,0
394500,48.3963,-309.282,0,0
394760.05,48.4187,-308.773,0,0
395020.375,48.4579,-308.25,0,0
395280.7,48.5022,-307.73,0,0
395541.025,48.5491,-307.235,0,0
395801.35,48.5965,-306.67,0,0
396061.675,48.6236,-306.136,0,0
396322.0,48.685,-305.615,0,0
396582.325,48.7297,-305.105,0,0
396842.65,48.789,-304.567,0,0
397102.975,48.8028,-304.041,0,0
397363.3,48.8766,-303.494,0,0
397623.625,48.9205,-302.969,0,0
397883.95,48.9946,-302.43,0,0
398144.275,49.0309,-301.898,0,0
398404.6,49.0957,-301.353,0,0
398664.925,49.1583,-300.832,0,0
398925.25,49.2232,-300.28,0,0
399185.575,49.2928,-299.749,0,0
399445.9,49.3614,-299.186,0,0
399706.225,49.4253,-298.645,0,0
399966.55,49.489,-298.131,0,0
400006.6,49.5135,-298.021,0,0