File: Accelerated corrosion test data/2025-10-20_18-00-03/sample_8.csv
Frequency (Hz),Impedance (ohms),Phase (Radians),Temperature (C),Humidity (%)
10000.0,305.75,-10978.9,0,0
10260.325,297.978,-10703.5,0,0
10520.65,290.676,-10441.5,0,0
10780.975,283.445,-10192.5,0,0
11041.3,277.25,-9954.86,0,0
11301.625,270.955,-9729.08,0,0
11561.95,265.581,-9511.95,0,0
11822.275,259.603,-9304.44,0,0
12082.6,258.131,-9105.04,0,0
12342.925,254.387,-8918.6,0,0
12603.25,249.892,-8737.04,0,0
12863.575,246.735,-8566.36,0,0
13123.9,237.731,-8400.83,0,0
13384.225,232.331,-8239,0,0
13644.55,229.348,-8084.19,0,0
13904.875,221.445,-7935.67,0,0
14165.2,215.874,-7790.67,0,0
14425.525,213.142,-7651.56,0,0
14685.8,209.082,-7516.5,0,0
14946.175,204.905,-7386.83,0,0
15206.5,201.704,-7261.43,0,0
15466.825,198.678,-7140.57,0,0
15727.15,195.374,-7023.45,0,0
15987.5,192.067,-6910.41,0,0
16247.8,189.099,-6800.69,0,0
16508.125,186.456,-6694.3,0,0
16768.45,183.048,-6591.12,0,0
17028.775,180.299,-6490.87,0,0
17289.1,177.46,-6393.87,0,0
17549.425,175.153,-6299.57,0,0
17809.75,173.091,-6206.66,0,0
18070.075,171.04,-6120,0,0
18330.4,168.023,-6032.37,0,0
18590.725,166.041,-5946.99,0,0
18851.05,167.211,-5863.53,0,0
19111.375,165.578,-5784.14,0,0
19371.7,167.186,-5708.47,0,0
19632.025,164.562,-5636.15,0,0
19892.35,161.113,-5565.25,0,0
20152.675,159.17,-5492.22,0,0
20413.0,159.286,-5422.94,0,0
20673.3,159.409,-5356.16,0,0
20933.65,155.459,-5293.86,0,0
21193.975,151.537,-5229.65,0,0
21454.3,149.294,-5165.17,0,0
21714.625,147.738,-5103.05,0,0
21974.9,147.176,-5042.79,0,0
22235.275,147.05,-4983.97,0,0
22495.6,146.227,-4927.56,0,0
22755.925,144.431,-4874.09,0,0
23016.25,142.544,-4819.5,0,0
23276.6,137.72,-4767.52,0,0
23536.9,136.243,-4714.1,0,0
23797.225,134.301,-4662.72,0,0
24057.55,132.435,-4611.9,0,0
24317.875,131.211,-4562.29,0,0
24578.2,129.133,-4513.97,0,0
24838.525,127.442,-4465.86,0,0
25098.85,126.337,-4419.63,0,0
25359.175,124.827,-4374.3,0,0
25619.5,124.135,-4329.55,0,0
25879.8,123.076,-4284.9,0,0
26140.1,122.265,-4242.77,0,0
26400.5,120.545,-4201.44,0,0
26660.8,119.213,-4159.87,0,0
26921.1,119.389,-4118.27,0,0
27181.4,119.862,-4079.78,0,0
27441.8,118.228,-4040.29,0,0
27702.1,117.285,-4003.33,0,0
27962.4,115.151,-3966.03,0,0
28222.7,116.621,-3928.23,0,0
28483.1,114.638,-3892.81,0,0
28743.4,114.849,-3857.29,0,0
29003.7,113.852,-3823.55,0,0
29264,114.164,-3789.38,0,0
29524.4,112.89,-3755.47,0,0
29784.7,112.29,-3722.44,0,0
30045,111.758,-3691.07,0,0
30305.3,111.114,-3659.68,0,0
30565.7,109.562,-3628.77,0,0
30826,108.561,-3597.9,0,0
31086.3,107.152,-3567.46,0,0
31346.6,106.453,-3537.14,0,0
31607,106.111,-3507.82,0,0
31867.3,105.182,-3478.3,0,0
32127.6,104.645,-3449.88,0,0
32387.9,104.38,-3421.15,0,0
32648.3,104.085,-3393.34,0,0
32908.6,104.45,-3366.06,0,0
33168.9,104.253,-3339.05,0,0
33429.2,104.452,-3312.88,0,0
33689.6,104.932,-3286.7,0,0
33949.9,105.176,-3261.89,0,0
34210.2,105.169,-3236.81,0,0
34470.5,105.432,-3212.54,0,0
34730.9,105.916,-3188.24,0,0
34991.2,106.737,-3164.79,0,0
35251.5,107.525,-3141.74,0,0
35511.8,108.395,-3119.85,0,0
35772.2,108.602,-3098.73,0,0
36032.5,109.186,-3077.96,0,0
36292.8,108.838,-3057.28,0,0
36553.1,108.201,-3037.55,0,0
36813.5,107.02,-3017.49,0,0
37073.8,106.7,-2997.61,0,0
37334.1,105.256,-2978.57,0,0
37594.4,103.2,-2959.71,0,0
37854.8,101.055,-2940.27,0,0
38115.1,98.8824,-2920.72,0,0
38375.4,96.825,-2901.22,0,0
38635.7,94.8398,-2881.74,0,0
38896.1,92.9533,-2862.15,0,0
39156.4,90.8927,-2842.42,0,0
39416.7,89.712,-2822.69,0,0
39677,88.4393,-2803.52,0,0
39937.4,87.5084,-2784.42,0,0
40197.7,86.5895,-2765.04,0,0
40458,86.5426,-2746.92,0,0
40718.3,86.1413,-2729.16,0,0
40978.7,85.4116,-2711.44,0,0
41239,84.62,-2694.1,0,0
41499.3,83.8869,-2676.48,0,0
41759.6,83.4893,-2659.59,0,0
42020,82.5126,-2642.78,0,0
42280.275,81.7623,-2625.78,0,0
42540.6,81.4789,-2608.98,0,0
42800.925,81.4824,-2592.44,0,0
43061.25,81.715,-2576.51,0,0
43321.575,81.6624,-2561.31,0,0
43581.9,81.5035,-2546.21,0,0
43842.225,80.5006,-2531.61,0,0
44102.55,79.3702,-2516.55,0,0
44362.875,78.5186,-2501.26,0,0
44623.2,77.9244,-2486.42,0,0
44883.525,77.195,-2471.62,0,0
45143.85,76.6119,-2456.84,0,0
45404.175,75.8066,-2442.12,0,0
45664.5,75.418,-2428.02,0,0
45924.825,74.8856,-2413.89,0,0
46185.15,74.3225,-2399.67,0,0
46445.475,73.6518,-2385.83,0,0
46705.8,73.1375,-2371.91,0,0
46966.125,72.798,-2358.19,0,0
47226.45,72.4746,-2344.84,0,0
47486.775,72.2682,-2331.46,0,0
47747.1,71.9751,-2318.44,0,0
48007.425,71.4716,-2305.2,0,0
48267.75,71.1744,-2292.56,0,0
48528.075,70.7916,-2279.86,0,0
48788.4,70.2714,-2267.26,0,0
49048.725,69.7604,-2254.6,0,0
49309.05,69.4233,-2242.43,0,0
49569.375,69.0376,-2230.07,0,0
49829.7,68.5261,-2217.85,0,0
50090.025,68.3299,-2205.77,0,0
50350.35,68.032,-2193.86,0,0
50610.675,67.6811,-2181.99,0,0
50871.0,67.3821,-2170.35,0,0
51131.325,67.1447,-2158.55,0,0
51391.65,66.889,-2147.08,0,0
51651.975,66.9105,-2135.66,0,0
51912.3,66.8371,-2124.47,0,0
52172.625,66.6113,-2113.48,0,0
52432.95,66.4485,-2102.52,0,0
52693.275,66.4716,-2091.55,0,0
52953.6,66.5547,-2080.86,0,0
53213.925,66.6341,-2070.32,0,0
53474.25,66.9384,-2060.13,0,0
53734.575,66.9596,-2050.42,0,0
53994.9,66.2883,-2040.9,0,0
54255.225,65.583,-2030.81,0,0
54515.55,65.1673,-2020.89,0,0
54775.875,64.5881,-2010.99,0,0
55036.2,63.9859,-2001.2,0,0
55296.525,63.2672,-1991.41,0,0
55556.85,62.675,-1981.48,0,0
55817.175,62.0254,-1971.64,0,0
56077.5,61.5048,-1961.81,0,0
56337.825,61.1623,-1951.83,0,0
56598.15,60.765,-1942.27,0,0
56858.475,60.5791,-1932.58,0,0
57118.8,60.3094,-1923.1,0,0
57379.125,60.1053,-1913.72,0,0
57639.45,60.007,-1904.4,0,0
57899.775,59.728,-1895.26,0,0
58160.1,59.6583,-1886.14,0,0
58420.4,59.4706,-1877.16,0,0
58680.7,59.3636,-1868.36,0,0
58941.1,59.1947,-1859.47,0,0
59201.4,59.0638,-1850.91,0,0
59461.7,58.6932,-1842.3,0,0
59722,58.51,-1833.72,0,0
59982.4,58.1218,-1825.09,0,0
60242.7,57.8825,-1816.48,0,0
60503,57.7072,-1807.95,0,0
60763.3,57.593,-1799.47,0,0
61023.7,57.5835,-1791.08,0,0
61284,57.5147,-1782.83,0,0
61544.3,57.5834,-1774.76,0,0
61804.6,57.3781,-1766.77,0,0
62065,57.0681,-1758.6,0,0
62325.3,57.1204,-1750.43,0,0
62585.6,57.1329,-1742.5,0,0
62845.9,57.3037,-1734.54,0,0
63106.3,57.4993,-1726.86,0,0
63366.6,57.6986,-1719.24,0,0
63626.9,57.9131,-1711.9,0,0
63887.2,57.8961,-1704.57,0,0
64147.6,57.8169,-1697.31,0,0
64407.9,57.6901,-1690.24,0,0
64668.2,57.5576,-1683.05,0,0
64928.5,57.4191,-1675.8,0,0
65188.9,57.3265,-1668.82,0,0
65449.2,57.0313,-1661.75,0,0
65709.5,56.8219,-1654.57,0,0
65969.8,56.6778,-1647.84,0,0
66230.2,56.4241,-1641,0,0
66490.5,55.9599,-1634.2,0,0
66750.8,55.5373,-1627.16,0,0
67011.1,55.2068,-1620.01,0,0
67271.5,55.0797,-1613.1,0,0
67531.8,54.892,-1606.26,0,0
67792.1,54.8231,-1599.54,0,0
68052.4,54.485,-1592.77,0,0
68312.8,54.2778,-1586.03,0,0
68573.1,54.061,-1579.33,0,0
68833.4,53.8595,-1572.53,0,0
69093.7,53.8451,-1565.82,0,0
69354.1,53.7618,-1559.1,0,0
69614.4,53.9225,-1552.54,0,0
69874.7,53.9827,-1546.11,0,0
70135,54.0032,-1539.82,0,0
70395.4,54.0381,-1533.46,0,0
70655.7,54.0382,-1527.37,0,0
70916,53.9586,-1521.08,0,0
71176.3,53.9164,-1514.89,0,0
71436.7,53.9956,-1508.83,0,0
71697,53.9775,-1502.99,0,0
71957.3,53.8006,-1497.04,0,0
72217.6,53.7079,-1491.08,0,0
72478,53.662,-1485.25,0,0
72738.3,53.3699,-1479.46,0,0
72998.6,53.0295,-1473.55,0,0
73258.9,52.8304,-1467.47,0,0
73519.3,52.8782,-1461.56,0,0
73779.6,52.8694,-1455.89,0,0
74039.9,52.6527,-1450.24,0,0
74300.225,52.4443,-1444.49,0,0
74560.55,52.2129,-1438.71,0,0
74820.875,52.0505,-1432.93,0,0
75081.2,52.031,-1427.24,0,0
75341.525,51.8819,-1421.6,0,0
75601.85,51.8224,-1415.93,0,0
75862.175,51.7837,-1410.33,0,0
76122.5,51.7606,-1404.78,0,0
76382.825,51.7478,-1399.26,0,0
76643.15,51.7523,-1393.93,0,0
76903.475,51.6319,-1388.58,0,0
77163.8,51.5273,-1383.24,0,0
77424.125,51.399,-1377.89,0,0
77684.45,51.2817,-1372.53,0,0
77944.775,51.2242,-1367.24,0,0
78205.1,51.0809,-1362.03,0,0
78465.425,50.9259,-1356.81,0,0
78725.75,50.6977,-1351.45,0,0
78986.075,50.6101,-1346.18,0,0
79246.4,50.5213,-1340.98,0,0
79506.725,50.297,-1335.77,0,0
79767.05,50.1912,-1330.48,0,0
80027.375,50.0516,-1325.24,0,0
80287.7,50.0493,-1320,0,0
80548.025,50.0055,-1314.76,0,0
80808.35,49.9823,-1309.6,0,0
81068.675,50.0215,-1304.41,0,0
81329.0,50.1357,-1299.27,0,0
81589.325,50.2722,-1294.15,0,0
81849.65,50.4124,-1289.1,0,0
82109.975,50.5747,-1284.17,0,0
82370.3,50.6662,-1279.21,0,0
82630.625,50.7381,-1274.19,0,0
82890.95,51.091,-1269.33,0,0
83151.275,51.349,-1264.54,0,0
83411.6,51.449,-1259.71,0,0
83671.925,51.8016,-1254.91,0,0
83932.25,52.2426,-1250.21,0,0
84192.575,52.6051,-1245.95,0,0
84452.9,52.7727,-1241.58,0,0
84713.225,52.8068,-1237.59,0,0
84973.55,52.3635,-1233.29,0,0
85233.875,51.8874,-1228.65,0,0
85494.2,51.7014,-1223.82,0,0
85754.525,51.544,-1219.08,0,0
86014.85,51.5732,-1214.25,0,0
86275.175,51.5589,-1209.57,0,0
86535.5,51.6573,-1204.86,0,0
86795.825,51.8092,-1200.09,0,0
87056.15,52.053,-1195.5,0,0
87316.475,52.234,-1191.12,0,0
87576.8,52.2887,-1186.65,0,0
87837.125,52.489,-1182.02,0,0
88097.45,52.5775,-1177.47,0,0
88357.775,52.6971,-1173.07,0,0
88618.1,52.7891,-1168.53,0,0
88878.425,52.9832,-1163.98,0,0
89138.75,53.1208,-1159.39,0,0
89399.075,53.3055,-1154.82,0,0
89659.4,53.4872,-1150.21,0,0
89919.725,53.962,-1145.51,0,0
90180,54.4104,-1140.91,0,0
90440.4,55.0294,-1136.38,0,0
90700.7,55.7694,-1131.89,0,0
90961,56.7058,-1127.55,0,0
91221.3,57.7602,-1123.38,0,0
91481.7,58.7387,-1119.68,0,0
91742,59.2267,-1116.17,0,0
92002.3,59.5125,-1112.52,0,0
92262.6,59.6605,-1108.68,0,0
92523,59.8873,-1104.72,0,0
92783.3,60.2111,-1100.56,0,0
93043.6,60.7774,-1096.35,0,0
93303.9,61.3675,-1092.5,0,0
93564.3,62.0398,-1088.6,0,0
93824.6,62.612,-1084.82,0,0
94084.9,63.2742,-1081.27,0,0
94345.2,63.7504,-1077.83,0,0
94605.6,63.7307,-1074.32,0,0
94865.9,63.9839,-1070.33,0,0
95126.2,64.3259,-1066.57,0,0
95386.5,64.5355,-1062.52,0,0
95646.9,65.0952,-1058.76,0,0
95907.2,65.4077,-1054.9,0,0
96167.5,65.9283,-1050.89,0,0
96427.8,66.4475,-1046.85,0,0
96688.2,67.3553,-1042.93,0,0
96948.5,68.1396,-1039.26,0,0
97208.8,68.8712,-1035.53,0,0
97469.1,69.6407,-1031.74,0,0
97729.5,70.5422,-1027.97,0,0
97989.8,71.6103,-1024.32,0,0
98250.1,72.7405,-1020.81,0,0
98510.4,73.8975,-1017.44,0,0
98770.8,75.2235,-1014.19,0,0
99031.1,76.3916,-1011.38,0,0
99291.4,77.223,-1008.56,0,0
99551.7,77.9212,-1005.62,0,0
99812.1,78.71,-1002.5,0,0
100072,79.6307,-999.417,0,0
100333,80.7937,-996.432,0,0
100593,81.8744,-993.768,0,0
100853,82.8624,-991.18,0,0
101114,83.8557,-988.771,0,0
101374,84.6628,-986.512,0,0
101634,85.3916,-984.246,0,0
101895,85.9647,-982.146,0,0
102155,86.3911,-980.023,0,0
102415,86.6627,-977.927,0,0
102676,86.7124,-975.764,0,0
102936,86.6837,-973.474,0,0
103196,86.6642,-971.02,0,0
103457,86.7243,-968.544,0,0
103717,86.8651,-966.074,0,0
103977,86.9264,-963.801,0,0
104238,86.8632,-961.564,0,0
104498,86.5646,-959.26,0,0
104758,86.1573,-956.863,0,0
105019,85.6083,-954.157,0,0
105279,85.2706,-951.213,0,0
105539,85.1083,-948.285,0,0
105800,85.0091,-945.404,0,0
106060,84.9391,-942.459,0,0
106320.175,85.0779,-939.593,0,0
106580.5,85.2267,-936.84,0,0
106840.825,85.2575,-934.213,0,0
107101.15,85.1786,-931.539,0,0
107361.475,85.209,-928.802,0,0
107621.8,85.0606,-926.224,0,0
107882.125,84.6983,-923.449,0,0
108142.45,84.57,-920.454,0,0
108402.775,84.5076,-917.34,0,0
108663.1,84.6979,-914.243,0,0
108923.425,84.989,-911.259,0,0
109183.75,85.4208,-908.374,0,0
109444.075,85.8336,-905.732,0,0
109704.4,86.1612,-903.112,0,0
109964.725,86.5329,-900.559,0,0
110225.05,86.7447,-898.135,0,0
110485.375,86.8768,-895.685,0,0
110745.7,87.0891,-893.133,0,0
111006.025,87.1851,-890.691,0,0
111266.35,87.2465,-888.061,0,0
111526.675,87.418,-885.477,0,0
111787.0,87.7416,-883.023,0,0
112047.325,87.8611,-880.67,0,0
112307.65,88.0035,-878.271,0,0
112567.975,88.126,-875.942,0,0
112828.3,88.1959,-873.651,0,0
113088.625,88.229,-871.348,0,0
113348.95,88.1137,-868.977,0,0
113609.275,88.0512,-866.647,0,0
113869.6,87.9836,-864.225,0,0
114129.925,87.9127,-861.795,0,0
114390.25,87.8431,-859.27,0,0
114650.575,87.9108,-856.947,0,0
114910.9,87.8795,-854.56,0,0
115171.225,87.9529,-852.222,0,0
115431.55,87.9765,-850.144,0,0
115691.875,87.6273,-848.067,0,0
115952.2,87.1362,-845.716,0,0
116212.525,86.7262,-843.16,0,0
116472.85,86.41,-840.57,0,0
116733.175,86.1997,-837.906,0,0
116993.5,86.0218,-835.259,0,0
117253.825,85.9656,-832.671,0,0
117514.15,85.9145,-830.113,0,0
117774.475,85.8654,-827.6,0,0
118034.8,85.7899,-825.083,0,0
118295.125,85.7366,-822.577,0,0
118555.45,85.691,-820.084,0,0
118815.775,85.7025,-817.598,0,0
119076.1,85.6979,-815.233,0,0
119336.425,85.5657,-812.955,0,0
119596.75,85.2742,-810.537,0,0
119857.075,85.0802,-808.046,0,0
120117.4,84.9061,-805.567,0,0
120377.725,84.675,-803.061,0,0
120638.05,84.4663,-800.504,0,0
120898.375,84.3722,-797.873,0,0
121158.7,84.3653,-795.327,0,0
121419.025,84.3616,-792.923,0,0
121679.35,84.2125,-790.531,0,0
121939.675,84.0287,-788.065,0,0
122200.0,83.8774,-785.548,0,0
122460,83.7855,-783.084,0,0
122721,83.6224,-780.647,0,0
122981,83.4408,-778.169,0,0
123241,83.2743,-775.697,0,0
123502,83.0888,-773.208,0,0
123762,82.8797,-770.74,0,0
124022,82.6498,-768.235,0,0
124283,82.4106,-765.715,0,0
124543,82.1636,-763.197,0,0
124803,81.9094,-760.63,0,0
125064,81.611,-758.022,0,0
125324,81.3894,-755.386,0,0
125584,81.1366,-752.737,0,0
125845,80.8945,-750.047,0,0
126105,80.6642,-747.295,0,0
126365,80.4787,-744.495,0,0
126626,80.3562,-741.737,0,0
126886,80.2331,-738.944,0,0
127146,80.206,-736.165,0,0
127406,80.0045,-733.441,0,0
127667,80.0294,-730.545,0,0
127927,80.0135,-727.708,0,0
128187,80.0998,-724.91,0,0
128448,80.2157,-722.173,0,0
128708,80.2832,-719.546,0,0
128968,80.2598,-716.84,0,0
129229,80.2722,-714.119,0,0
129489,80.2347,-711.424,0,0
129749,80.1022,-708.635,0,0
130010,80.0643,-705.699,0,0
130270,80.0609,-702.641,0,0
130530,80.3871,-699.565,0,0
130791,80.8384,-696.709,0,0
131051,81.2019,-694.018,0,0
131311,81.6034,-691.336,0,0
131572,81.9301,-688.837,0,0
131832,82.0537,-686.262,0,0
132092,82.1987,-683.585,0,0
132353,82.3459,-680.893,0,0
132613,82.6321,-678.2,0,0
132873,82.8748,-675.648,0,0
133134,82.9898,-673.071,0,0
133394,82.9877,-670.392,0,0
133654,83.1108,-667.597,0,0
133915,83.2239,-664.8,0,0
134175,83.3759,-661.914,0,0
134435,83.708,-659.014,0,0
134696,83.9995,-656.201,0,0
134956,84.3715,-653.363,0,0
135216,84.856,-650.59,0,0
135477,85.2693,-647.851,0,0
135737,85.8054,-645.151,0,0
135997,86.403,-642.689,0,0
136258,86.8066,-640.43,0,0
136518,86.9016,-638.047,0,0
136778,86.9967,-635.614,0,0
137039,86.9718,-633.157,0,0
137299,86.8227,-630.564,0,0
137559,86.6635,-627.852,0,0
137819,86.4804,-624.972,0,0
138080,86.3327,-621.981,0,0
138340.125,86.1964,-618.77,0,0
138600.45,86.3258,-615.407,0,0
138860.775,86.6494,-612.16,0,0
139121.1,87.0318,-608.897,0,0
139381.425,87.4836,-605.778,0,0
139641.75,87.8467,-602.649,0,0
139902.075,88.31,-599.427,0,0
140162.4,88.8413,-596.325,0,0
140422.725,89.3008,-593.299,0,0
140683.05,89.6509,-590.187,0,0
140943.375,90.0295,-586.882,0,0
141203.7,90.6227,-583.587,0,0
141464.025,91.2391,-580.445,0,0
141724.35,91.6977,-577.308,0,0
141984.675,92.09,-573.966,0,0
142245.0,92.6114,-570.46,0,0
142505.325,93.2786,-566.945,0,0
142765.65,93.9959,-563.435,0,0
143025.975,94.8095,-559.809,0,0
143286.3,95.7219,-556.198,0,0
143546.625,96.8307,-552.619,0,0
143806.95,97.8887,-549.223,0,0
144067.275,98.8471,-545.714,0,0
144327.6,99.8265,-542.086,0,0
144587.925,100.956,-538.284,0,0
144848.25,102.396,-534.429,0,0
145108.575,104.039,-530.731,0,0
145368.9,105.694,-527.206,0,0
145629.225,107.411,-523.692,0,0
145889.55,109.103,-520.268,0,0
146149.875,110.763,-516.734,0,0
146410.2,112.632,-513.109,0,0
146670.525,114.789,-509.594,0,0
146930.85,117.045,-506.379,0,0
147191.175,119.198,-503.415,0,0
147451.5,121.122,-500.573,0,0
147711.825,122.743,-497.613,0,0
147972.15,124.227,-494.322,0,0
148232.475,125.83,-490.694,0,0
148492.8,127.735,-486.742,0,0
148753.125,130.038,-482.726,0,0
149013.45,132.661,-478.786,0,0
149273.775,135.441,-474.954,0,0
149534.1,138.325,-471.028,0,0
149794.425,141.738,-466.921,0,0
150054.75,145.673,-463.217,0,0
150315.075,149.911,-459.534,0,0
150575.4,154.445,-456.148,0,0
150835.725,159.495,-453.149,0,0
151096.05,164.84,-450.816,0,0
151356.375,170.463,-449.015,0,0
151616.7,176.035,-448.214,0,0
151877.025,181.191,-448.292,0,0
152137.35,185.535,-448.571,0,0
152397.675,189.889,-449.084,0,0
152658.0,193.474,-450.042,0,0
152918.325,196.593,-450.731,0,0
153178.65,199.625,-451.576,0,0
153438.975,202.092,-452.676,0,0
153699.3,203.921,-453.357,0,0
153959.625,205.608,-453.445,0,0
154219.95,207.761,-453.546,0,0
154480,209.375,-453.778,0,0
154741,210.926,-453.213,0,0
155001,213.618,-452.271,0,0
155261,216.991,-452.133,0,0
155522,220.521,-453.186,0,0
155782,223.402,-455.372,0,0
156042,225.026,-458.034,0,0
156303,225.718,-460.876,0,0
156563,225.109,-463.401,0,0
156823,223.407,-464.928,0,0
157084,221.155,-465.246,0,0
157344,219.086,-464.166,0,0
157604,217.679,-461.842,0,0
157864,217.573,-458.984,0,0
158125,218.931,-456.486,0,0
158385,220.517,-455.196,0,0
158645,222.053,-454.048,0,0
158906,223.531,-453.37,0,0
159166,224.942,-452.604,0,0
159426,226.777,-452.602,0,0
159687,227.8,-453.674,0,0
159947,227.395,-454.774,0,0
160207,226.075,-455.065,0,0
160468,224.496,-454.472,0,0
160728,222.481,-453.019,0,0
160988,220.945,-450.209,0,0
161249,220.335,-446.809,0,0
161509,220.398,-443.016,0,0
161769,221.678,-439.178,0,0
162030,223.792,-435.949,0,0
162290,226.583,-433.313,0,0
162550,229.702,-431.698,0,0
162811,232.545,-431.176,0,0
163071,234.49,-430.973,0,0
163331,236.224,-430.833,0,0
163592,237.587,-430.872,0,0
163852,238.334,-430.809,0,0
164112,239.063,-430.233,0,0
164373,239.903,-429.617,0,0
164633,241.039,-429.151,0,0
164893,242.098,-428.999,0,0
165154,243.081,-429.175,0,0
165414,243.791,-429.848,0,0
165674,243.837,-430.884,0,0
165935,242.88,-431.933,0,0
166195,241.198,-432.211,0,0
166455,239.764,-432.087,0,0
166716,237.673,-431.913,0,0
166976,234.999,-431.167,0,0
167236,232.235,-429.346,0,0
167497,229.944,-426.928,0,0
167757,227.969,-424.402,0,0
168017,225.908,-421.601,0,0
168277,224.127,-418.512,0,0
168538,222.364,-415.297,0,0
168798,220.488,-411.792,0,0
169058,218.705,-407.603,0,0
169319,217.523,-403.046,0,0
169579,216.711,-398.539,0,0
169839,216.025,-393.951,0,0
170100,215.465,-389.167,0,0
170360.075,215.287,-384.165,0,0
170620.4,215.388,-379.131,0,0
170880.725,215.659,-374.182,0,0
171141.05,216.103,-369.299,0,0
171401.375,216.307,-364.128,0,0
171661.7,216.819,-358.3,0,0
171922.025,218.142,-352.259,0,0
172182.35,220.117,-346.53,0,0
172442.675,222.383,-341.251,0,0
172703.0,224.557,-336.237,0,0
172963.325,226.814,-331.189,0,0
173223.65,229.195,-326.003,0,0
173483.975,231.945,-320.984,0,0
173744.3,234.955,-316.314,0,0
174004.625,237.724,-311.931,0,0
174264.95,240.634,-307.62,0,0
174525.275,243.342,-303.759,0,0
174785.6,245.194,-299.778,0,0
175045.925,246.766,-295.087,0,0
175306.25,248.661,-289.748,0,0
175566.575,250.88,-283.933,0,0
175826.9,253.752,-277.815,0,0
176087.225,257.199,-271.737,0,0
176347.55,261.122,-265.993,0,0
176607.875,265.213,-260.444,0,0
176868.2,269.279,-255.241,0,0
177128.525,273.074,-249.927,0,0
177388.85,276.708,-244.371,0,0
177649.175,280.374,-238.115,0,0
177909.5,284.68,-231.271,0,0
178169.825,289.91,-224.173,0,0
178430.15,296.076,-217.113,0,0
178690.475,302.771,-210.673,0,0
178950.8,309.813,-204.417,0,0
179211.125,317.523,-198.45,0,0
179471.45,325.275,-193.292,0,0
179731.775,332.804,-187.043,0,0
179992.1,341.731,-181.282,0,0
180252.425,351.393,-176.769,0,0
180512.75,360.438,-173.146,0,0
180773.075,369.146,-169.344,0,0
181033.4,378.233,-165.327,0,0
181293.725,387.664,-161.573,0,0
181554.05,397.464,-157.559,0,0
181814.375,408.565,-153.713,0,0
182074.7,420.53,-151.035,0,0
182335.025,433.019,-149.817,0,0
182595.35,445.33,-150.062,0,0
182855.675,456.676,-151.631,0,0
183116.0,466.981,-153.516,0,0
183376.325,476.624,-155.584,0,0
183636.65,485.541,-158.008,0,0
183896.975,493.267,-160.192,0,0
184157.3,500.053,-161.092,0,0
184417.625,507.676,-160.442,0,0
184677.95,516.973,-159.662,0,0
184938.275,527.239,-159.773,0,0
185198.6,537.807,-160.711,0,0
185458.925,548.759,-162.822,0,0
185719.25,558.897,-166.048,0,0
185979.575,568.217,-169.134,0,0
186239.9,577.835,-172.12,0,0
186500,587.511,-176.09,0,0
186761,596.17,-180.491,0,0
187021,604.547,-184.614,0,0
187281,612.603,-188.987,0,0
187542,620.476,-193.129,0,0
187802,627.945,-197.254,0,0
188062,635.504,-200.938,0,0
188322,643.542,-204.858,0,0
188583,651.44,-209.442,0,0
188843,658.703,-214.231,0,0
189103,665.524,-218.887,0,0
189364,671.835,-223.203,0,0
189624,678.259,-226.717,0,0
189884,685.366,-230.088,0,0
190145,692.323,-233.717,0,0
190405,699.358,-236.648,0,0
190665,707.212,-239.308,0,0
190926,716.264,-241.957,0,0
191186,726.508,-246.073,0,0
191446,736.171,-251.852,0,0
191707,744.728,-258.348,0,0
191967,752.049,-264.834,0,0
192227,758.356,-270.306,0,0
192488,764.802,-274.254,0,0
192748,772.061,-277.224,0,0
193008,780.946,-279.164,0,0
193269,791.93,-281.403,0,0
193529,804.457,-284.542,0,0
193789,818.72,-288.857,0,0
194050,834.163,-295.52,0,0
194310,849.325,-304.275,0,0
194570,864.584,-314.192,0,0
194831,879.776,-326.179,0,0
195091,894.087,-339.667,0,0
195351,907.887,-354.287,0,0
195612,921.229,-369.772,0,0
195872,934.91,-386.854,0,0
196132,947.867,-406.481,0,0
196393,959.066,-428.28,0,0
196653,967.849,-451.058,0,0
196913,975.039,-474.19,0,0
197174,981.062,-498.201,0,0
197434,985.655,-523.578,0,0
197694,987.691,-550.147,0,0
197955,986.782,-577.287,0,0
198215,983.015,-603.795,0,0
198475,976.906,-629.195,0,0
198735,969.202,-653.743,0,0
198996,959.958,-677.339,0,0
199256,949.009,-700.435,0,0
199516,935.638,-722.706,0,0
199777,919.873,-742.789,0,0
200037,902.538,-759.857,0,0
200297,885.158,-774.083,0,0
200558,868.463,-786.101,0,0
200818,852.568,-796.678,0,0
201078,837.486,-806.424,0,0
201339,823.246,-816.037,0,0
201599,808.692,-826.019,0,0
201859,793.187,-835.886,0,0
202120,775.786,-845.497,0,0
202380.025,756.775,-852.516,0,0
202640.35,736.886,-856.681,0,0
202900.675,718.163,-857.678,0,0
203161.0,701.441,-857.166,0,0
203421.325,686.081,-855.662,0,0
203681.65,672.205,-853.206,0,0
203941.975,659.831,-850.747,0,0
204202.3,648.471,-848.72,0,0
204462.625,636.902,-847.001,0,0
204722.95,625.133,-844.695,0,0
204983.275,613.493,-841.553,0,0
205243.6,602.334,-837.574,0,0
205503.925,591.8,-832.231,0,0
205764.25,582.425,-826.192,0,0
206024.575,574.179,-819.498,0,0
206284.9,567.309,-812.47,0,0
206545.225,561.666,-805.166,0,0
206805.55,557.709,-797.895,0,0
207065.875,555.264,-791.508,0,0
207326.2,553.452,-785.984,0,0
207586.525,552.008,-781.154,0,0
207846.85,551.259,-776.923,0,0
208107.175,550.874,-773.551,0,0
208367.5,550.417,-770.937,0,0
208627.825,549.772,-768.795,0,0
208888.15,548.961,-766.858,0,0
209148.475,548.025,-765.109,0,0
209408.8,546.834,-763.067,0,0
209669.125,545.983,-760.699,0,0
209929.45,545.844,-758.123,0,0
210189.775,546.424,-755.754,0,0
210450.1,547.497,-753.687,0,0
210710.425,549.208,-752.284,0,0
210970.75,551.285,-751.552,0,0
211231.075,553.385,-751.478,0,0
211491.4,555.667,-751.817,0,0
211751.725,558.258,-752.939,0,0
212012.05,560.691,-755.131,0,0
212272.375,562.555,-757.906,0,0
212532.7,563.974,-761.008,0,0
212793.025,565.124,-764.479,0,0
213053.35,565.95,-768.273,0,0
213313.675,566.166,-772.516,0,0
213574.0,565.82,-776.669,0,0
213834.325,565.228,-780.766,0,0
214094.65,564.42,-784.673,0,0
214354.975,563.539,-788.558,0,0
214615.3,562.631,-792.696,0,0
214875.625,561.567,-796.991,0,0
215135.95,560.253,-801.624,0,0
215396.275,558.604,-806.294,0,0
215656.6,556.814,-811.179,0,0
215916.925,554.568,-816.359,0,0
216177.25,551.658,-821.738,0,0
216437.575,547.84,-826.419,0,0
216697.9,544.173,-831.08,0,0
216958.225,540.128,-835.549,0,0
217218.55,535.865,-839.84,0,0
217478.875,531.509,-843.96,0,0
217739.2,526.955,-847.892,0,0
217999.525,522.263,-851.873,0,0
218259.85,517.132,-855.728,0,0
218520,511.909,-859.314,0,0
218780,506.245,-862.793,0,0
219041,500.271,-865.942,0,0
219301,494.124,-868.639,0,0
219561,487.875,-871.044,0,0
219822,481.57,-873.02,0,0
220082,475.022,-874.795,0,0
220342,468.289,-876.098,0,0
220603,461.533,-876.748,0,0
220863,455.005,-876.875,0,0
221123,448.752,-876.515,0,0
221384,442.848,-875.844,0,0
221644,437.372,-874.883,0,0
221904,432.276,-873.972,0,0
222165,427.201,-872.957,0,0
222425,422.308,-871.774,0,0
222685,417.612,-870.335,0,0
222946,413.239,-868.677,0,0
223206,409.338,-866.689,0,0
223466,405.992,-864.85,0,0
223727,403.295,-863.278,0,0
223987,400.6,-862.127,0,0
224247,398.094,-861.158,0,0
224508,395.568,-860.355,0,0
224768,393.292,-859.619,0,0
225028,391.208,-859.186,0,0
225289,389.331,-859.095,0,0
225549,387.412,-859.348,0,0
225809,385.32,-860.099,0,0
226070,382.882,-861.331,0,0
226330,380.146,-862.493,0,0
226590,377.233,-863.838,0,0
226851,373.776,-865.159,0,0
227111,369.954,-866.329,0,0
227371,365.948,-867.316,0,0
227632,361.641,-868.013,0,0
227892,357.219,-868.282,0,0
228152,353.038,-868.142,0,0
228413,349.178,-867.889,0,0
228673,345.708,-867.554,0,0
228933,342.406,-867.61,0,0
229193,339.208,-868.021,0,0
229454,335.66,-868.701,0,0
229714,331.83,-869.478,0,0
229974,327.707,-870.161,0,0
230235,323.415,-870.923,0,0
230495,318.784,-871.703,0,0
230755,313.744,-872.215,0,0
231016,308.647,-872.392,0,0
231276,303.429,-872.352,0,0
231536,297.981,-872.087,0,0
231797,292.499,-871.55,0,0
232057,287.059,-870.673,0,0
232317,281.63,-869.665,0,0
232578,276.127,-868.522,0,0
232838,270.558,-867.171,0,0
233098,264.915,-865.591,0,0
233359,259.13,-863.624,0,0
233619,253.411,-861.316,0,0
233879,247.75,-858.633,0,0
234140,242.288,-855.604,0,0
234400,236.978,-852.276,0,0
234660.3,231.836,-848.536,0,0
234920.625,227.154,-844.492,0,0
235180.95,222.795,-840.228,0,0
235441.275,218.791,-835.921,0,0
235701.6,215.161,-831.555,0,0
235961.925,211.843,-827.214,0,0
236222.25,208.742,-822.82,0,0
236482.575,205.907,-818.515,0,0
236742.9,203.296,-814.216,0,0
237003.225,200.909,-809.94,0,0
237263.55,198.727,-805.775,0,0
237523.875,196.66,-801.629,0,0
237784.2,194.723,-797.513,0,0
238044.525,192.912,-793.349,0,0
238304.85,191.342,-789.038,0,0
238565.175,190.046,-784.747,0,0
238825.5,189.141,-780.428,0,0
239085.825,188.673,-776.351,0,0
239346.15,188.495,-772.616,0,0
239606.475,188.517,-769.255,0,0
239866.8,188.495,-766.147,0,0
240127.125,188.564,-763.34,0,0
240387.45,188.594,-760.826,0,0
240647.775,188.623,-758.423,0,0
240908.1,188.795,-756.359,0,0
241168.425,188.72,-754.648,0,0
241428.75,188.322,-753.178,0,0
241689.075,187.723,-751.89,0,0
241949.4,186.711,-750.512,0,0
242209.725,185.49,-748.926,0,0
242470.05,184.148,-747.201,0,0
242730.375,182.76,-745.241,0,0
242990.7,181.496,-743.172,0,0
243251.025,180.288,-741.065,0,0
243511.35,179.085,-738.882,0,0
243771.675,177.799,-736.666,0,0
244032.0,176.64,-734.296,0,0
244292.325,175.588,-731.788,0,0
244552.65,174.777,-729.263,0,0
244812.975,174.072,-726.892,0,0
245073.3,173.319,-724.661,0,0
245333.625,172.49,-722.258,0,0
245593.95,171.723,-719.743,0,0
245854.275,171.188,-717.13,0,0
246114.6,170.934,-714.58,0,0
246374.925,170.809,-712.216,0,0
246635.25,170.773,-710.09,0,0
246895.575,170.818,-708.172,0,0
247155.9,170.686,-706.321,0,0
247416.225,170.384,-704.651,0,0
247676.55,169.97,-702.845,0,0
247936.875,169.608,-700.971,0,0
248197.2,169.298,-699.082,0,0
248457.525,168.978,-697.265,0,0
248717.85,168.643,-695.463,0,0
248978.175,168.272,-693.637,0,0
249238.5,167.941,-691.718,0,0
249498.825,167.593,-689.77,0,0
249759.15,167.375,-687.89,0,0
250019.475,167.181,-685.9,0,0
250279.8,167.103,-683.918,0,0
250540,167.086,-681.906,0,0
250800,167.156,-679.981,0,0
251061,167.344,-678.018,0,0
251321,167.687,-676.161,0,0
251581,168.145,-674.382,0,0
251842,168.667,-672.858,0,0
252102,169.143,-671.365,0,0
252362,169.719,-670.013,0,0
252623,170.337,-668.882,0,0
252883,170.938,-667.907,0,0
253143,171.43,-667.204,0,0
253404,171.763,-666.669,0,0
253664,171.899,-666.218,0,0
253924,171.824,-665.859,0,0
254185,171.472,-665.415,0,0
254445,171.02,-664.934,0,0
254705,170.363,-664.38,0,0
254966,169.625,-663.711,0,0
255226,168.78,-663.025,0,0
255486,167.798,-662.114,0,0
255747,166.721,-661.089,0,0
256007,165.671,-659.817,0,0
256267,164.6,-658.468,0,0
256528,163.548,-656.962,0,0
256788,162.438,-655.286,0,0
257048,161.414,-653.388,0,0
257309,160.54,-651.264,0,0
257569,159.85,-649.018,0,0
257829,159.372,-646.659,0,0
258090,159.102,-644.236,0,0
258350,159.024,-641.839,0,0
258610,159.176,-639.439,0,0
258871,159.449,-637.101,0,0
259131,159.95,-634.787,0,0
259391,160.635,-632.602,0,0
259651,161.501,-630.57,0,0
259912,162.472,-628.845,0,0
260172,163.396,-627.248,0,0
260432,164.23,-625.797,0,0
260693,164.948,-624.368,0,0
260953,165.725,-622.949,0,0
261213,166.552,-621.598,0,0
261474,167.324,-620.345,0,0
261734,168.102,-619.157,0,0
261994,168.887,-617.991,0,0
262255,169.599,-616.922,0,0
262515,170.103,-615.931,0,0
262775,170.415,-614.741,0,0
263036,170.822,-613.354,0,0
263296,171.429,-611.848,0,0
263556,172.025,-610.405,0,0
263817,172.725,-608.929,0,0
264077,173.404,-607.348,0,0
264337,174.165,-605.701,0,0
264598,175.042,-603.976,0,0
264858,175.992,-602.189,0,0
265118,177.095,-600.226,0,0
265379,178.525,-598.195,0,0
265639,180.147,-596.134,0,0
265899,182.049,-594.068,0,0
266160,184.348,-592.044,0,0
266420,187.002,-590.161,0,0
266680.25,189.979,-588.501,0,0
266940.575,193.251,-587.074,0,0
267200.9,196.855,-585.993,0,0
267461.225,200.717,-585.347,0,0
267721.55,204.722,-585.139,0,0
267981.875,208.811,-585.426,0,0
268242.2,212.856,-586.184,0,0
268502.525,216.785,-587.366,0,0
268762.85,220.614,-588.924,0,0
269023.175,224.224,-590.831,0,0
269283.5,227.741,-592.98,0,0
269543.825,231.11,-595.391,0,0
269804.15,234.593,-598.046,0,0
270064.475,238.073,-601.14,0,0
270324.8,241.344,-604.871,0,0
270585.125,244.305,-609.138,0,0
270845.45,246.741,-613.83,0,0
271105.775,248.641,-618.913,0,0
271366.1,250.007,-624.128,0,0
271626.425,250.866,-629.447,0,0
271886.75,251.303,-634.847,0,0
272147.075,251.346,-640.405,0,0
272407.4,250.914,-646.034,0,0
272667.725,250.07,-651.895,0,0
272928.05,248.565,-657.903,0,0
273188.375,246.29,-663.98,0,0
273448.7,243.14,-669.961,0,0
273709.025,239.222,-675.465,0,0
273969.35,234.659,-680.436,0,0
274229.675,229.51,-684.779,0,0
274490.0,224.067,-688.424,0,0
274750.325,218.428,-691.412,0,0
275010.65,212.613,-693.684,0,0
275270.975,206.837,-695.43,0,0
275531.3,201.173,-696.528,0,0
275791.625,195.604,-697.216,0,0
276051.95,190.229,-697.448,0,0
276312.275,185.018,-697.378,0,0
276572.6,179.95,-696.958,0,0
276832.925,175.021,-696.258,0,0
277093.25,170.27,-695.243,0,0
277353.575,165.704,-693.972,0,0
277613.9,161.358,-692.472,0,0
277874.225,157.204,-690.742,0,0
278134.55,153.261,-688.894,0,0
278394.875,149.484,-686.812,0,0
278655.2,145.883,-684.548,0,0
278915.525,142.533,-682.084,0,0
279175.85,139.402,-679.4,0,0
279436.175,136.605,-676.634,0,0
279696.5,134.089,-673.745,0,0
279956.825,131.997,-670.782,0,0
280217.15,130.104,-667.839,0,0
280477.475,128.576,-664.96,0,0
280737.8,127.337,-662.23,0,0
280998.125,126.302,-659.634,0,0
281258.45,125.432,-657.249,0,0
281518.775,124.676,-654.99,0,0
281779.1,123.959,-652.87,0,0
282039.425,123.334,-650.839,0,0
282299.75,122.795,-648.903,0,0
282560,122.382,-647.115,0,0
282820,121.976,-645.503,0,0
283081,121.496,-644.049,0,0
283341,120.919,-642.646,0,0
283601,120.269,-641.199,0,0
283862,119.653,-639.672,0,0
284122,119.094,-638.059,0,0
284382,118.659,-636.437,0,0
284643,118.283,-634.905,0,0
284903,118.018,-633.265,0,0
285163,117.874,-631.725,0,0
285424,117.904,-630.181,0,0
285684,118.062,-628.718,0,0
285944,118.36,-627.405,0,0
286205,118.799,-626.205,0,0
286465,119.363,-625.14,0,0
286725,120.12,-624.326,0,0
286986,120.99,-623.799,0,0
287246,121.884,-623.662,0,0
287506,122.67,-623.942,0,0
287767,123.217,-624.548,0,0
288027,123.493,-625.416,0,0
288287,123.458,-626.492,0,0
288548,123.023,-627.7,0,0
288808,122.208,-628.94,0,0
289068,121.009,-630.158,0,0
289329,119.498,-631.19,0,0
289589,117.719,-632.039,0,0
289849,115.616,-632.672,0,0
290109,113.377,-632.935,0,0
290370,111.098,-632.904,0,0
290630,108.895,-632.609,0,0
290890,106.774,-632.157,0,0
291151,104.732,-631.612,0,0
291411,102.726,-630.976,0,0
291671,100.698,-630.323,0,0
291932,98.6511,-629.544,0,0
292192,96.5795,-628.647,0,0
292452,94.5279,-627.572,0,0
292713,92.5373,-626.401,0,0
292973,90.6518,-625.114,0,0
293233,88.7791,-623.756,0,0
293494,86.99,-622.347,0,0
293754,85.2599,-620.823,0,0
294014,83.5797,-619.254,0,0
294275,81.9647,-617.603,0,0
294535,80.4406,-615.841,0,0
294795,79.0272,-614.036,0,0
295056,77.7154,-612.19,0,0
295316,76.5331,-610.339,0,0
295576,75.4294,-608.476,0,0
295837,74.4472,-606.635,0,0
296097,73.5412,-604.804,0,0
296357,72.6748,-603.037,0,0
296618,71.8493,-601.307,0,0
296878,71.0569,-599.591,0,0
297138,70.2643,-597.864,0,0
297399,69.5184,-596.161,0,0
297659,68.7831,-594.441,0,0
297919,68.0796,-592.686,0,0
298180,67.4119,-590.937,0,0
298440,66.7905,-589.168,0,0
298700.2,66.2229,-587.385,0,0
298960.525,65.6993,-585.579,0,0
299220.85,65.2158,-583.803,0,0
299481.175,64.8009,-582.014,0,0
299741.5,64.4491,-580.2,0,0
300001.825,64.1487,-578.395,0,0
300262.15,63.8957,-576.611,0,0
300522.475,63.6949,-574.854,0,0
300782.8,63.5496,-573.085,0,0
301043.125,63.4719,-571.323,0,0
301303.45,63.4636,-569.588,0,0
301563.775,63.5391,-567.869,0,0
301824.1,63.6735,-566.222,0,0
302084.425,63.8965,-564.622,0,0
302344.75,64.1481,-563.085,0,0
302605.075,64.4182,-561.632,0,0
302865.4,64.7078,-560.216,0,0
303125.725,65.0383,-558.856,0,0
303386.05,65.3852,-557.55,0,0
303646.375,65.7593,-556.301,0,0
303906.7,66.1489,-555.118,0,0
304167.025,66.5226,-553.987,0,0
304427.35,66.9092,-552.895,0,0
304687.675,67.302,-551.837,0,0
304948.0,67.6954,-550.841,0,0
305208.325,68.1012,-549.872,0,0
305468.65,68.5319,-549.015,0,0
305728.975,68.9515,-548.18,0,0
305989.3,69.3265,-547.433,0,0
306249.625,69.6976,-546.721,0,0
306509.95,70.0001,-546.041,0,0
306770.275,70.2993,-545.382,0,0
307030.6,70.5765,-544.736,0,0
307290.925,70.8649,-544.131,0,0
307551.25,71.1471,-543.553,0,0
307811.575,71.4235,-543.029,0,0
308071.9,71.7049,-542.557,0,0
308332.225,71.9437,-542.182,0,0
308592.55,72.113,-541.873,0,0
308852.875,72.1993,-541.619,0,0
309113.2,72.1342,-541.389,0,0
309373.525,71.9795,-541.103,0,0
309633.85,71.7716,-540.741,0,0
309894.175,71.5341,-540.307,0,0
310154.5,71.2764,-539.822,0,0
310414.825,71.0505,-539.288,0,0
310675.15,70.8639,-538.76,0,0
310935.475,70.6638,-538.202,0,0
311195.8,70.5208,-537.653,0,0
311456.125,70.372,-537.138,0,0
311716.45,70.2283,-536.631,0,0
311976.775,70.0684,-536.17,0,0
312237.1,69.8906,-535.718,0,0
312497.425,69.6381,-535.278,0,0
312757.75,69.3732,-534.825,0,0
313018.075,69.0851,-534.337,0,0
313278.4,68.7782,-533.87,0,0
313538.725,68.4543,-533.376,0,0
313799.05,68.1193,-532.862,0,0
314059.375,67.7521,-532.336,0,0
314319.7,67.3863,-531.784,0,0
314580,67.0016,-531.23,0,0
314840,66.6535,-530.606,0,0
315101,66.2641,-529.993,0,0
315361,65.8498,-529.436,0,0
315621,65.462,-528.719,0,0
315882,65.0563,-527.981,0,0
316142,64.7038,-527.29,0,0
316402,64.3755,-526.501,0,0
316663,64.1122,-525.794,0,0
316923,63.8287,-524.966,0,0
317183,63.6089,-524.243,0,0
317444,63.4091,-523.559,0,0
317704,63.1302,-522.835,0,0
317964,62.8464,-522.19,0,0
318225,62.6464,-521.442,0,0
318485,62.4218,-520.737,0,0
318745,62.2301,-519.938,0,0
319006,61.9811,-519.182,0,0
319266,61.868,-518.453,0,0
319526,61.7731,-517.647,0,0
319787,61.618,-516.907,0,0
320047,61.6554,-516.255,0,0
320307,61.5675,-515.69,0,0
320567,61.5243,-515.091,0,0
320828,61.478,-514.506,0,0
321088,61.3528,-514.049,0,0
321348,61.2525,-513.526,0,0
321609,61.1178,-513.07,0,0
321869,60.9401,-512.561,0,0
322129,60.7797,-512.118,0,0
322390,60.677,-511.692,0,0
322650,60.4044,-511.248,0,0
322910,60.2188,-510.852,0,0
323171,59.9619,-510.454,0,0
323431,59.6632,-510.008,0,0
323691,59.2717,-509.622,0,0
323952,58.9165,-509.163,0,0
324212,58.4819,-508.775,0,0
324472,58.0574,-508.277,0,0
324733,57.5518,-507.74,0,0
324993,57.0616,-507.176,0,0
325253,56.585,-506.558,0,0
325514,56.121,-505.918,0,0
325774,55.6101,-505.252,0,0
326034,55.2452,-504.583,0,0
326295,54.8354,-503.844,0,0
326555,54.468,-503.151,0,0
326815,54.0998,-502.453,0,0
327076,53.7141,-501.752,0,0
327336,53.3766,-501.043,0,0
327596,52.9866,-500.274,0,0
327857,52.7388,-499.594,0,0
328117,52.3388,-498.865,0,0
328377,51.9829,-498.191,0,0
328638,51.6125,-497.492,0,0
328898,51.2435,-496.766,0,0
329158,50.826,-496.039,0,0
329419,50.5092,-495.241,0,0
329679,50.162,-494.441,0,0
329939,49.8317,-493.654,0,0
330200,49.5063,-492.902,0,0
330460,49.1916,-492.051,0,0
330720.15,48.8403,-491.24,0,0
330980.475,48.5155,-490.415,0,0
331240.8,48.2629,-489.544,0,0
331501.125,47.9394,-488.735,0,0
331761.45,47.7011,-487.877,0,0
332021.775,47.4599,-486.981,0,0
332282.1,47.1364,-486.124,0,0
332542.425,46.953,-485.241,0,0
332802.75,46.7771,-484.277,0,0
333063.075,46.5823,-483.438,0,0
333323.4,46.3835,-482.51,0,0
333583.725,46.2906,-481.585,0,0
333844.05,46.1405,-480.665,0,0
334104.375,46.1156,-479.727,0,0
334364.7,46.0933,-478.876,0,0
334625.025,46.1434,-477.997,0,0
334885.35,46.1726,-477.12,0,0
335145.675,46.2159,-476.348,0,0
335406.0,46.2946,-475.567,0,0
335666.325,46.3984,-474.872,0,0
335926.65,46.4259,-474.183,0,0
336186.975,46.5368,-473.529,0,0
336447.3,46.5796,-472.923,0,0
336707.625,46.5982,-472.32,0,0
336967.95,46.587,-471.703,0,0
337228.275,46.5544,-471.157,0,0
337488.6,46.5851,-470.578,0,0
337748.925,46.4718,-470.016,0,0
338009.25,46.4022,-469.497,0,0
338269.575,46.3165,-468.947,0,0
338529.9,46.1798,-468.388,0,0
338790.225,46.0212,-467.843,0,0
339050.55,45.9258,-467.316,0,0
339310.875,45.7577,-466.702,0,0
339571.2,45.5223,-466.139,0,0
339831.525,45.3273,-465.553,0,0
340091.85,45.1259,-464.906,0,0
340352.175,44.9253,-464.393,0,0
340612.5,44.7161,-463.753,0,0
340872.825,44.4958,-463.067,0,0
341133.15,44.2365,-462.414,0,0
341393.475,44.0259,-461.715,0,0
341653.8,43.7897,-460.987,0,0
341914.125,43.5629,-460.302,0,0
342174.45,43.3219,-459.562,0,0
342434.775,43.1424,-458.82,0,0
342695.1,42.9096,-458.028,0,0
342955.425,42.7329,-457.278,0,0
343215.75,42.5658,-456.477,0,0
343476.075,42.394,-455.702,0,0
343736.4,42.2446,-454.855,0,0
343996.725,42.0986,-454.055,0,0
344257.05,41.9486,-453.222,0,0
344517.375,41.8605,-452.399,0,0
344777.7,41.7668,-451.533,0,0
345038.025,41.6933,-450.672,0,0
345298.35,41.6471,-449.878,0,0
345558.675,41.6413,-449.029,0,0
345819.0,41.6237,-448.184,0,0
346079.325,41.6237,-447.326,0,0
346339.65,41.6006,-446.521,0,0
346599.975,41.6386,-445.68,0,0
346860,41.7036,-444.909,0,0
347121,41.7672,-444.071,0,0
347381,41.8241,-443.258,0,0
347641,41.9108,-442.492,0,0
347902,42.0064,-441.708,0,0
348162,42.0893,-440.944,0,0
348422,42.1452,-440.126,0,0
348683,42.2557,-439.357,0,0
348943,42.4068,-438.601,0,0
349203,42.5511,-437.814,0,0
349464,42.6714,-437.062,0,0
349724,42.8194,-436.339,0,0
349984,42.9939,-435.582,0,0
350245,43.2569,-434.813,0,0
350505,43.3944,-434.106,0,0
350765,43.6546,-433.393,0,0
351025,43.8581,-432.756,0,0
351286,44.1141,-432.079,0,0
351546,44.3285,-431.46,0,0
351806,44.6175,-430.833,0,0
352067,44.8745,-430.199,0,0
352327,45.0474,-429.646,0,0
352587,45.3215,-429.073,0,0
352848,45.5316,-428.553,0,0
353108,45.759,-428.018,0,0
353368,46.0035,-427.472,0,0
353629,46.223,-426.969,0,0
353889,46.4076,-426.441,0,0
354149,46.6147,-425.947,0,0
354410,46.7933,-425.473,0,0
354670,47.0013,-424.95,0,0
354930,47.1302,-424.45,0,0
355191,47.3845,-424.007,0,0
355451,47.5862,-423.545,0,0
355711,47.7709,-423.117,0,0
355972,47.9398,-422.679,0,0
356232,48.0937,-422.255,0,0
356492,48.2332,-421.867,0,0
356753,48.4016,-421.424,0,0
357013,48.5133,-421.02,0,0
357273,48.6809,-420.589,0,0
357534,48.7793,-420.143,0,0
357794,48.8924,-419.759,0,0
358054,49.0122,-419.385,0,0
358315,49.0838,-418.939,0,0
358575,49.2347,-418.526,0,0
358835,49.3187,-418.141,0,0
359096,49.3809,-417.751,0,0
359356,49.5161,-417.298,0,0
359616,49.6529,-416.893,0,0
359877,49.7189,-416.425,0,0
360137,49.858,-416.02,0,0
360397,49.9243,-415.606,0,0
360658,50.0463,-415.17,0,0
360918,50.1103,-414.803,0,0
361178,50.2122,-414.401,0,0
361438,50.3126,-413.993,0,0
361699,50.4204,-413.656,0,0
361959,50.4815,-413.281,0,0
362219,50.5871,-412.887,0,0
362480,50.6824,-412.575,0,0
362740.1,50.7584,-412.198,0,0
363000.425,50.8056,-411.866,0,0
363260.75,50.8468,-411.467,0,0
363521.075,50.9105,-411.108,0,0
363781.4,50.9664,-410.752,0,0
364041.725,50.953,-410.35,0,0
364302.05,51.0154,-410.003,0,0
364562.375,51.0831,-409.64,0,0
364822.7,51.1034,-409.245,0,0
365083.025,51.1264,-408.88,0,0
365343.35,51.1562,-408.546,0,0
365603.675,51.174,-408.19,0,0
365864.0,51.227,-407.821,0,0
366124.325,51.2251,-407.413,0,0
366384.65,51.2124,-407.023,0,0
366644.975,51.2378,-406.622,0,0
366905.3,51.2178,-406.246,0,0
367165.625,51.2448,-405.805,0,0
367425.95,51.2823,-405.43,0,0
367686.275,51.2951,-405.001,0,0
367946.6,51.2674,-404.57,0,0
368206.925,51.33,-404.149,0,0
368467.25,51.3382,-403.69,0,0
368727.575,51.4011,-403.254,0,0
368987.9,51.4182,-402.81,0,0
369248.225,51.4967,-402.36,0,0
369508.55,51.6722,-401.881,0,0
369768.875,51.7915,-401.431,0,0
370029.2,51.9794,-400.999,0,0
370289.525,52.2004,-400.576,0,0
370549.85,52.4195,-400.238,0,0
370810.175,52.6291,-399.94,0,0
371070.5,52.8622,-399.652,0,0
371330.825,53.03,-399.433,0,0
371591.15,53.1789,-399.248,0,0
371851.475,53.3255,-399.049,0,0
372111.8,53.4654,-398.904,0,0
372372.125,53.5105,-398.765,0,0
372632.45,53.6224,-398.664,0,0
372892.775,53.6145,-398.533,0,0
373153.1,53.6197,-398.387,0,0
373413.425,53.5525,-398.277,0,0
373673.75,53.5004,-398.156,0,0
373934.075,53.3849,-398.041,0,0
374194.4,53.224,-397.907,0,0
374454.725,53.0972,-397.748,0,0
374715.05,52.8961,-397.549,0,0
374975.375,52.6367,-397.378,0,0
375235.7,52.4077,-397.052,0,0
375496.025,52.1445,-396.743,0,0
375756.35,51.9278,-396.39,0,0
376016.675,51.7136,-396.027,0,0
376277.0,51.5405,-395.606,0,0
376537.325,51.4111,-395.17,0,0
376797.65,51.266,-394.755,0,0
377057.975,51.2232,-394.386,0,0
377318.3,51.1749,-394.025,0,0
377578.625,51.1075,-393.679,0,0
377838.95,51.0085,-393.427,0,0
378099.275,50.8782,-393.096,0,0
378359.6,50.696,-392.835,0,0
378619.925,50.4981,-392.471,0,0
378880,50.2433,-392.139,0,0
379141,49.99,-391.72,0,0
379401,49.7464,-391.251,0,0
379661,49.5113,-390.717,0,0
379922,49.3617,-390.098,0,0
380182,49.2299,-389.491,0,0
380442,49.2319,-388.911,0,0
380703,49.2829,-388.276,0,0
380963,49.4317,-387.768,0,0
381223,49.6059,-387.304,0,0
381483,49.802,-386.932,0,0
381744,49.9856,-386.667,0,0
382004,50.1343,-386.421,0,0
382264,50.2215,-386.271,0,0
382525,50.2104,-386.129,0,0
382785,50.1507,-385.978,0,0
383045,50.0118,-385.83,0,0
383306,49.8955,-385.672,0,0
383566,49.6927,-385.525,0,0
383826,49.5187,-385.337,0,0
384087,49.2583,-385.149,0,0
384347,48.9984,-384.867,0,0
384607,48.6939,-384.643,0,0
384868,48.3437,-384.308,0,0
385128,48.0219,-383.999,0,0
385388,47.683,-383.611,0,0
385649,47.3314,-383.188,0,0
385909,47.0473,-382.741,0,0
386169,46.6753,-382.31,0,0
386430,46.3701,-381.783,0,0
386690,46.045,-381.311,0,0
386950,45.7529,-380.736,0,0
387211,45.453,-380.17,0,0
387471,45.2037,-379.579,0,0
387731,44.9513,-378.985,0,0
387992,44.6803,-378.357,0,0
388252,44.4739,-377.709,0,0
388512,44.3524,-377.046,0,0
388773,44.1791,-376.4,0,0
389033,44.0498,-375.718,0,0
389293,43.9465,-375.068,0,0
389554,43.8954,-374.419,0,0
389814,43.8297,-373.799,0,0
390074,43.7995,-373.184,0,0
390335,43.7954,-372.55,0,0
390595,43.7766,-371.975,0,0
390855,43.7487,-371.41,0,0
391116,43.6999,-370.856,0,0
391376,43.6819,-370.259,0,0
391636,43.6838,-369.706,0,0
391896,43.6503,-369.137,0,0
392157,43.6483,-368.583,0,0
392417,43.6408,-368.015,0,0
392677,43.5715,-367.457,0,0
392938,43.5719,-366.933,0,0
393198,43.5473,-366.375,0,0
393458,43.5151,-365.852,0,0
393719,43.482,-365.254,0,0
393979,43.4563,-364.681,0,0
394239,43.4234,-364.104,0,0
394500,43.3983,-363.495,0,0
394760.05,43.4028,-362.894,0,0
395020.375,43.4435,-362.294,0,0
395280.7,43.4891,-361.718,0,0
395541.025,43.4828,-361.084,0,0
395801.35,43.5723,-360.477,0,0
396061.675,43.608,-359.897,0,0
396322.0,43.6985,-359.33,0,0
396582.325,43.7736,-358.779,0,0
396842.65,43.8877,-358.24,0,0
397102.975,43.9644,-357.697,0,0
397363.3,44.0423,-357.134,0,0
397623.625,44.1347,-356.613,0,0
397883.95,44.2084,-356.08,0,0
398144.275,44.2827,-355.563,0,0
398404.6,44.3698,-355.016,0,0
398664.925,44.425,-354.517,0,0
398925.25,44.5194,-353.995,0,0
399185.575,44.5996,-353.483,0,0
399445.9,44.6756,-352.946,0,0
399706.225,44.7451,-352.463,0,0
399966.55,44.8094,-351.933,0,0
400006.6,44.8341,-351.838,0,0