File: Accelerated corrosion test data/2025-10-20_18-00-03/sample_3.csv
Frequency (Hz),Impedance (ohms),Phase (Radians),Temperature (C),Humidity (%)
10000.0,252.433,-11893.4,0,0
10260.325,246.45,-11593.4,0,0
10520.65,240.748,-11308.4,0,0
10780.975,237.187,-11036.2,0,0
11041.3,230.279,-10782.2,0,0
11301.625,225.164,-10534.8,0,0
11561.95,220.582,-10298.9,0,0
11822.275,215.596,-10073,0,0
12082.6,213.304,-9858,0,0
12342.925,212.2,-9650.84,0,0
12603.25,204.073,-9454.32,0,0
12863.575,200.243,-9262.49,0,0
13123.9,201.635,-9078.22,0,0
13384.225,193.683,-8908.29,0,0
13644.55,191.231,-8738.2,0,0
13904.875,187.067,-8573.59,0,0
14165.2,186.16,-8417.28,0,0
14425.525,182.707,-8264.55,0,0
14685.8,179.33,-8118.4,0,0
14946.175,177.222,-7978.22,0,0
15206.5,175.449,-7835.6,0,0
15466.825,185.248,-7697.48,0,0
15727.15,194.56,-7596.36,0,0
15987.5,171.577,-7480.72,0,0
16247.8,168.294,-7351.99,0,0
16508.125,161.953,-7237.22,0,0
16768.45,169.711,-7116.2,0,0
17028.775,158.885,-7016.36,0,0
17289.1,165.43,-6902.56,0,0
17549.425,157.122,-6809.25,0,0
17809.75,158.49,-6705.83,0,0
18070.075,162.155,-6618.66,0,0
18330.4,152.585,-6522.04,0,0
18590.725,149.213,-6430.2,0,0
18851.05,146.714,-6339.36,0,0
19111.375,146.554,-6249.74,0,0
19371.7,146.307,-6164.67,0,0
19632.025,147.992,-6079.62,0,0
19892.35,148.873,-6001.59,0,0
20152.675,149.477,-5921.74,0,0
20413.0,164.698,-5847.88,0,0
20673.3,165.835,-5778.02,0,0
20933.65,164.621,-5725.22,0,0
21193.975,162.39,-5660.5,0,0
21454.3,145.256,-5597.6,0,0
21714.625,139.984,-5521.05,0,0
21974.9,146.212,-5457.82,0,0
22235.275,139.189,-5396.37,0,0
22495.6,136.675,-5333.9,0,0
22755.925,129.507,-5272.98,0,0
23016.25,128.639,-5213.24,0,0
23276.6,128.883,-5150.48,0,0
23536.9,129.721,-5104.87,0,0
23797.225,121.863,-5045.27,0,0
24057.55,119.912,-4987.32,0,0
24317.875,120.837,-4931.85,0,0
24578.2,117.195,-4881.22,0,0
24838.525,119.435,-4828.33,0,0
25098.85,115.802,-4780.64,0,0
25359.175,114.737,-4729.69,0,0
25619.5,114.147,-4681.95,0,0
25879.8,111.762,-4634.92,0,0
26140.1,109.36,-4587.52,0,0
26400.5,108.837,-4539.98,0,0
26660.8,108.727,-4493.96,0,0
26921.1,109.613,-4449.64,0,0
27181.4,109.545,-4409.11,0,0
27441.8,107.918,-4365.18,0,0
27702.1,109.158,-4325.27,0,0
27962.4,106.01,-4284.27,0,0
28222.7,104.469,-4240.53,0,0
28483.1,112.652,-4198.52,0,0
28743.4,115.711,-4164.23,0,0
29003.7,116.407,-4135.65,0,0
29264,107.456,-4100.68,0,0
29524.4,110.297,-4063,0,0
29784.7,104.936,-4027.79,0,0
30045,102.842,-3993.34,0,0
30305.3,101.599,-3955.1,0,0
30565.7,103,-3922.25,0,0
30826,102.157,-3889.25,0,0
31086.3,103.855,-3856.33,0,0
31346.6,99.9933,-3826.03,0,0
31607,98.4258,-3791.47,0,0
31867.3,99.0664,-3756.75,0,0
32127.6,102.401,-3722.36,0,0
32387.9,112.08,-3695.52,0,0
32648.3,115.314,-3678.79,0,0
32908.6,103.815,-3653.36,0,0
33168.9,101.797,-3625.02,0,0
33429.2,99.3471,-3598.99,0,0
33689.6,93.6275,-3570.43,0,0
33949.9,91.5042,-3539.91,0,0
34210.2,91.1383,-3511.56,0,0
34470.5,90.4537,-3485.65,0,0
34730.9,88.3529,-3459.06,0,0
34991.2,87.0166,-3432.3,0,0
35251.5,86.3876,-3406.13,0,0
35511.8,85.3946,-3380.39,0,0
35772.2,84.6674,-3354.93,0,0
36032.5,83.8485,-3330.44,0,0
36292.8,83.1376,-3305.55,0,0
36553.1,82.9889,-3281.55,0,0
36813.5,81.7636,-3257.82,0,0
37073.8,81.3399,-3234.32,0,0
37334.1,80.7316,-3211.08,0,0
37594.4,80.3415,-3188.3,0,0
37854.8,79.8119,-3166.02,0,0
38115.1,79.3009,-3143.84,0,0
38375.4,78.7579,-3121.75,0,0
38635.7,78.374,-3100.25,0,0
38896.1,77.9001,-3078.82,0,0
39156.4,77.7756,-3057.86,0,0
39416.7,77.4776,-3037.49,0,0
39677,76.5702,-3017.26,0,0
39937.4,76.0706,-2996.66,0,0
40197.7,75.7945,-2976.67,0,0
40458,75.3086,-2956.8,0,0
40718.3,75.0319,-2937.42,0,0
40978.7,74.7906,-2918.08,0,0
41239,74.6952,-2898.98,0,0
41499.3,74.7432,-2880.25,0,0
41759.6,75.0969,-2861.93,0,0
42020,74.4168,-2844.28,0,0
42280.275,74.0305,-2826.17,0,0
42540.6,73.5336,-2808.21,0,0
42800.925,73.6125,-2791.05,0,0
43061.25,72.9987,-2773.92,0,0
43321.575,72.4731,-2756.37,0,0
43581.9,72.0905,-2739.43,0,0
43842.225,72.2834,-2722.24,0,0
44102.55,72.368,-2705.64,0,0
44362.875,72.269,-2690.13,0,0
44623.2,71.8067,-2673.81,0,0
44883.525,71.7477,-2657.76,0,0
45143.85,71.3519,-2641.97,0,0
45404.175,70.7114,-2626.41,0,0
45664.5,70.3651,-2610.41,0,0
45924.825,71.6309,-2595.12,0,0
46185.15,70.484,-2580.87,0,0
46445.475,69.8145,-2565.55,0,0
46705.8,70.2818,-2550,0,0
46966.125,70.4241,-2535.69,0,0
47226.45,69.8472,-2521.4,0,0
47486.775,70.1105,-2506.87,0,0
47747.1,70.7313,-2492.26,0,0
48007.425,70.4716,-2479.52,0,0
48267.75,70.7713,-2466.05,0,0
48528.075,70.0039,-2452.96,0,0
48788.4,69.6906,-2439.75,0,0
49048.725,68.7725,-2426.32,0,0
49309.05,68.2291,-2412.69,0,0
49569.375,68.2081,-2399.57,0,0
49829.7,67.7685,-2386.71,0,0
50090.025,67.325,-2373.8,0,0
50350.35,66.9031,-2360.54,0,0
50610.675,66.6658,-2347.45,0,0
50871.0,66.6497,-2334.77,0,0
51131.325,66.4484,-2322.3,0,0
51391.65,66.3062,-2309.6,0,0
51651.975,66.5571,-2297.37,0,0
51912.3,66.2973,-2285.44,0,0
52172.625,66.1278,-2273.38,0,0
52432.95,66.0869,-2261.05,0,0
52693.275,66.2772,-2248.98,0,0
52953.6,66.6281,-2237.21,0,0
53213.925,67.1922,-2225.46,0,0
53474.25,67.8807,-2214.44,0,0
53734.575,68.091,-2203.59,0,0
53994.9,68.2968,-2192.47,0,0
54255.225,69.3364,-2181.68,0,0
54515.55,70.0815,-2172.13,0,0
54775.875,69.366,-2162.86,0,0
55036.2,68.9658,-2152.74,0,0
55296.525,68.241,-2143.21,0,0
55556.85,67.1074,-2133.71,0,0
55817.175,65.2505,-2123.08,0,0
56077.5,64.5923,-2112.38,0,0
56337.825,63.6443,-2101.91,0,0
56598.15,62.6832,-2091.17,0,0
56858.475,61.8788,-2080.64,0,0
57118.8,61.4183,-2069.53,0,0
57379.125,61.2345,-2058.89,0,0
57639.45,61.0944,-2048.35,0,0
57899.775,61.308,-2038.06,0,0
58160.1,61.375,-2028.07,0,0
58420.4,61.1185,-2017.98,0,0
58680.7,61.1868,-2007.86,0,0
58941.1,61.3396,-1997.9,0,0
59201.4,61.4418,-1987.96,0,0
59461.7,61.8084,-1978.35,0,0
59722,61.9914,-1968.86,0,0
59982.4,62.2815,-1959.38,0,0
60242.7,62.5519,-1950,0,0
60503,62.8378,-1940.7,0,0
60763.3,63.1124,-1931.27,0,0
61023.7,63.3032,-1922.17,0,0
61284,63.688,-1912.9,0,0
61544.3,64.2765,-1903.82,0,0
61804.6,64.8424,-1895.13,0,0
62065,65.0761,-1886.14,0,0
62325.3,65.6298,-1877.19,0,0
62585.6,66.1668,-1868.45,0,0
62845.9,66.633,-1859.37,0,0
63106.3,67.7441,-1850.25,0,0
63366.6,68.799,-1842.08,0,0
63626.9,69.9539,-1833.21,0,0
63887.2,70.9211,-1824.9,0,0
64147.6,72.3097,-1815.69,0,0
64407.9,75.1463,-1807.16,0,0
64668.2,77.6396,-1799.83,0,0
64928.5,80.4673,-1791.91,0,0
65188.9,84.3651,-1786.36,0,0
65449.2,86.8625,-1781.38,0,0
65709.5,89.1641,-1776.54,0,0
65969.8,92.7096,-1773.7,0,0
66230.2,92.1832,-1774.51,0,0
66490.5,85.9488,-1772.32,0,0
66750.8,80.9622,-1765.34,0,0
67011.1,78.154,-1756.87,0,0
67271.5,75.7133,-1748.56,0,0
67531.8,74.7594,-1739.79,0,0
67792.1,74.6576,-1731.35,0,0
68052.4,75.2013,-1723.39,0,0
68312.8,76.3621,-1716.44,0,0
68573.1,76.1686,-1710.49,0,0
68833.4,76.3237,-1703.44,0,0
69093.7,77.149,-1696.95,0,0
69354.1,77.5972,-1691.32,0,0
69614.4,77.7334,-1685.94,0,0
69874.7,76.9123,-1680.7,0,0
70135,75.963,-1675.07,0,0
70395.4,75.2318,-1669.12,0,0
70655.7,73.9671,-1663.14,0,0
70916,72.5748,-1656.96,0,0
71176.3,71.5616,-1650.18,0,0
71436.7,70.9102,-1643.49,0,0
71697,70.0685,-1636.64,0,0
71957.3,70.1631,-1629.61,0,0
72217.6,70.4089,-1623.29,0,0
72478,70.6423,-1617.22,0,0
72738.3,70.7635,-1611.54,0,0
72998.6,70.4024,-1606.08,0,0
73258.9,69.9331,-1600.34,0,0
73519.3,69.5771,-1594.62,0,0
73779.6,69.2998,-1589.09,0,0
74039.9,68.6637,-1583.71,0,0
74300.225,67.8625,-1578.09,0,0
74560.55,67.0964,-1572.43,0,0
74820.875,66.3328,-1566.76,0,0
75081.2,65.5341,-1561.04,0,0
75341.525,64.7532,-1555.24,0,0
75601.85,63.9357,-1549.47,0,0
75862.175,63.1502,-1543.7,0,0
76122.5,62.4176,-1537.92,0,0
76382.825,61.7238,-1531.82,0,0
76643.15,61.1417,-1525.97,0,0
76903.475,60.4961,-1520.11,0,0
77163.8,60.0487,-1514.33,0,0
77424.125,59.4837,-1508.59,0,0
77684.45,58.9351,-1502.82,0,0
77944.775,58.3999,-1497.08,0,0
78205.1,57.8485,-1491.28,0,0
78465.425,57.397,-1485.54,0,0
78725.75,56.952,-1479.85,0,0
78986.075,56.4835,-1474.13,0,0
79246.4,56.05,-1468.38,0,0
79506.725,55.6798,-1462.7,0,0
79767.05,55.3325,-1457.03,0,0
80027.375,55.1085,-1451.36,0,0
80287.7,54.7938,-1445.83,0,0
80548.025,54.5944,-1440.28,0,0
80808.35,54.3295,-1434.78,0,0
81068.675,54.0631,-1429.28,0,0
81329.0,53.8942,-1423.79,0,0
81589.325,53.7231,-1418.4,0,0
81849.65,53.5584,-1412.99,0,0
82109.975,53.3626,-1407.59,0,0
82370.3,53.2793,-1402.24,0,0
82630.625,53.1896,-1396.96,0,0
82890.95,53.1235,-1391.65,0,0
83151.275,53.0305,-1386.46,0,0
83411.6,52.8542,-1381.28,0,0
83671.925,52.8285,-1376.09,0,0
83932.25,52.7489,-1370.93,0,0
84192.575,52.7334,-1365.78,0,0
84452.9,52.6781,-1360.73,0,0
84713.225,52.6535,-1355.68,0,0
84973.55,52.578,-1350.63,0,0
85233.875,52.5878,-1345.63,0,0
85494.2,52.6201,-1340.64,0,0
85754.525,52.5962,-1335.7,0,0
86014.85,52.6163,-1330.78,0,0
86275.175,52.5908,-1325.93,0,0
86535.5,52.5709,-1321.02,0,0
86795.825,52.6522,-1316.14,0,0
87056.15,52.6789,-1311.31,0,0
87316.475,52.7692,-1306.39,0,0
87576.8,52.8613,-1301.63,0,0
87837.125,53.0151,-1296.81,0,0
88097.45,53.1299,-1292.17,0,0
88357.775,53.1362,-1287.31,0,0
88618.1,53.2565,-1282.51,0,0
88878.425,53.5783,-1277.65,0,0
89138.75,53.9748,-1272.87,0,0
89399.075,54.3266,-1268.22,0,0
89659.4,55.0178,-1263.82,0,0
89919.725,55.352,-1259.26,0,0
90180,55.7639,-1255.02,0,0
90440.4,56.0502,-1250.77,0,0
90700.7,56.4058,-1246.44,0,0
90961,56.7,-1242.07,0,0
91221.3,57.209,-1237.9,0,0
91481.7,57.572,-1233.75,0,0
91742,57.8951,-1229.67,0,0
92002.3,58.3467,-1225.51,0,0
92262.6,58.7953,-1221.33,0,0
92523,59.6473,-1217.35,0,0
92783.3,60.0202,-1213.88,0,0
93043.6,60.2601,-1210.01,0,0
93303.9,60.9136,-1206.2,0,0
93564.3,61.6131,-1202.74,0,0
93824.6,62.1441,-1199.62,0,0
94084.9,62.5991,-1196.81,0,0
94345.2,62.2663,-1194.24,0,0
94605.6,61.697,-1191.27,0,0
94865.9,61.0856,-1188.23,0,0
95126.2,59.9345,-1185.23,0,0
95386.5,58.5268,-1181.4,0,0
95646.9,57.4559,-1177.18,0,0
95907.2,56.7195,-1172.98,0,0
96167.5,56.0344,-1168.59,0,0
96427.8,55.6555,-1163.98,0,0
96688.2,55.6498,-1159.71,0,0
96948.5,55.5967,-1155.56,0,0
97208.8,55.4916,-1151.49,0,0
97469.1,55.383,-1147.49,0,0
97729.5,55.3036,-1143.36,0,0
97989.8,55.3262,-1139.36,0,0
98250.1,55.267,-1135.36,0,0
98510.4,55.2803,-1131.35,0,0
98770.8,55.3726,-1127.52,0,0
99031.1,55.2632,-1123.76,0,0
99291.4,55.168,-1119.87,0,0
99551.7,55.1128,-1115.95,0,0
99812.1,55.0824,-1112.04,0,0
100072,55.0443,-1108.13,0,0
100333,55.0153,-1104.25,0,0
100593,54.9034,-1100.34,0,0
100853,54.8275,-1096.3,0,0
101114,54.8973,-1092.19,0,0
101374,55.0151,-1088.2,0,0
101634,55.1155,-1084.06,0,0
101895,55.4522,-1079.92,0,0
102155,55.8128,-1075.77,0,0
102415,56.4242,-1071.65,0,0
102676,57.3052,-1067.66,0,0
102936,58.2752,-1064.09,0,0
103196,59.0062,-1060.78,0,0
103457,59.4497,-1057.46,0,0
103717,60.0383,-1053.87,0,0
103977,60.8226,-1050.4,0,0
104238,61.8058,-1047.12,0,0
104498,62.7682,-1044.39,0,0
104758,63.2198,-1041.88,0,0
105019,63.385,-1039.22,0,0
105279,63.4197,-1036.34,0,0
105539,63.6436,-1033.38,0,0
105800,63.7808,-1030.72,0,0
106060,63.7139,-1028.08,0,0
106320.175,63.386,-1025.32,0,0
106580.5,63.0548,-1022.28,0,0
106840.825,62.8194,-1019.38,0,0
107101.15,62.2878,-1016.31,0,0
107361.475,61.9466,-1012.98,0,0
107621.8,61.6417,-1009.84,0,0
107882.125,61.2355,-1006.57,0,0
108142.45,60.9652,-1003.23,0,0
108402.775,60.5915,-999.977,0,0
108663.1,60.0489,-996.481,0,0
108923.425,59.6862,-992.832,0,0
109183.75,59.5519,-988.916,0,0
109444.075,59.5703,-985.277,0,0
109704.4,59.6512,-981.715,0,0
109964.725,59.565,-978.153,0,0
110225.05,59.5691,-974.442,0,0
110485.375,59.706,-970.609,0,0
110745.7,60.0915,-966.766,0,0
111006.025,60.6923,-963.064,0,0
111266.35,61.1403,-959.738,0,0
111526.675,61.6434,-956.322,0,0
111787.0,62.2432,-953.004,0,0
112047.325,62.6141,-949.807,0,0
112307.65,63.0601,-946.688,0,0
112567.975,63.4676,-943.494,0,0
112828.3,63.7542,-940.366,0,0
113088.625,64.2062,-937.282,0,0
113348.95,64.313,-934.362,0,0
113609.275,64.4573,-931.077,0,0
113869.6,64.676,-927.793,0,0
114129.925,64.9738,-924.53,0,0
114390.25,65.1306,-921.288,0,0
114650.575,65.326,-917.88,0,0
114910.9,65.6469,-914.429,0,0
115171.225,66.0774,-910.89,0,0
115431.55,66.6854,-907.505,0,0
115691.875,67.2191,-904.175,0,0
115952.2,67.8183,-900.76,0,0
116212.525,68.455,-897.411,0,0
116472.85,69.1787,-893.907,0,0
116733.175,70.0957,-890.603,0,0
116993.5,70.9488,-887.446,0,0
117253.825,71.7116,-884.146,0,0
117514.15,72.5274,-880.612,0,0
117774.475,73.9776,-876.921,0,0
118034.8,75.967,-873.892,0,0
118295.125,77.5975,-871.417,0,0
118555.45,78.9362,-869.089,0,0
118815.775,79.9001,-866.657,0,0
119076.1,81.1904,-863.726,0,0
119336.425,82.8891,-861.188,0,0
119596.75,84.8071,-858.979,0,0
119857.075,86.7783,-857.223,0,0
120117.4,88.7644,-856.227,0,0
120377.725,89.7303,-856.116,0,0
120638.05,89.7836,-855.397,0,0
120898.375,89.7191,-854.731,0,0
121158.7,88.8415,-853.742,0,0
121419.025,87.7692,-852.036,0,0
121679.35,86.7075,-849.741,0,0
121939.675,85.9924,-846.969,0,0
122200.0,85.7007,-844.086,0,0
122460,85.5741,-841.227,0,0
122721,85.7039,-838.301,0,0
122981,86.0822,-835.479,0,0
123241,86.597,-832.889,0,0
123502,87.0101,-830.58,0,0
123762,87.2567,-828.137,0,0
124022,87.652,-825.634,0,0
124283,88.1414,-823.299,0,0
124543,88.5624,-821.044,0,0
124803,88.9397,-818.786,0,0
125064,89.2927,-816.553,0,0
125324,89.7579,-814.353,0,0
125584,90.1934,-812.246,0,0
125845,90.6298,-810.349,0,0
126105,90.8556,-808.516,0,0
126365,90.8623,-806.679,0,0
126626,90.8349,-804.698,0,0
126886,90.767,-802.618,0,0
127146,90.7286,-800.487,0,0
127406,90.9333,-798.492,0,0
127667,90.7976,-796.574,0,0
127927,90.5359,-794.614,0,0
128187,90.2469,-792.65,0,0
128448,89.7721,-790.485,0,0
128708,89.2321,-788.056,0,0
128968,88.9315,-785.405,0,0
129229,88.888,-782.839,0,0
129489,88.8478,-780.434,0,0
129749,88.6578,-778.001,0,0
130010,88.5464,-775.181,0,0
130270,88.8837,-772.503,0,0
130530,89.2808,-770.188,0,0
130791,89.5983,-768.044,0,0
131051,89.7774,-766.068,0,0
131311,89.6637,-764.119,0,0
131572,89.473,-762.11,0,0
131832,89.102,-759.948,0,0
132092,88.8203,-757.656,0,0
132353,88.5198,-755.258,0,0
132613,88.3454,-752.802,0,0
132873,88.2164,-750.487,0,0
133134,87.9843,-748.202,0,0
133394,87.726,-745.879,0,0
133654,87.3652,-743.527,0,0
133915,86.927,-741.063,0,0
134175,86.6,-738.436,0,0
134435,86.4496,-735.866,0,0
134696,86.2058,-733.389,0,0
134956,85.8479,-730.872,0,0
135216,85.5434,-728.193,0,0
135477,85.3661,-725.554,0,0
135737,85.0795,-723.015,0,0
135997,84.7007,-720.448,0,0
136258,84.2431,-717.654,0,0
136518,83.8704,-714.725,0,0
136778,83.5929,-711.697,0,0
137039,83.4797,-708.618,0,0
137299,83.4499,-705.542,0,0
137559,83.6054,-702.445,0,0
137819,83.9271,-699.458,0,0
138080,84.2483,-696.709,0,0
138340.125,84.5345,-694.012,0,0
138600.45,84.8154,-691.405,0,0
138860.775,85.0238,-688.951,0,0
139121.1,84.9883,-686.543,0,0
139381.425,84.8462,-684.001,0,0
139641.75,84.6539,-681.375,0,0
139902.075,84.437,-678.586,0,0
140162.4,84.4312,-675.743,0,0
140422.725,84.416,-673.052,0,0
140683.05,84.271,-670.413,0,0
140943.375,83.996,-667.664,0,0
141203.7,83.7346,-664.863,0,0
141464.025,83.3764,-661.977,0,0
141724.35,82.9606,-658.917,0,0
141984.675,82.6764,-655.693,0,0
142245.0,82.4994,-652.448,0,0
142505.325,82.3201,-649.178,0,0
142765.65,82.1827,-645.848,0,0
143025.975,82.1071,-642.418,0,0
143286.3,82.1057,-638.978,0,0
143546.625,82.186,-635.542,0,0
143806.95,82.2732,-632.079,0,0
144067.275,82.3565,-628.534,0,0
144327.6,82.5432,-624.912,0,0
144587.925,82.83,-621.323,0,0
144848.25,83.1472,-617.7,0,0
145108.575,83.5368,-614.127,0,0
145368.9,83.908,-610.574,0,0
145629.225,84.251,-607.008,0,0
145889.55,84.5174,-603.321,0,0
146149.875,84.8803,-599.439,0,0
146410.2,85.5027,-595.506,0,0
146670.525,86.1783,-591.689,0,0
146930.85,86.8162,-587.806,0,0
147191.175,87.5909,-583.86,0,0
147451.5,88.4152,-579.914,0,0
147711.825,89.3453,-575.929,0,0
147972.15,90.3379,-571.979,0,0
148232.475,91.3644,-567.959,0,0
148492.8,92.4921,-563.917,0,0
148753.125,93.7222,-559.865,0,0
149013.45,95.003,-555.751,0,0
149273.775,96.4068,-551.531,0,0
149534.1,98.062,-547.283,0,0
149794.425,99.9742,-543.106,0,0
150054.75,102.015,-539.09,0,0
150315.075,104.177,-535.177,0,0
150575.4,106.413,-531.437,0,0
150835.725,108.694,-527.703,0,0
151096.05,111.074,-524.137,0,0
151356.375,113.495,-520.659,0,0
151616.7,116.021,-517.283,0,0
151877.025,118.65,-514.095,0,0
152137.35,121.202,-511.171,0,0
152397.675,123.638,-508.355,0,0
152658.0,125.978,-505.59,0,0
152918.325,128.276,-502.876,0,0
153178.65,130.492,-500.287,0,0
153438.975,132.493,-497.682,0,0
153699.3,134.461,-494.91,0,0
153959.625,136.488,-492.116,0,0
154219.95,138.577,-489.358,0,0
154480,140.558,-486.816,0,0
154741,142.176,-484.112,0,0
155001,143.824,-480.983,0,0
155261,145.789,-477.841,0,0
155522,147.857,-474.724,0,0
155782,149.92,-471.654,0,0
156042,151.898,-468.529,0,0
156303,153.908,-465.238,0,0
156563,156.057,-461.738,0,0
156823,158.535,-457.974,0,0
157084,161.544,-454.403,0,0
157344,164.85,-451.091,0,0
157604,168.51,-448.348,0,0
157864,172.081,-446.35,0,0
158125,174.877,-445.027,0,0
158385,176.735,-443.669,0,0
158645,178.048,-441.698,0,0
158906,179.377,-439.436,0,0
159166,180.123,-436.805,0,0
159426,180.644,-433.035,0,0
159687,181.645,-428.88,0,0
159947,182.891,-423.987,0,0
160207,184.862,-418.481,0,0
160468,188.096,-412.979,0,0
160728,191.727,-408.363,0,0
160988,194.696,-404.14,0,0
161249,197.239,-398.658,0,0
161509,201.344,-392.419,0,0
161769,206.494,-386.817,0,0
162030,211.923,-381.95,0,0
162290,217.158,-377.197,0,0
162550,222.788,-372.201,0,0
162811,228.687,-367.614,0,0
163071,234.666,-362.542,0,0
163331,241.587,-356.971,0,0
163592,249.97,-351.709,0,0
163852,259.261,-347.808,0,0
164112,268.498,-344.777,0,0
164373,277.865,-342.047,0,0
164633,287.748,-339.653,0,0
164893,298.435,-337.948,0,0
165154,309.742,-337.7,0,0
165414,320.753,-338.741,0,0
165674,331.211,-341.01,0,0
165935,340.976,-343.608,0,0
166195,350.954,-346.384,0,0
166455,361.151,-350.491,0,0
166716,370.553,-355.84,0,0
166976,379.178,-362.109,0,0
167236,386.509,-369.042,0,0
167497,392.931,-376.037,0,0
167757,398.452,-383.044,0,0
168017,403.479,-390.027,0,0
168277,407.836,-397.184,0,0
168538,411.63,-404.293,0,0
168798,415.126,-411.368,0,0
169058,418.078,-418.922,0,0
169319,419.974,-427.159,0,0
169579,420.368,-435.28,0,0
169839,419.191,-442.907,0,0
170100,416.555,-448.975,0,0
170360.075,413.865,-453.034,0,0
170620.4,411.999,-455.86,0,0
170880.725,410.902,-458.677,0,0
171141.05,409.398,-461.205,0,0
171401.375,408.404,-462.556,0,0
171661.7,408.543,-464.008,0,0
171922.025,408.737,-465.921,0,0
172182.35,408.748,-467.901,0,0
172442.675,408.477,-469.251,0,0
172703.0,409.197,-469.655,0,0
172963.325,411.525,-470.848,0,0
173223.65,413.622,-473.75,0,0
173483.975,414.498,-476.93,0,0
173744.3,414.863,-479.534,0,0
174004.625,415.421,-481.437,0,0
174264.95,417.04,-483.203,0,0
174525.275,419.275,-486.31,0,0
174785.6,420.313,-490.416,0,0
175045.925,420.482,-493.741,0,0
175306.25,421.593,-496.534,0,0
175566.575,423.433,-500.255,0,0
175826.9,424.827,-505.649,0,0
176087.225,424.692,-511.525,0,0
176347.55,423.936,-517.174,0,0
176607.875,422.541,-523.645,0,0
176868.2,419.67,-530.754,0,0
177128.525,413.968,-537.41,0,0
177388.85,406.636,-541.373,0,0
177649.175,399.983,-543.004,0,0
177909.5,394.116,-544.302,0,0
178169.825,387.326,-544.991,0,0
178430.15,380.619,-543.438,0,0
178690.475,375.383,-540.431,0,0
178950.8,371.55,-537.077,0,0
179211.125,368.648,-533.682,0,0
179471.45,366.624,-530.214,0,0
179731.775,365.456,-526.75,0,0
179992.1,365.251,-523.64,0,0
180252.425,365.509,-521.355,0,0
180512.75,365.807,-519.196,0,0
180773.075,366.742,-517.297,0,0
181033.4,368.003,-516.176,0,0
181293.725,369.461,-515.702,0,0
181554.05,370.529,-515.788,0,0
181814.375,371.639,-516.262,0,0
182074.7,372.385,-517.837,0,0
182335.025,372.126,-519.604,0,0
182595.35,371.296,-521.305,0,0
182855.675,369.862,-522.827,0,0
183116.0,368.063,-524.023,0,0
183376.325,366.036,-525.07,0,0
183636.65,363.619,-525.902,0,0
183896.975,360.745,-526.325,0,0
184157.3,357.813,-526.126,0,0
184417.625,355.076,-525.941,0,0
184677.95,351.601,-525.731,0,0
184938.275,347.675,-524.434,0,0
185198.6,344.18,-522.397,0,0
185458.925,340.972,-519.946,0,0
185719.25,337.845,-517.224,0,0
185979.575,334.749,-513.887,0,0
186239.9,331.991,-509.81,0,0
186500,330.107,-505.068,0,0
186761,329.354,-500.23,0,0
187021,329.349,-496.023,0,0
187281,329.46,-492.333,0,0
187542,329.483,-488.818,0,0
187802,329.598,-485.299,0,0
188062,329.934,-481.744,0,0
188322,330.505,-478.482,0,0
188583,330.828,-475.489,0,0
188843,330.826,-472.227,0,0
189103,330.923,-468.405,0,0
189364,331.606,-464.211,0,0
189624,332.949,-460.147,0,0
189884,334.596,-456.358,0,0
190145,336.512,-452.836,0,0
190405,338.515,-449.646,0,0
190665,340.548,-446.654,0,0
190926,342.57,-443.9,0,0
191186,344.462,-441.297,0,0
191446,346.145,-438.803,0,0
191707,347.563,-436.131,0,0
191967,349.069,-433.163,0,0
192227,350.624,-430.118,0,0
192488,352.119,-426.748,0,0
192748,353.864,-422.952,0,0
193008,356.075,-418.901,0,0
193269,358.872,-414.611,0,0
193529,362.464,-410.49,0,0
193789,366.52,-406.927,0,0
194050,370.614,-403.813,0,0
194310,374.739,-400.863,0,0
194570,379.02,-397.983,0,0
194831,383.384,-395.287,0,0
195091,388.011,-392.489,0,0
195351,393.034,-389.709,0,0
195612,398.816,-387.018,0,0
195872,405.403,-385.099,0,0
196132,412.257,-384.323,0,0
196393,419.002,-384.562,0,0
196653,425.316,-385.814,0,0
196913,430.778,-388.005,0,0
197174,435.105,-389.956,0,0
197434,439.339,-391.655,0,0
197694,443.408,-393.836,0,0
197955,446.822,-396.333,0,0
198215,449.365,-398.642,0,0
198475,451.661,-400.543,0,0
198735,453.456,-402.648,0,0
198996,454.387,-403.973,0,0
199256,455.486,-404.372,0,0
199516,456.99,-404.575,0,0
199777,458.449,-404.897,0,0
200037,459.451,-405.023,0,0
200297,460.1,-404.506,0,0
200558,460.67,-402.918,0,0
200818,462.178,-400.313,0,0
201078,464.768,-397.537,0,0
201339,468.105,-395.013,0,0
201599,471.897,-392.735,0,0
201859,476.097,-390.544,0,0
202120,480.789,-388.431,0,0
202380.025,486.257,-386.465,0,0
202640.35,492.416,-385.435,0,0
202900.675,498.491,-385.318,0,0
203161.0,504.331,-385.517,0,0
203421.325,510.127,-385.976,0,0
203681.65,516.011,-386.59,0,0
203941.975,522.28,-387.645,0,0
204202.3,528.628,-389.421,0,0
204462.625,534.707,-392.325,0,0
204722.95,539.702,-395.688,0,0
204983.275,543.97,-399.113,0,0
205243.6,547.699,-402.476,0,0
205503.925,550.543,-405.386,0,0
205764.25,553.229,-407.627,0,0
206024.575,555.902,-409.564,0,0
206284.9,558.066,-411.102,0,0
206545.225,560.342,-411.57,0,0
206805.55,563.403,-411.166,0,0
207065.875,567.637,-410.565,0,0
207326.2,572.887,-410.448,0,0
207586.525,578.224,-410.881,0,0
207846.85,583.921,-411.219,0,0
208107.175,590.322,-411.715,0,0
208367.5,597.539,-412.921,0,0
208627.825,605.175,-415.229,0,0
208888.15,612.614,-418.643,0,0
209148.475,619.426,-422.712,0,0
209408.8,625.695,-426.933,0,0
209669.125,631.762,-431.079,0,0
209929.45,638.019,-435.527,0,0
210189.775,644.264,-440.253,0,0
210450.1,650.364,-445.329,0,0
210710.425,656.492,-450.905,0,0
210970.75,662.413,-456.827,0,0
211231.075,668.175,-463.294,0,0
211491.4,673.34,-470.166,0,0
211751.725,677.89,-477.099,0,0
212012.05,682.184,-483.767,0,0
212272.375,686.744,-490.42,0,0
212532.7,691.392,-497.305,0,0
212793.025,696.008,-504.686,0,0
213053.35,700.6,-512.7,0,0
213313.675,704.682,-521.393,0,0
213574.0,707.835,-530.535,0,0
213834.325,710.347,-539.6,0,0
214094.65,712.277,-548.562,0,0
214354.975,713.742,-557.128,0,0
214615.3,715.049,-565.75,0,0
214875.625,716.109,-574.137,0,0
215135.95,717.36,-582.385,0,0
215396.275,718.295,-591.006,0,0
215656.6,718.96,-599.789,0,0
215916.925,719.338,-608.489,0,0
216177.25,719.59,-617.233,0,0
216437.575,719.607,-626.221,0,0
216697.9,719.266,-635.394,0,0
216958.225,718.328,-644.694,0,0
217218.55,716.96,-653.899,0,0
217478.875,715.13,-663.187,0,0
217739.2,712.66,-672.324,0,0
217999.525,709.596,-681.056,0,0
218259.85,706.326,-689.215,0,0
218520,703.079,-697.161,0,0
218780,699.558,-704.662,0,0
219041,696.144,-711.932,0,0
219301,692.689,-719.048,0,0
219561,689.317,-725.984,0,0
219822,685.979,-732.93,0,0
220082,682.592,-739.992,0,0
220342,679.167,-747.115,0,0
220603,675.86,-754.521,0,0
220863,672.184,-762.287,0,0
221123,667.931,-770.291,0,0
221384,663.245,-778.302,0,0
221644,658.098,-786.504,0,0
221904,652.21,-794.875,0,0
222165,645.247,-803.105,0,0
222425,637.191,-810.74,0,0
222685,628.288,-817.226,0,0
222946,619.125,-822.835,0,0
223206,609.574,-827.764,0,0
223466,599.902,-830.879,0,0
223727,590.894,-833.037,0,0
223987,582.371,-834.821,0,0
224247,574.199,-835.944,0,0
224508,566.563,-836.155,0,0
224768,559.461,-836.041,0,0
225028,553.583,-835.624,0,0
225289,548.373,-835.674,0,0
225549,543.741,-835.777,0,0
225809,539.278,-836.168,0,0
226070,535.19,-836.785,0,0
226330,531.336,-837.678,0,0
226590,527.458,-838.808,0,0
226851,523.928,-840.024,0,0
227111,520.551,-841.944,0,0
227371,516.932,-844.658,0,0
227632,512.479,-847.652,0,0
227892,507.325,-850.188,0,0
228152,501.914,-852.299,0,0
228413,496.532,-853.998,0,0
228673,491.248,-855.509,0,0
228933,486.05,-856.865,0,0
229193,481.105,-858.058,0,0
229454,476.311,-859.493,0,0
229714,471.334,-861.162,0,0
229974,465.966,-862.939,0,0
230235,460.16,-864.345,0,0
230495,454.308,-865.42,0,0
230755,448.552,-866.184,0,0
231016,442.741,-866.633,0,0
231276,436.994,-866.852,0,0
231536,431.385,-866.909,0,0
231797,425.899,-866.787,0,0
232057,420.537,-866.612,0,0
232317,415.301,-866.245,0,0
232578,410.155,-865.734,0,0
232838,405.124,-865.296,0,0
233098,400.333,-864.866,0,0
233359,395.443,-864.356,0,0
233619,390.541,-863.761,0,0
233879,385.678,-863.113,0,0
234140,380.944,-862.366,0,0
234400,376.442,-861.517,0,0
234660.3,372.01,-860.757,0,0
234920.625,367.45,-860.217,0,0
235180.95,363.05,-859.565,0,0
235441.275,358.529,-859.15,0,0
235701.6,353.679,-858.761,0,0
235961.925,348.593,-858.191,0,0
236222.25,343.299,-857.151,0,0
236482.575,338.155,-855.87,0,0
236742.9,333.24,-854.379,0,0
237003.225,328.422,-853.007,0,0
237263.55,323.529,-851.484,0,0
237523.875,318.5,-849.859,0,0
237784.2,313.366,-847.946,0,0
238044.525,308.376,-845.705,0,0
238304.85,303.565,-843.179,0,0
238565.175,299.061,-840.598,0,0
238825.5,294.57,-837.955,0,0
239085.825,290.241,-835.208,0,0
239346.15,286.034,-832.24,0,0
239606.475,282.036,-829.141,0,0
239866.8,278.156,-826.149,0,0
240127.125,274.468,-823.158,0,0
240387.45,270.736,-820.03,0,0
240647.775,267.075,-816.825,0,0
240908.1,263.464,-813.392,0,0
241168.425,260.14,-809.831,0,0
241428.75,256.936,-805.904,0,0
241689.075,254.023,-802.008,0,0
241949.4,251.459,-797.949,0,0
242209.725,249.28,-793.895,0,0
242470.05,247.469,-789.92,0,0
242730.375,245.862,-786.092,0,0
242990.7,244.767,-782.482,0,0
243251.025,243.963,-779.312,0,0
243511.35,243.097,-776.55,0,0
243771.675,242.087,-774.177,0,0
244032.0,240.792,-772.045,0,0
244292.325,239.04,-769.802,0,0
244552.65,237.239,-767.357,0,0
244812.975,235.583,-764.725,0,0
245073.3,233.985,-761.832,0,0
245333.625,232.511,-759.168,0,0
245593.95,231.135,-756.315,0,0
245854.275,229.946,-753.551,0,0
246114.6,228.811,-750.781,0,0
246374.925,227.715,-748.116,0,0
246635.25,226.771,-745.367,0,0
246895.575,226.01,-742.834,0,0
247155.9,225.126,-740.413,0,0
247416.225,224.173,-738.005,0,0
247676.55,223.217,-735.514,0,0
247936.875,222.242,-732.925,0,0
248197.2,221.6,-730.082,0,0
248457.525,221.236,-727.256,0,0
248717.85,221.099,-724.684,0,0
248978.175,221.273,-722.348,0,0
249238.5,221.493,-720.347,0,0
249498.825,221.514,-718.66,0,0
249759.15,221.484,-717.22,0,0
250019.475,221.292,-715.837,0,0
250279.8,220.888,-714.555,0,0
250540,220.441,-713.465,0,0
250800,219.717,-712.325,0,0
251061,218.821,-711.154,0,0
251321,218.001,-709.896,0,0
251581,216.922,-708.656,0,0
251842,215.697,-707.349,0,0
252102,214.349,-705.855,0,0
252362,212.899,-704.241,0,0
252623,211.468,-702.393,0,0
252883,210.178,-700.401,0,0
253143,208.892,-698.371,0,0
253404,207.529,-696.266,0,0
253664,206.133,-693.948,0,0
253924,204.771,-691.385,0,0
254185,203.646,-688.612,0,0
254445,202.734,-685.688,0,0
254705,201.984,-682.688,0,0
254966,201.373,-679.731,0,0
255226,200.925,-676.646,0,0
255486,200.619,-673.386,0,0
255747,200.636,-670.074,0,0
256007,200.939,-666.812,0,0
256267,201.6,-663.469,0,0
256528,202.536,-660.411,0,0
256788,203.629,-657.484,0,0
257048,204.835,-654.795,0,0
257309,206.126,-652.159,0,0
257569,207.538,-649.733,0,0
257829,208.985,-647.358,0,0
258090,210.631,-645.091,0,0
258350,212.318,-642.883,0,0
258610,214.187,-640.811,0,0
258871,216.227,-638.786,0,0
259131,218.521,-636.933,0,0
259391,220.997,-635.229,0,0
259651,223.686,-633.887,0,0
259912,226.476,-632.731,0,0
260172,229.406,-631.844,0,0
260432,232.533,-631.146,0,0
260693,235.992,-630.921,0,0
260953,239.708,-631.296,0,0
261213,243.417,-632.532,0,0
261474,246.763,-634.599,0,0
261734,249.408,-637.165,0,0
261994,251.424,-640.103,0,0
262255,252.857,-643.253,0,0
262515,253.691,-646.44,0,0
262775,253.943,-649.515,0,0
263036,253.783,-652.467,0,0
263296,253.365,-655.341,0,0
263556,252.592,-658.071,0,0
263817,251.509,-660.684,0,0
264077,250.031,-663.179,0,0
264337,248.268,-665.363,0,0
264598,246.361,-667.206,0,0
264858,244.439,-669.024,0,0
265118,242.313,-670.785,0,0
265379,239.929,-672.311,0,0
265639,237.348,-673.687,0,0
265899,234.406,-674.782,0,0
266160,231.351,-675.616,0,0
266420,228.143,-676.076,0,0
266680.25,224.869,-676.122,0,0
266940.575,221.552,-675.709,0,0
267200.9,218.349,-674.897,0,0
267461.225,215.419,-673.755,0,0
267721.55,212.715,-672.421,0,0
267981.875,210.256,-670.941,0,0
268242.2,207.959,-669.344,0,0
268502.525,205.837,-667.666,0,0
268762.85,203.809,-665.856,0,0
269023.175,201.953,-664.008,0,0
269283.5,200.267,-662.037,0,0
269543.825,198.733,-660.037,0,0
269804.15,197.302,-657.877,0,0
270064.475,196.225,-655.689,0,0
270324.8,195.203,-653.601,0,0
270585.125,194.489,-651.411,0,0
270845.45,193.947,-649.385,0,0
271105.775,193.53,-647.447,0,0
271366.1,193.119,-645.535,0,0
271626.425,192.882,-643.801,0,0
271886.75,192.658,-642.196,0,0
272147.075,192.458,-640.77,0,0
272407.4,192.096,-639.396,0,0
272667.725,191.623,-637.931,0,0
272928.05,191.148,-636.337,0,0
273188.375,190.747,-634.672,0,0
273448.7,190.412,-632.894,0,0
273709.025,190.227,-631.088,0,0
273969.35,190.149,-629.219,0,0
274229.675,190.169,-627.356,0,0
274490.0,190.364,-625.483,0,0
274750.325,190.685,-623.549,0,0
275010.65,191.205,-621.688,0,0
275270.975,191.836,-619.81,0,0
275531.3,192.71,-618.051,0,0
275791.625,193.743,-616.39,0,0
276051.95,194.955,-614.831,0,0
276312.275,196.337,-613.46,0,0
276572.6,197.867,-612.274,0,0
276832.925,199.508,-611.331,0,0
277093.25,201.176,-610.7,0,0
277353.575,202.833,-610.307,0,0
277613.9,204.406,-610.119,0,0
277874.225,205.983,-610.055,0,0
278134.55,207.566,-610.177,0,0
278394.875,209.13,-610.553,0,0
278655.2,210.618,-611.221,0,0
278915.525,211.885,-612.116,0,0
279175.85,212.963,-613.174,0,0
279436.175,213.94,-614.384,0,0
279696.5,214.638,-615.693,0,0
279956.825,215.225,-617.126,0,0
280217.15,215.503,-618.722,0,0
280477.475,215.494,-620.351,0,0
280737.8,215.193,-621.886,0,0
280998.125,214.735,-623.357,0,0
281258.45,214.105,-624.729,0,0
281518.775,213.34,-626.129,0,0
281779.1,212.33,-627.44,0,0
282039.425,211.121,-628.611,0,0
282299.75,209.806,-629.587,0,0
282560,208.442,-630.454,0,0
282820,206.948,-631.235,0,0
283081,205.325,-631.857,0,0
283341,203.693,-632.266,0,0
283601,202.005,-632.492,0,0
283862,200.392,-632.574,0,0
284122,198.776,-632.576,0,0
284382,197.224,-632.517,0,0
284643,195.584,-632.347,0,0
284903,193.963,-632.025,0,0
285163,192.391,-631.584,0,0
285424,190.836,-631.066,0,0
285684,189.417,-630.407,0,0
285944,188.002,-629.661,0,0
286205,186.687,-628.823,0,0
286465,185.487,-627.941,0,0
286725,184.348,-627.002,0,0
286986,183.349,-626.04,0,0
287246,182.407,-625.032,0,0
287506,181.565,-624.075,0,0
287767,180.798,-623.1,0,0
288027,180.083,-622.147,0,0
288287,179.374,-621.155,0,0
288548,178.783,-620.084,0,0
288808,178.313,-619.017,0,0
289068,178.05,-617.965,0,0
289329,177.951,-617.083,0,0
289589,177.927,-616.427,0,0
289849,177.879,-615.933,0,0
290109,177.732,-615.622,0,0
290370,177.445,-615.393,0,0
290630,177.073,-615.202,0,0
290890,176.594,-615.038,0,0
291151,176.013,-614.855,0,0
291411,175.325,-614.65,0,0
291671,174.553,-614.421,0,0
291932,173.692,-614.142,0,0
292192,172.664,-613.719,0,0
292452,171.621,-613.127,0,0
292713,170.608,-612.338,0,0
292973,169.699,-611.389,0,0
293233,168.911,-610.341,0,0
293494,168.28,-609.205,0,0
293754,167.796,-608.054,0,0
294014,167.463,-606.9,0,0
294275,167.244,-605.73,0,0
294535,167.239,-604.613,0,0
294795,167.36,-603.601,0,0
295056,167.637,-602.704,0,0
295316,168.023,-601.96,0,0
295576,168.427,-601.424,0,0
295837,168.808,-601.084,0,0
296097,169.166,-600.877,0,0
296357,169.46,-600.756,0,0
296618,169.685,-600.766,0,0
296878,169.871,-600.867,0,0
297138,169.968,-601.086,0,0
297399,169.947,-601.365,0,0
297659,169.809,-601.7,0,0
297919,169.559,-602.055,0,0
298180,169.233,-602.394,0,0
298440,168.825,-602.754,0,0
298700.2,168.346,-603.111,0,0
298960.525,167.789,-603.479,0,0
299220.85,167.145,-603.848,0,0
299481.175,166.442,-604.196,0,0
299741.5,165.595,-604.55,0,0
300001.825,164.685,-604.86,0,0
300262.15,163.7,-605.103,0,0
300522.475,162.642,-605.288,0,0
300782.8,161.53,-605.429,0,0
301043.125,160.372,-605.495,0,0
301303.45,159.159,-605.49,0,0
301563.775,157.877,-605.422,0,0
301824.1,156.59,-605.254,0,0
302084.425,155.249,-605,0,0
302344.75,153.915,-604.651,0,0
302605.075,152.625,-604.179,0,0
302865.4,151.367,-603.625,0,0
303125.725,150.163,-603.055,0,0
303386.05,148.994,-602.448,0,0
303646.375,147.853,-601.802,0,0
303906.7,146.705,-601.125,0,0
304167.025,145.584,-600.411,0,0
304427.35,144.466,-599.593,0,0
304687.675,143.432,-598.761,0,0
304948.0,142.421,-597.895,0,0
305208.325,141.481,-596.955,0,0
305468.65,140.6,-596.022,0,0
305728.975,139.773,-595.118,0,0
305989.3,138.983,-594.161,0,0
306249.625,138.223,-593.24,0,0
306509.95,137.49,-592.297,0,0
306770.275,136.784,-591.333,0,0
307030.6,136.124,-590.337,0,0
307290.925,135.56,-589.361,0,0
307551.25,135.03,-588.41,0,0
307811.575,134.529,-587.493,0,0
308071.9,134.081,-586.569,0,0
308332.225,133.669,-585.68,0,0
308592.55,133.31,-584.823,0,0
308852.875,132.964,-584.063,0,0
309113.2,132.657,-583.282,0,0
309373.525,132.343,-582.547,0,0
309633.85,132.066,-581.905,0,0
309894.175,131.773,-581.338,0,0
310154.5,131.487,-580.817,0,0
310414.825,131.151,-580.379,0,0
310675.15,130.751,-580.008,0,0
310935.475,130.273,-579.649,0,0
311195.8,129.676,-579.308,0,0
311456.125,129.016,-578.954,0,0
311716.45,128.282,-578.572,0,0
311976.775,127.496,-578.137,0,0
312237.1,126.621,-577.652,0,0
312497.425,125.71,-577.122,0,0
312757.75,124.753,-576.479,0,0
313018.075,123.742,-575.745,0,0
313278.4,122.748,-574.888,0,0
313538.725,121.789,-573.954,0,0
313799.05,120.86,-572.886,0,0
314059.375,120.001,-571.768,0,0
314319.7,119.239,-570.533,0,0
314580,118.513,-569.248,0,0
314840,117.969,-567.958,0,0
315101,117.515,-566.53,0,0
315361,117.223,-565.247,0,0
315621,116.959,-563.964,0,0
315882,116.818,-562.735,0,0
316142,116.743,-561.482,0,0
316402,116.741,-560.372,0,0
316663,116.739,-559.356,0,0
316923,116.821,-558.373,0,0
317183,116.931,-557.403,0,0
317444,116.912,-556.598,0,0
317704,116.972,-555.719,0,0
317964,117.015,-554.902,0,0
318225,117.112,-554.135,0,0
318485,117.213,-553.407,0,0
318745,117.272,-552.634,0,0
319006,117.298,-552.011,0,0
319266,117.414,-551.37,0,0
319526,117.518,-550.836,0,0
319787,117.466,-550.233,0,0
320047,117.368,-549.682,0,0
320307,117.371,-549.06,0,0
320567,117.385,-548.411,0,0
320828,117.41,-547.757,0,0
321088,117.441,-547.113,0,0
321348,117.635,-546.428,0,0
321609,117.82,-545.848,0,0
321869,118.122,-545.264,0,0
322129,118.395,-544.814,0,0
322390,118.74,-544.499,0,0
322650,119.12,-544.159,0,0
322910,119.451,-544.006,0,0
323171,119.791,-543.989,0,0
323431,120.061,-544.077,0,0
323691,120.289,-544.237,0,0
323952,120.337,-544.426,0,0
324212,120.311,-544.765,0,0
324472,120.145,-545.102,0,0
324733,119.963,-545.399,0,0
324993,119.582,-545.697,0,0
325253,119.152,-546.112,0,0
325514,118.635,-546.393,0,0
325774,117.985,-546.594,0,0
326034,117.39,-546.876,0,0
326295,116.546,-546.97,0,0
326555,115.812,-547.077,0,0
326815,114.954,-547.118,0,0
327076,113.992,-547.099,0,0
327336,113,-547.005,0,0
327596,112.082,-546.868,0,0
327857,111.17,-546.631,0,0
328117,110.168,-546.361,0,0
328377,109.152,-546.037,0,0
328638,108.225,-545.635,0,0
328898,107.26,-545.162,0,0
329158,106.45,-544.71,0,0
329419,105.567,-544.218,0,0
329679,104.661,-543.735,0,0
329939,103.902,-543.159,0,0
330200,103.035,-542.65,0,0
330460,102.247,-542.176,0,0
330720.15,101.311,-541.596,0,0
330980.475,100.537,-541.083,0,0
331240.8,99.6126,-540.543,0,0
331501.125,98.7798,-539.902,0,0
331761.45,97.7885,-539.332,0,0
332021.775,96.8688,-538.608,0,0
332282.1,96.0156,-537.976,0,0
332542.425,95.0927,-537.251,0,0
332802.75,94.2417,-536.399,0,0
333063.075,93.3634,-535.61,0,0
333323.4,92.5412,-534.784,0,0
333583.725,91.6217,-533.932,0,0
333844.05,90.7275,-533.134,0,0
334104.375,89.9146,-532.164,0,0
334364.7,89.0432,-531.171,0,0
334625.025,88.2518,-530.194,0,0
334885.35,87.4457,-529.197,0,0
335145.675,86.6531,-528.074,0,0
335406.0,85.895,-527.017,0,0
335666.325,85.2067,-525.891,0,0
335926.65,84.5383,-524.632,0,0
336186.975,83.8993,-523.517,0,0
336447.3,83.3045,-522.277,0,0
336707.625,82.7932,-521.071,0,0
336967.95,82.272,-519.836,0,0
337228.275,81.8256,-518.594,0,0
337488.6,81.3571,-517.389,0,0
337748.925,81.025,-516.104,0,0
338009.25,80.6908,-514.956,0,0
338269.575,80.305,-513.704,0,0
338529.9,79.9503,-512.499,0,0
338790.225,79.5899,-511.25,0,0
339050.55,79.2515,-510.015,0,0
339310.875,79.0185,-508.701,0,0
339571.2,78.7399,-507.473,0,0
339831.525,78.6048,-505.986,0,0
340091.85,78.4741,-504.609,0,0
340352.175,78.4961,-503.234,0,0
340612.5,78.4823,-501.841,0,0
340872.825,78.6517,-500.433,0,0
341133.15,78.8584,-499.075,0,0
341393.475,79.2246,-497.779,0,0
341653.8,79.5627,-496.544,0,0
341914.125,80.0365,-495.381,0,0
342174.45,80.5189,-494.297,0,0
342434.775,81.0534,-493.278,0,0
342695.1,81.7273,-492.418,0,0
342955.425,82.2648,-491.61,0,0
343215.75,82.8327,-490.999,0,0
343476.075,83.3012,-490.346,0,0
343736.4,83.8704,-489.883,0,0
343996.725,84.2916,-489.381,0,0
344257.05,84.672,-488.971,0,0
344517.375,84.9736,-488.567,0,0
344777.7,85.2868,-488.339,0,0
345038.025,85.4805,-488.052,0,0
345298.35,85.6762,-487.755,0,0
345558.675,85.7483,-487.506,0,0
345819.0,85.7965,-487.271,0,0
346079.325,85.8252,-486.97,0,0
346339.65,85.7309,-486.73,0,0
346599.975,85.5869,-486.496,0,0
346860,85.3675,-486.115,0,0
347121,85.1216,-485.785,0,0
347381,84.8741,-485.329,0,0
347641,84.5589,-484.827,0,0
347902,84.3008,-484.282,0,0
348162,83.9628,-483.727,0,0
348422,83.6917,-483.023,0,0
348683,83.4457,-482.279,0,0
348943,83.1966,-481.547,0,0
349203,83.0442,-480.656,0,0
349464,82.9182,-479.825,0,0
349724,82.9771,-478.945,0,0
349984,83.0229,-478.077,0,0
350245,83.189,-477.239,0,0
350505,83.399,-476.444,0,0
350765,83.6847,-475.658,0,0
351025,84.0611,-475.03,0,0
351286,84.3597,-474.487,0,0
351546,84.7648,-474.062,0,0
351806,85.0534,-473.633,0,0
352067,85.3641,-473.322,0,0
352327,85.5648,-473.007,0,0
352587,85.8688,-472.772,0,0
352848,85.9915,-472.536,0,0
353108,86.123,-472.439,0,0
353368,86.174,-472.294,0,0
353629,86.1013,-472.16,0,0
353889,85.961,-472.035,0,0
354149,85.7717,-471.86,0,0
354410,85.615,-471.66,0,0
354670,85.3798,-471.426,0,0
354930,85.0936,-471.123,0,0
355191,84.7697,-470.873,0,0
355451,84.4733,-470.48,0,0
355711,84.1807,-470.145,0,0
355972,83.9042,-469.767,0,0
356232,83.5169,-469.335,0,0
356492,83.1265,-468.851,0,0
356753,82.7051,-468.324,0,0
357013,82.3955,-467.743,0,0
357273,82.0576,-467.155,0,0
357534,81.7309,-466.499,0,0
357794,81.485,-465.709,0,0
358054,81.3223,-465.003,0,0
358315,81.1327,-464.287,0,0
358575,81.0904,-463.519,0,0
358835,80.9969,-462.876,0,0
359096,81.0496,-462.243,0,0
359356,81.0413,-461.574,0,0
359616,81.0576,-460.974,0,0
359877,81.0833,-460.349,0,0
360137,81.0527,-459.835,0,0
360397,81.0666,-459.324,0,0
360658,81.0541,-458.869,0,0
360918,80.9889,-458.435,0,0
361178,80.8589,-457.859,0,0
361438,80.7799,-457.437,0,0
361699,80.637,-456.853,0,0
361959,80.4842,-456.296,0,0
362219,80.3494,-455.707,0,0
362480,80.2226,-454.982,0,0
362740.1,80.1069,-454.227,0,0
363000.425,80.0809,-453.52,0,0
363260.75,80.1756,-452.771,0,0
363521.075,80.3304,-452.064,0,0
363781.4,80.5499,-451.39,0,0
364041.725,80.7378,-450.754,0,0
364302.05,81.0348,-450.16,0,0
364562.375,81.2637,-449.639,0,0
364822.7,81.5634,-449.107,0,0
365083.025,81.9737,-448.721,0,0
365343.35,82.2566,-448.323,0,0
365603.675,82.5781,-448.101,0,0
365864.0,82.8858,-447.875,0,0
366124.325,83.1703,-447.796,0,0
366384.65,83.3299,-447.754,0,0
366644.975,83.4289,-447.857,0,0
366905.3,83.3475,-447.914,0,0
367165.625,83.2205,-447.918,0,0
367425.95,82.926,-448.004,0,0
367686.275,82.602,-447.92,0,0
367946.6,82.1142,-447.811,0,0
368206.925,81.6626,-447.618,0,0
368467.25,81.0425,-447.284,0,0
368727.575,80.4731,-446.844,0,0
368987.9,79.946,-446.241,0,0
369248.225,79.4837,-445.538,0,0
369508.55,79.0878,-444.798,0,0
369768.875,78.8124,-443.902,0,0
370029.2,78.713,-442.992,0,0
370289.525,78.6898,-442.112,0,0
370549.85,78.7782,-441.271,0,0
370810.175,79.0565,-440.513,0,0
371070.5,79.2944,-439.898,0,0
371330.825,79.6566,-439.34,0,0
371591.15,80.0307,-438.941,0,0
371851.475,80.3136,-438.692,0,0
372111.8,80.5839,-438.534,0,0
372372.125,80.6588,-438.411,0,0
372632.45,80.6928,-438.329,0,0
372892.775,80.6483,-438.305,0,0
373153.1,80.4888,-438.236,0,0
373413.425,80.2273,-438.113,0,0
373673.75,79.8876,-437.908,0,0
373934.075,79.5416,-437.648,0,0
374194.4,79.0935,-437.303,0,0
374454.725,78.7174,-436.898,0,0
374715.05,78.3997,-436.461,0,0
374975.375,78.0555,-435.937,0,0
375235.7,77.7266,-435.398,0,0
375496.025,77.3861,-434.804,0,0
375756.35,77.1119,-434.174,0,0
376016.675,76.8782,-433.499,0,0
376277.0,76.7006,-432.808,0,0
376537.325,76.5329,-432.133,0,0
376797.65,76.3884,-431.418,0,0
377057.975,76.3291,-430.713,0,0
377318.3,76.2636,-430.031,0,0
377578.625,76.2765,-429.283,0,0
377838.95,76.3138,-428.558,0,0
378099.275,76.4121,-427.908,0,0
378359.6,76.5094,-427.193,0,0
378619.925,76.7508,-426.563,0,0
378880,76.9853,-425.981,0,0
379141,77.1928,-425.48,0,0
379401,77.4423,-425.037,0,0
379661,77.6528,-424.635,0,0
379922,77.8783,-424.3,0,0
380182,78.044,-424.012,0,0
380442,78.1728,-423.763,0,0
380703,78.2399,-423.486,0,0
380963,78.2572,-423.237,0,0
381223,78.2582,-423,0,0
381483,78.2293,-422.677,0,0
381744,78.2072,-422.35,0,0
382004,78.206,-422.061,0,0
382264,78.1898,-421.693,0,0
382525,78.1713,-421.453,0,0
382785,78.1686,-421.194,0,0
383045,78.1645,-420.916,0,0
383306,78.0832,-420.716,0,0
383566,77.9887,-420.539,0,0
383826,77.7735,-420.298,0,0
384087,77.5519,-420.079,0,0
384347,77.3025,-419.826,0,0
384607,77.0286,-419.508,0,0
384868,76.7967,-419.193,0,0
385128,76.5073,-418.783,0,0
385388,76.2315,-418.392,0,0
385649,75.9199,-417.978,0,0
385909,75.607,-417.489,0,0
386169,75.314,-417.023,0,0
386430,75.009,-416.555,0,0
386690,74.6775,-415.98,0,0
386950,74.4151,-415.41,0,0
387211,74.1189,-414.835,0,0
387471,73.7741,-414.19,0,0
387731,73.5081,-413.555,0,0
387992,73.2554,-412.806,0,0
388252,73.0749,-412.066,0,0
388512,72.8479,-411.292,0,0
388773,72.6956,-410.49,0,0
389033,72.5861,-409.643,0,0
389293,72.4941,-408.77,0,0
389554,72.4716,-407.922,0,0
389814,72.4873,-407.063,0,0
390074,72.5484,-406.169,0,0
390335,72.7097,-405.244,0,0
390595,72.9098,-404.394,0,0
390855,73.1367,-403.53,0,0
391116,73.4625,-402.706,0,0
391376,73.8198,-401.907,0,0
391636,74.2301,-401.163,0,0
391896,74.687,-400.47,0,0
392157,75.1069,-399.863,0,0
392417,75.6103,-399.284,0,0
392677,76.0942,-398.773,0,0
392938,76.577,-398.315,0,0
393198,76.9819,-397.859,0,0
393458,77.4323,-397.433,0,0
393719,77.8772,-397.071,0,0
393979,78.2811,-396.694,0,0
394239,78.6886,-396.394,0,0
394500,79.1427,-396.064,0,0
394760.05,79.5587,-395.755,0,0
395020.375,79.995,-395.54,0,0
395280.7,80.4074,-395.302,0,0
395541.025,80.8147,-395.087,0,0
395801.35,81.2392,-394.953,0,0
396061.675,81.6484,-394.807,0,0
396322.0,81.9762,-394.742,0,0
396582.325,82.3577,-394.699,0,0
396842.65,82.6632,-394.676,0,0
397102.975,82.9627,-394.696,0,0
397363.3,83.2581,-394.703,0,0
397623.625,83.4915,-394.747,0,0
397883.95,83.6416,-394.78,0,0
398144.275,83.8767,-394.929,0,0
398404.6,84.01,-394.996,0,0
398664.925,84.1394,-395.141,0,0
398925.25,84.2,-395.278,0,0
399185.575,84.2039,-395.465,0,0
399445.9,84.1781,-395.61,0,0
399706.225,84.0747,-395.787,0,0
399966.55,83.9075,-395.928,0,0
400006.6,83.8834,-395.966,0,0