File: Accelerated corrosion test data/2025-10-20_18-00-03/sample_5.csv
Frequency (Hz),Impedance (ohms),Phase (Radians),Temperature (C),Humidity (%)
10000.0,3423.96,-2113.43,0,0
10260.325,3387,-2119.68,0,0
10520.65,3376.79,-2206.49,0,0
10780.975,3372.62,-2303,0,0
11041.3,3388.59,-2472.69,0,0
11301.625,3352.43,-2508.83,0,0
11561.95,3322.61,-2572.18,0,0
11822.275,3282.44,-2588.14,0,0
12082.6,3244.2,-2606.97,0,0
12342.925,3178.69,-2502.9,0,0
12603.25,3157.88,-2612.75,0,0
12863.575,3122.08,-2657.29,0,0
13123.9,3084.42,-2659.3,0,0
13384.225,3051.22,-2730.86,0,0
13644.55,3011.6,-2754.35,0,0
13904.875,2974.1,-2797.53,0,0
14165.2,2930.98,-2759.52,0,0
14425.525,2887.86,-2701.45,0,0
14685.8,2851.07,-2719.06,0,0
14946.175,2809.55,-2680.85,0,0
15206.5,2772.35,-2643.5,0,0
15466.825,2737.68,-2728.29,0,0
15727.15,2701.01,-2724.94,0,0
15987.5,2666.41,-2682.53,0,0
16247.8,2631.38,-2605.73,0,0
16508.125,2597.04,-2690.23,0,0
16768.45,2564.5,-2669.15,0,0
17028.775,2531.69,-2658.56,0,0
17289.1,2501.91,-2600.95,0,0
17549.425,2471.06,-2538.43,0,0
17809.75,2442.55,-2532.87,0,0
18070.075,2407.79,-2604.61,0,0
18330.4,2371.35,-2655.12,0,0
18590.725,2341.82,-2642.95,0,0
18851.05,2310.26,-2647.08,0,0
19111.375,2282.78,-2633.4,0,0
19371.7,2260.07,-2587.82,0,0
19632.025,2230.93,-2580.33,0,0
19892.35,2201.28,-2593.66,0,0
20152.675,2179.01,-2555.77,0,0
20413.0,2151.73,-2555.96,0,0
20673.3,2126.54,-2539,0,0
20933.65,2105.11,-2507.93,0,0
21193.975,2079.16,-2502.63,0,0
21454.3,2056.45,-2487.33,0,0
21714.625,2035.61,-2463.44,0,0
21974.9,2012.94,-2447.53,0,0
22235.275,1982.16,-2474.37,0,0
22495.6,1962.7,-2451.8,0,0
22755.925,1956.17,-2365.33,0,0
23016.25,1900.13,-2498.07,0,0
23276.6,1900.62,-2404.66,0,0
23536.9,1863.47,-2452.9,0,0
23797.225,1843.86,-2438.72,0,0
24057.55,1817.99,-2446.16,0,0
24317.875,1799.13,-2430.13,0,0
24578.2,1778.39,-2420.36,0,0
24838.525,1764.73,-2391.38,0,0
25098.85,1742.87,-2389.43,0,0
25359.175,1724.65,-2379.83,0,0
25619.5,1698.15,-2390.44,0,0
25879.8,1673.43,-2396.43,0,0
26140.1,1657.13,-2387.58,0,0
26400.5,1641.06,-2370.65,0,0
26660.8,1616.99,-2376.13,0,0
26921.1,1610.13,-2339.66,0,0
27181.4,1576.15,-2369.69,0,0
27441.8,1559.64,-2357.85,0,0
27702.1,1546.95,-2339.78,0,0
27962.4,1567.61,-2232.72,0,0
28222.7,1532.06,-2273.52,0,0
28483.1,1499.2,-2303.9,0,0
28743.4,1477.28,-2306.27,0,0
29003.7,1469.26,-2281.66,0,0
29264,1450.65,-2278.27,0,0
29524.4,1434.59,-2270.22,0,0
29784.7,1423.09,-2254.37,0,0
30045,1413.75,-2232.55,0,0
30305.3,1400.53,-2219.86,0,0
30565.7,1388.69,-2206.26,0,0
30826,1402.01,-2134.6,0,0
31086.3,1356.35,-2195.56,0,0
31346.6,1338.94,-2193.19,0,0
31607,1330.85,-2174.99,0,0
31867.3,1369.25,-2054.03,0,0
32127.6,1328.82,-2106.73,0,0
32387.9,1322.47,-2079.99,0,0
32648.3,1281.86,-2132.41,0,0
32908.6,1322.52,-2011.96,0,0
33168.9,1263.17,-2103.69,0,0
33429.2,1258.62,-2080.01,0,0
33689.6,1261.83,-2041.83,0,0
33949.9,1250.44,-2033.32,0,0
34210.2,1238.68,-2025.12,0,0
34470.5,1227.2,-2016.85,0,0
34730.9,1206.64,-2026.27,0,0
34991.2,1195.88,-2017.6,0,0
35251.5,1187.14,-2004.45,0,0
35511.8,1180.64,-1988.15,0,0
35772.2,1165.16,-1989.45,0,0
36032.5,1151.88,-1985.29,0,0
36292.8,1144.73,-1971.36,0,0
36553.1,1136.43,-1959.79,0,0
36813.5,1123.13,-1956.43,0,0
37073.8,1108.49,-1956.41,0,0
37334.1,1091.09,-1960.65,0,0
37594.4,1090.76,-1936.8,0,0
37854.8,1086.62,-1920.41,0,0
38115.1,1083.18,-1901.4,0,0
38375.4,1067.55,-1904.65,0,0
38635.7,1072.02,-1874.63,0,0
38896.1,1069.69,-1854.68,0,0
39156.4,1026.63,-1902.81,0,0
39416.7,1018.72,-1893.74,0,0
39677,1009.55,-1885.78,0,0
39937.4,1031.64,-1830.59,0,0
40197.7,994.085,-1868.59,0,0
40458,988.676,-1856.69,0,0
40718.3,1000.61,-1818.63,0,0
40978.7,975.87,-1836.21,0,0
41239,963.578,-1834.17,0,0
41499.3,952.667,-1830.46,0,0
41759.6,950.488,-1815.45,0,0
42020,938.114,-1814.37,0,0
42280.275,950.844,-1780.6,0,0
42540.6,955.548,-1754.43,0,0
42800.925,930.874,-1772.51,0,0
43061.25,928.305,-1758.7,0,0
43321.575,932.858,-1734.12,0,0
43581.9,941.104,-1703.38,0,0
43842.225,907.639,-1736.01,0,0
44102.55,896.694,-1734.79,0,0
44362.875,890.641,-1726.34,0,0
44623.2,887.116,-1714.55,0,0
44883.525,892.186,-1691.34,0,0
45143.85,880.518,-1691.4,0,0
45404.175,878.405,-1679.06,0,0
45664.5,875.441,-1666.81,0,0
45924.825,862.741,-1669.34,0,0
46185.15,899.715,-1596.76,0,0
46445.475,834.219,-1676.32,0,0
46705.8,812.269,-1689.93,0,0
46966.125,811.146,-1677.88,0,0
47226.45,797.151,-1680.78,0,0
47486.775,794.125,-1671.29,0,0
47747.1,800.883,-1648.77,0,0
48007.425,800.179,-1635,0,0
48267.75,782.699,-1644.24,0,0
48528.075,770.382,-1645.49,0,0
48788.4,759.037,-1645.91,0,0
49048.725,755.279,-1637.46,0,0
49309.05,748.674,-1632.98,0,0
49569.375,794.938,-1560.79,0,0
49829.7,744.224,-1613.26,0,0
50090.025,740.912,-1605.33,0,0
50350.35,752.671,-1579.58,0,0
50610.675,748.63,-1572.53,0,0
50871.0,759.997,-1546.06,0,0
51131.325,717.558,-1585.22,0,0
51391.65,738.584,-1549.22,0,0
51651.975,704.66,-1576.7,0,0
51912.3,746.387,-1515.47,0,0
52172.625,702.743,-1557.16,0,0
52432.95,698.688,-1549.5,0,0
52693.275,704.325,-1531.98,0,0
52953.6,708.228,-1516.26,0,0
53213.925,707.874,-1505.82,0,0
53474.25,681.363,-1525.42,0,0
53734.575,739.101,-1441.86,0,0
53994.9,650.292,-1537.04,0,0
54255.225,678.307,-1496.23,0,0
54515.55,650.293,-1516.62,0,0
54775.875,643.127,-1514.16,0,0
55036.2,666.491,-1478.36,0,0
55296.525,653.441,-1482.58,0,0
55556.85,646.165,-1480.59,0,0
55817.175,635.9,-1481.62,0,0
56077.5,645.859,-1461.54,0,0
56337.825,635.574,-1463.12,0,0
56598.15,618.636,-1471.73,0,0
56858.475,626.43,-1454.7,0,0
57118.8,618.239,-1453.96,0,0
57379.125,659.277,-1398.61,0,0
57639.45,672.629,-1372.21,0,0
57899.775,674.526,-1360.11,0,0
58160.1,611.925,-1425.56,0,0
58420.4,638.648,-1386.54,0,0
58680.7,621.374,-1397.33,0,0
58941.1,603.319,-1407.65,0,0
59201.4,604.726,-1396.82,0,0
59461.7,595.294,-1397.64,0,0
59722,609.189,-1373.95,0,0
59982.4,583.762,-1392.05,0,0
60242.7,582.402,-1384.53,0,0
60503,604.492,-1352.99,0,0
60763.3,584.743,-1365,0,0
61023.7,586.678,-1353.64,0,0
61284,581.77,-1350.42,0,0
61544.3,578.089,-1346.23,0,0
61804.6,612.422,-1298.42,0,0
62065,567.238,-1339.98,0,0
62325.3,565.951,-1332.74,0,0
62585.6,586.326,-1302.43,0,0
62845.9,567.531,-1315.31,0,0
63106.3,548.563,-1327.6,0,0
63366.6,556.851,-1311.61,0,0
63626.9,540.559,-1320.07,0,0
63887.2,536.264,-1316.87,0,0
64147.6,532.919,-1312.77,0,0
64407.9,550.285,-1287.69,0,0
64668.2,538.149,-1293.06,0,0
64928.5,534.613,-1289.2,0,0
65188.9,540.107,-1276.49,0,0
65449.2,526.744,-1281.87,0,0
65709.5,508.981,-1291.69,0,0
65969.8,517.114,-1276.45,0,0
66230.2,512.367,-1274.08,0,0
66490.5,541.536,-1236.6,0,0
66750.8,545.847,-1224.78,0,0
67011.1,540.673,-1223.15,0,0
67271.5,547.983,-1207.62,0,0
67531.8,531.674,-1218.49,0,0
67792.1,521.38,-1222.51,0,0
68052.4,504.046,-1233.15,0,0
68312.8,502.888,-1227.55,0,0
68573.1,495.113,-1228.23,0,0
68833.4,498.856,-1218.01,0,0
69093.7,495.051,-1215.71,0,0
69354.1,490.38,-1213.22,0,0
69614.4,476.849,-1219.65,0,0
69874.7,452.236,-1234.88,0,0
70135,485.45,-1199.31,0,0
70395.4,489.224,-1189.76,0,0
70655.7,471.594,-1200.15,0,0
70916,470.65,-1194.88,0,0
71176.3,471.565,-1188.1,0,0
71436.7,462.768,-1190.21,0,0
71697,459.682,-1187.21,0,0
71957.3,474.613,-1166.92,0,0
72217.6,468.763,-1166.49,0,0
72478,472.577,-1157,0,0
72738.3,455.263,-1167.53,0,0
72998.6,455.695,-1161.35,0,0
73258.9,471.9,-1140.12,0,0
73519.3,467.025,-1139.17,0,0
73779.6,471.131,-1129.11,0,0
74039.9,476.949,-1117.66,0,0
74300.225,446.728,-1142.88,0,0
74560.55,446.851,-1137.43,0,0
74820.875,443.407,-1135.36,0,0
75081.2,444.462,-1128.85,0,0
75341.525,437.875,-1129.5,0,0
75601.85,433.691,-1128.09,0,0
75862.175,433.647,-1122.63,0,0
76122.5,436.1,-1114.73,0,0
76382.825,432.445,-1112.54,0,0
76643.15,451.36,-1089.05,0,0
76903.475,450.049,-1084.69,0,0
77163.8,417.322,-1109.75,0,0
77424.125,418.86,-1102.46,0,0
77684.45,398.832,-1114.23,0,0
77944.775,402.063,-1106.14,0,0
78205.1,390.272,-1110.74,0,0
78465.425,390.869,-1105.14,0,0
78725.75,388.809,-1101.86,0,0
78986.075,389.851,-1095.91,0,0
79246.4,415.398,-1069.03,0,0
79506.725,387.268,-1088.12,0,0
79767.05,388.923,-1081.78,0,0
80027.375,389.681,-1076.48,0,0
80287.7,372.581,-1085.2,0,0
80548.025,382.473,-1072.41,0,0
80808.35,382.553,-1067.58,0,0
81068.675,381.571,-1063.47,0,0
81329.0,385.552,-1055.26,0,0
81589.325,396.623,-1040.73,0,0
81849.65,378.644,-1051.24,0,0
82109.975,371.958,-1051.67,0,0
82370.3,370.222,-1047.98,0,0
82630.625,374.163,-1039.82,0,0
82890.95,367.929,-1040,0,0
83151.275,356.513,-1044.23,0,0
83411.6,346.359,-1046.97,0,0
83671.925,349.174,-1040.03,0,0
83932.25,345.306,-1038.25,0,0
84192.575,345.681,-1033.22,0,0
84452.9,349.471,-1025.7,0,0
84713.225,341.563,-1027.14,0,0
84973.55,342.087,-1022.33,0,0
85233.875,342.225,-1017.76,0,0
85494.2,340.287,-1014.84,0,0
85754.525,339.024,-1011.28,0,0
86014.85,339.105,-1006.74,0,0
86275.175,337.306,-1003.8,0,0
86535.5,341.364,-996.37,0,0
86795.825,342.166,-991.186,0,0
87056.15,346.639,-982.979,0,0
87316.475,345.102,-979.583,0,0
87576.8,346.596,-973.793,0,0
87837.125,339.055,-974.977,0,0
88097.45,337.513,-971.789,0,0
88357.775,336.268,-968.073,0,0
88618.1,331.194,-967.509,0,0
88878.425,333.759,-960.955,0,0
89138.75,331.255,-958.686,0,0
89399.075,328.995,-956.11,0,0
89659.4,322.936,-956.677,0,0
89919.725,322.981,-952.518,0,0
90180,316.229,-954.065,0,0
90440.4,316.285,-950.298,0,0
90700.7,313.28,-948.601,0,0
90961,310.974,-946.422,0,0
91221.3,307.157,-945.468,0,0
91481.7,306.844,-942.126,0,0
91742,303.73,-940.837,0,0
92002.3,304.149,-936.896,0,0
92262.6,299.077,-937.084,0,0
92523,300.411,-932.496,0,0
92783.3,299.198,-929.437,0,0
93043.6,328.216,-903.271,0,0
93303.9,293.265,-926.19,0,0
93564.3,292,-923.267,0,0
93824.6,288.716,-921.62,0,0
94084.9,287.31,-918.741,0,0
94345.2,297.564,-907.266,0,0
94605.6,285.945,-911.882,0,0
94865.9,283.22,-909.964,0,0
95126.2,282.245,-906.842,0,0
95386.5,281.491,-903.657,0,0
95646.9,279.554,-901.264,0,0
95907.2,276.557,-899.674,0,0
96167.5,297.04,-881.357,0,0
96427.8,274.957,-893.487,0,0
96688.2,272.621,-891.36,0,0
96948.5,270.681,-888.884,0,0
97208.8,275.51,-881.883,0,0
97469.1,269.339,-882.286,0,0
97729.5,268.003,-879.509,0,0
97989.8,266.52,-876.718,0,0
98250.1,266.105,-873.174,0,0
98510.4,264.356,-870.614,0,0
98770.8,265.008,-866.474,0,0
99031.1,265.899,-862.246,0,0
99291.4,262.977,-860.533,0,0
99551.7,260.985,-858.368,0,0
99812.1,259.837,-855.572,0,0
100072,258.687,-852.813,0,0
100333,256.563,-850.925,0,0
100593,257.325,-847.246,0,0
100853,255.008,-845.578,0,0
101114,255.276,-842.286,0,0
101374,253.592,-840.156,0,0
101634,252.823,-837.496,0,0
101895,251.946,-834.986,0,0
102155,250.056,-833.056,0,0
102415,249.27,-830.332,0,0
102676,247.838,-828.102,0,0
102936,247.093,-825.409,0,0
103196,249.573,-820.634,0,0
103457,249.995,-816.977,0,0
103717,246.597,-816.001,0,0
103977,246.771,-812.677,0,0
104238,246.904,-809.41,0,0
104498,245.15,-807.394,0,0
104758,249.671,-801.29,0,0
105019,246.455,-800.337,0,0
105279,244.568,-798.312,0,0
105539,243.502,-795.779,0,0
105800,239.729,-794.946,0,0
106060,237.454,-792.856,0,0
106320.175,240.562,-787.569,0,0
106580.5,238.365,-785.544,0,0
106840.825,237.312,-782.783,0,0
107101.15,237.142,-779.498,0,0
107361.475,234.586,-777.727,0,0
107621.8,232.421,-775.796,0,0
107882.125,233.222,-771.916,0,0
108142.45,231.513,-769.748,0,0
108402.775,230.349,-767.329,0,0
108663.1,229.6,-764.48,0,0
108923.425,227.583,-762.467,0,0
109183.75,227.767,-759.138,0,0
109444.075,229.532,-754.78,0,0
109704.4,224.734,-754.749,0,0
109964.725,226.678,-750.156,0,0
110225.05,221.874,-750.112,0,0
110485.375,220.264,-747.98,0,0
110745.7,220.392,-744.582,0,0
111006.025,222.388,-740.04,0,0
111266.35,222.023,-736.926,0,0
111526.675,222.098,-733.828,0,0
111787.0,222.746,-729.956,0,0
112047.325,221.815,-727.419,0,0
112307.65,220.882,-724.75,0,0
112567.975,219.546,-722.518,0,0
112828.3,218.924,-719.786,0,0
113088.625,217.789,-717.535,0,0
113348.95,217.762,-714.549,0,0
113609.275,217.187,-711.83,0,0
113869.6,216.135,-709.62,0,0
114129.925,215.48,-707.089,0,0
114390.25,214.836,-704.647,0,0
114650.575,214.569,-701.931,0,0
114910.9,213.768,-699.349,0,0
115171.225,212.876,-696.731,0,0
115431.55,212.922,-693.56,0,0
115691.875,211.972,-691.207,0,0
115952.2,211.55,-688.567,0,0
116212.525,210.477,-686.244,0,0
116472.85,209.477,-683.92,0,0
116733.175,209.241,-681.017,0,0
116993.5,209.787,-677.772,0,0
117253.825,206.497,-677.107,0,0
117514.15,205.679,-674.742,0,0
117774.475,207.283,-671.022,0,0
118034.8,207.036,-668.521,0,0
118295.125,206.437,-666.358,0,0
118555.45,203.788,-665.554,0,0
118815.775,203.88,-662.963,0,0
119076.1,204.136,-660.353,0,0
119336.425,204.057,-658.06,0,0
119596.75,203.375,-655.965,0,0
119857.075,203.092,-653.643,0,0
120117.4,203.496,-650.874,0,0
120377.725,203.331,-648.544,0,0
120638.05,202.745,-646.458,0,0
120898.375,202.363,-644.112,0,0
121158.7,202.446,-641.565,0,0
121419.025,202.194,-639.298,0,0
121679.35,202.029,-636.893,0,0
121939.675,201.379,-634.749,0,0
122200.0,201.322,-632.225,0,0
122460,200.84,-630.052,0,0
122721,200.233,-627.756,0,0
122981,199.426,-625.49,0,0
123241,199.229,-622.758,0,0
123502,198.48,-620.411,0,0
123762,197.485,-618.149,0,0
124022,197.008,-615.501,0,0
124283,195.854,-613.39,0,0
124543,195.702,-610.682,0,0
124803,195.836,-607.759,0,0
125064,197.142,-604.214,0,0
125324,197.02,-601.685,0,0
125584,195.23,-600.381,0,0
125845,194.339,-598.541,0,0
126105,194.033,-596.269,0,0
126365,193.546,-594.124,0,0
126626,192.846,-592.009,0,0
126886,192.995,-589.278,0,0
127146,191.683,-587.714,0,0
127406,191.277,-585.419,0,0
127667,191.389,-582.749,0,0
127927,191.104,-580.332,0,0
128187,191.064,-577.753,0,0
128448,190.559,-575.381,0,0
128708,189.931,-573.149,0,0
128968,189.71,-570.631,0,0
129229,189.137,-568.324,0,0
129489,188.901,-565.648,0,0
129749,188.633,-563.055,0,0
130010,188.108,-560.588,0,0
130270,187.16,-558.374,0,0
130530,186.646,-555.829,0,0
130791,186.521,-552.913,0,0
131051,186.599,-549.731,0,0
131311,186.212,-546.812,0,0
131572,185.53,-544.176,0,0
131832,185.172,-541.238,0,0
132092,185.631,-537.743,0,0
132353,185.866,-534.453,0,0
132613,186.027,-531.229,0,0
132873,185.809,-528.371,0,0
133134,183.834,-526.781,0,0
133394,183.649,-523.79,0,0
133654,182.821,-521.417,0,0
133915,183.491,-518.002,0,0
134175,183.763,-514.906,0,0
134435,184.102,-511.752,0,0
134696,184.118,-508.841,0,0
134956,183.085,-506.834,0,0
135216,183.351,-503.759,0,0
135477,182.968,-501.192,0,0
135737,183.142,-498.094,0,0
135997,183.704,-494.741,0,0
136258,183.357,-492.27,0,0
136518,183.661,-489.345,0,0
136778,184.309,-486.254,0,0
137039,184.671,-483.458,0,0
137299,186.372,-479.517,0,0
137559,187.115,-476.317,0,0
137819,186.453,-474.497,0,0
138080,186.276,-472.368,0,0
138340.125,186.772,-469.877,0,0
138600.45,187.258,-467.235,0,0
138860.775,187.71,-464.655,0,0
139121.1,188.202,-461.876,0,0
139381.425,188.696,-459.084,0,0
139641.75,189.03,-456.535,0,0
139902.075,189.413,-453.927,0,0
140162.4,190.427,-450.715,0,0
140422.725,190.881,-447.999,0,0
140683.05,190.936,-445.745,0,0
140943.375,191.233,-443.135,0,0
141203.7,191.565,-440.592,0,0
141464.025,192.077,-437.91,0,0
141724.35,192.486,-435.136,0,0
141984.675,193.181,-432.27,0,0
142245.0,193.386,-429.738,0,0
142505.325,193.876,-426.947,0,0
142765.65,194.287,-424.209,0,0
143025.975,194.779,-421.446,0,0
143286.3,195.189,-418.669,0,0
143546.625,195.483,-415.968,0,0
143806.95,195.938,-413.123,0,0
144067.275,196.47,-410.21,0,0
144327.6,196.72,-407.448,0,0
144587.925,197.216,-404.405,0,0
144848.25,197.657,-401.392,0,0
145108.575,198.321,-398.227,0,0
145368.9,198.802,-395.415,0,0
145629.225,199.292,-392.348,0,0
145889.55,199.854,-389.204,0,0
146149.875,200.664,-385.756,0,0
146410.2,201.075,-382.873,0,0
146670.525,201.855,-379.596,0,0
146930.85,202.455,-376.524,0,0
147191.175,203.162,-373.214,0,0
147451.5,203.983,-369.858,0,0
147711.825,204.824,-366.475,0,0
147972.15,205.636,-363.309,0,0
148232.475,206.517,-360.074,0,0
148492.8,207.768,-356.139,0,0
148753.125,208.398,-353.274,0,0
149013.45,209.28,-349.98,0,0
149273.775,209.822,-347.253,0,0
149534.1,210.609,-343.965,0,0
149794.425,211.722,-340.19,0,0
150054.75,212.925,-336.229,0,0
150315.075,214.239,-332.153,0,0
150575.4,215.424,-328.582,0,0
150835.725,216.793,-324.868,0,0
151096.05,218.257,-321.136,0,0
151356.375,219.881,-317.313,0,0
151616.7,221.623,-313.642,0,0
151877.025,223.438,-309.719,0,0
152137.35,225.337,-305.651,0,0
152397.675,227.329,-302.102,0,0
152658.0,229.563,-298.014,0,0
152918.325,231.791,-294.238,0,0
153178.65,234.056,-290.576,0,0
153438.975,236.356,-286.715,0,0
153699.3,238.731,-282.922,0,0
153959.625,241.26,-278.991,0,0
154219.95,243.826,-275.319,0,0
154480,246.747,-271.008,0,0
154741,249.719,-266.391,0,0
155001,252.616,-263.504,0,0
155261,255.785,-260.338,0,0
155522,259.131,-256.794,0,0
155782,262.636,-253.47,0,0
156042,266.237,-250.037,0,0
156303,269.894,-246.91,0,0
156563,273.604,-244.014,0,0
156823,277.245,-241.193,0,0
157084,280.774,-238.476,0,0
157344,284.258,-235.81,0,0
157604,287.742,-233.186,0,0
157864,291.242,-230.257,0,0
158125,294.803,-227.365,0,0
158385,298.499,-224.613,0,0
158645,302.277,-221.63,0,0
158906,306.128,-218.794,0,0
159166,310.138,-216.134,0,0
159426,314.251,-213.617,0,0
159687,318.497,-211.194,0,0
159947,322.788,-208.606,0,0
160207,327.246,-206.195,0,0
160468,331.632,-203.791,0,0
160728,335.841,-200.91,0,0
160988,340.8,-199.37,0,0
161249,345.662,-197.501,0,0
161509,350.535,-195.697,0,0
161769,355.676,-194.468,0,0
162030,360.51,-192.926,0,0
162290,365.343,-191.375,0,0
162550,370.594,-190.494,0,0
162811,375.531,-189.216,0,0
163071,380.825,-188.586,0,0
163331,386.141,-188.233,0,0
163592,390.994,-187.681,0,0
163852,395.89,-187.443,0,0
164112,400.718,-187.287,0,0
164373,405.438,-187.409,0,0
164633,410.033,-187.589,0,0
164893,414.44,-187.83,0,0
165154,418.757,-188.081,0,0
165414,423.035,-188.529,0,0
165674,426.781,-188.332,0,0
165935,430.772,-188.542,0,0
166195,434.854,-189.041,0,0
166455,438.907,-189.442,0,0
166716,442.924,-189.926,0,0
166976,446.916,-190.489,0,0
167236,450.825,-191.014,0,0
167497,454.914,-191.885,0,0
167757,458.61,-192.352,0,0
168017,462.445,-193.254,0,0
168277,466.084,-193.991,0,0
168538,469.493,-194.737,0,0
168798,472.663,-195.051,0,0
169058,476.4,-195.889,0,0
169319,480.085,-196.838,0,0
169579,483.472,-197.48,0,0
169839,487.501,-198.912,0,0
170100,491.221,-200.121,0,0
170360.075,495.155,-201.654,0,0
170620.4,498.575,-202.639,0,0
170880.725,502.021,-203.758,0,0
171141.05,505.368,-204.896,0,0
171401.375,508.78,-206.229,0,0
171661.7,511.914,-207.537,0,0
171922.025,514.852,-208.458,0,0
172182.35,517.776,-209.613,0,0
172442.675,520.908,-210.863,0,0
172703.0,523.748,-211.896,0,0
172963.325,526.995,-213.557,0,0
173223.65,529.325,-214.412,0,0
173483.975,532.673,-216.358,0,0
173744.3,535.285,-217.761,0,0
174004.625,537.755,-218.73,0,0
174264.95,540.56,-220.075,0,0
174525.275,543.54,-221.516,0,0
174785.6,546.118,-222.578,0,0
175045.925,548.661,-223.505,0,0
175306.25,551.463,-224.718,0,0
175566.575,554.188,-225.964,0,0
175826.9,556.731,-226.984,0,0
176087.225,559.473,-228.225,0,0
176347.55,562.228,-229.431,0,0
176607.875,564.622,-230.007,0,0
176868.2,567.619,-231.113,0,0
177128.525,570.539,-232.169,0,0
177388.85,573.266,-233.333,0,0
177649.175,576.06,-234.768,0,0
177909.5,578.688,-236.023,0,0
178169.825,581.289,-237.262,0,0
178430.15,583.882,-238.593,0,0
178690.475,586.272,-239.979,0,0
178950.8,588.907,-241.593,0,0
179211.125,591.099,-242.826,0,0
179471.45,593.136,-243.91,0,0
179731.775,594.16,-244.02,0,0
179992.1,596.231,-245.16,0,0
180252.425,597.968,-246.173,0,0
180512.75,598.055,-245.159,0,0
180773.075,604.111,-250.233,0,0
181033.4,606.523,-251.401,0,0
181293.725,609.392,-252.893,0,0
181554.05,611.926,-253.835,0,0
181814.375,614.417,-254.584,0,0
182074.7,617.235,-255.616,0,0
182335.025,619.812,-256.498,0,0
182595.35,622.612,-257.437,0,0
182855.675,625.12,-258.069,0,0
183116.0,628.473,-259.587,0,0
183376.325,631.29,-260.577,0,0
183636.65,634.647,-262.068,0,0
183896.975,637.677,-263.273,0,0
184157.3,640.723,-264.666,0,0
184417.625,643.435,-265.698,0,0
184677.95,645.841,-266.498,0,0
184938.275,649.005,-267.997,0,0
185198.6,651.591,-268.804,0,0
185458.925,654.289,-269.739,0,0
185719.25,657.417,-270.977,0,0
185979.575,660.455,-271.97,0,0
186239.9,663.193,-272.681,0,0
186500,645.819,-252.812,0,0
186761,651.816,-256.685,0,0
187021,654.985,-257.513,0,0
187281,660.562,-260.849,0,0
187542,663.152,-260.804,0,0
187802,669.246,-263.834,0,0
188062,673.173,-264.772,0,0
188322,677.245,-265.609,0,0
188583,685.221,-270.197,0,0
188843,690.719,-272.233,0,0
189103,694.071,-272.085,0,0
189364,697.996,-272.415,0,0
189624,704.343,-275.022,0,0
189884,707.256,-274.448,0,0
190145,714.021,-277.514,0,0
190405,716.726,-276.84,0,0
190665,724.718,-281.23,0,0
190926,731.403,-284.615,0,0
191186,737.349,-287.22,0,0
191446,743.375,-290.156,0,0
191707,749.419,-293.287,0,0
191967,754.25,-295.476,0,0
192227,761.238,-300.11,0,0
192488,766.626,-303.574,0,0
192748,773.462,-308.652,0,0
193008,779.103,-312.951,0,0
193269,785.876,-318.808,0,0
193529,792.514,-324.959,0,0
193789,798.336,-330.754,0,0
194050,803.347,-336.249,0,0
194310,809.455,-343.177,0,0
194570,814.832,-349.922,0,0
194831,819.808,-356.691,0,0
195091,824.783,-363.888,0,0
195351,830.053,-372.037,0,0
195612,834.42,-379.587,0,0
195872,839.348,-388.236,0,0
196132,843.543,-396.626,0,0
196393,847.054,-404.697,0,0
196653,849.67,-412.512,0,0
196913,853.203,-421.852,0,0
197174,856.256,-431.135,0,0
197434,858.097,-439.543,0,0
197694,860.354,-449.005,0,0
197955,862.518,-459.116,0,0
198215,862.575,-466.127,0,0
198475,864.148,-476.38,0,0
198735,864.829,-485.712,0,0
198996,865.403,-495.579,0,0
199256,862.117,-498.65,0,0
199516,862.486,-509.035,0,0
199777,863.657,-521.459,0,0
200037,864.729,-534.488,0,0
200297,863.413,-543.82,0,0
200558,861.587,-552.394,0,0
200818,860.255,-562.505,0,0
201078,858.899,-573.481,0,0
201339,856.036,-581.334,0,0
201599,853.978,-592.226,0,0
201859,849.477,-596.46,0,0
202120,846.729,-606.54,0,0
202380.025,842.932,-614.25,0,0
202640.35,838.849,-622.602,0,0
202900.675,834.528,-629.441,0,0
203161.0,828.909,-631.266,0,0
203421.325,824.933,-640.378,0,0
203681.65,816.936,-633.719,0,0
203941.975,807.806,-622.405,0,0
204202.3,802.451,-625.904,0,0
204462.625,797.674,-632.021,0,0
204722.95,794.015,-645.045,0,0
204983.275,789.829,-656.442,0,0
205243.6,783.563,-656.445,0,0
205503.925,779.404,-672.69,0,0
205764.25,773.158,-672.72,0,0
206024.575,766.882,-677.516,0,0
206284.9,760.626,-677.768,0,0
206545.225,754.866,-685.49,0,0
206805.55,749.212,-695.682,0,0
207065.875,743.072,-701.398,0,0
207326.2,736.563,-704.776,0,0
207586.525,730.275,-706.99,0,0
207846.85,724.063,-713.324,0,0
208107.175,717.535,-723.926,0,0
208367.5,710.896,-727.097,0,0
208627.825,704.495,-730.264,0,0
208888.15,697.118,-744.107,0,0
209148.475,689.351,-757.768,0,0
209408.8,682.373,-763.037,0,0
209669.125,676.377,-758.715,0,0
209929.45,669.369,-762.566,0,0
210189.775,661.309,-771.6,0,0
210450.1,652.985,-783.082,0,0
210710.425,645.462,-787.154,0,0
210970.75,638.46,-788.988,0,0
211231.075,632.948,-783.989,0,0
211491.4,628.3,-776.751,0,0
211751.725,621.361,-778.447,0,0
212012.05,616.796,-771.205,0,0
212272.375,606.518,-786.93,0,0
212532.7,603.521,-774.907,0,0
212793.025,599.238,-768.075,0,0
213053.35,591.313,-774.455,0,0
213313.675,587.169,-768.071,0,0
213574.0,575.984,-783.872,0,0
213834.325,570.507,-783.057,0,0
214094.65,556.642,-802.892,0,0
214354.975,551.58,-799.346,0,0
214615.3,546.834,-795.923,0,0
214875.625,548.243,-777.02,0,0
215135.95,539.007,-785.363,0,0
215396.275,524.359,-805.099,0,0
215656.6,516.802,-807.751,0,0
215916.925,518.121,-791.967,0,0
216177.25,507.71,-800.706,0,0
216437.575,501.949,-799.904,0,0
216697.9,502.005,-787.535,0,0
216958.225,489.471,-800.766,0,0
217218.55,485.682,-796.344,0,0
217478.875,479.508,-796.555,0,0
217739.2,475.11,-793.657,0,0
217999.525,480.488,-772.019,0,0
218259.85,475.054,-772.075,0,0
218520,454.36,-798.709,0,0
218780,464.428,-770.679,0,0
219041,444.679,-794.404,0,0
219301,441.939,-789.284,0,0
219561,437.478,-786.878,0,0
219822,433.122,-784.312,0,0
220082,429.646,-780.55,0,0
220342,420.943,-784.815,0,0
220603,416.775,-782.287,0,0
220863,412.683,-779.981,0,0
221123,425.312,-751.981,0,0
221384,405.177,-774.28,0,0
221644,401.214,-771.976,0,0
221904,397.674,-769.194,0,0
222165,394.066,-766.616,0,0
222425,415.842,-726.249,0,0
222685,411.171,-726.186,0,0
222946,407.038,-725.211,0,0
223206,382.008,-754.605,0,0
223466,379.29,-751.75,0,0
223727,393.984,-724.501,0,0
223987,391.43,-721.423,0,0
224247,386.545,-722.247,0,0
224508,383.114,-721.151,0,0
224768,379.837,-719.6,0,0
225028,378.563,-715.799,0,0
225289,377.769,-710.963,0,0
225549,369.122,-717.912,0,0
225809,363.354,-720.174,0,0
226070,362.859,-715.876,0,0
226330,361.012,-713.29,0,0
226590,357.066,-713.717,0,0
226851,355.069,-711.741,0,0
227111,354.576,-708.017,0,0
227371,353.381,-705.255,0,0
227632,350.642,-704.706,0,0
227892,349.402,-702.145,0,0
228152,350.596,-696.653,0,0
228413,351.28,-691.918,0,0
228673,348.019,-692.497,0,0
228933,346.231,-691.323,0,0
229193,342.743,-692.247,0,0
229454,344.32,-686.963,0,0
229714,352.264,-672.917,0,0
229974,344.477,-680.266,0,0
230235,345.015,-676.469,0,0
230495,339.699,-680.626,0,0
230755,338.474,-679.451,0,0
231016,337.972,-677.344,0,0
231276,337.514,-675.272,0,0
231536,336.897,-673.488,0,0
231797,337.415,-670.384,0,0
232057,336.368,-669.335,0,0
232317,336.278,-667.123,0,0
232578,337.08,-663.822,0,0
232838,337.576,-661.087,0,0
233098,336.506,-660.459,0,0
233359,336.253,-658.723,0,0
233619,336.792,-656.251,0,0
233879,336.604,-654.711,0,0
234140,336.497,-653.286,0,0
234400,336.661,-651.366,0,0
234660.3,337.097,-649.652,0,0
234920.625,337.315,-647.768,0,0
235180.95,338.176,-645.418,0,0
235441.275,339.05,-643.168,0,0
235701.6,338.871,-642.168,0,0
235961.925,340.446,-639.003,0,0
236222.25,338.834,-640.421,0,0
236482.575,338.833,-639.705,0,0
236742.9,338.232,-640.074,0,0
237003.225,337.823,-640.126,0,0
237263.55,337.977,-639.494,0,0
237523.875,338.499,-638.581,0,0
237784.2,338.875,-637.927,0,0
238044.525,339.052,-637.642,0,0
238304.85,339.54,-636.971,0,0
238565.175,340.177,-636.283,0,0
238825.5,340.777,-635.547,0,0
239085.825,341.525,-634.746,0,0
239346.15,342.2,-634.091,0,0
239606.475,342.613,-633.912,0,0
239866.8,342.13,-635.283,0,0
240127.125,342.908,-634.587,0,0
240387.45,343.996,-633.278,0,0
240647.775,344.396,-633.164,0,0
240908.1,344.926,-632.992,0,0
241168.425,344.518,-634.111,0,0
241428.75,344.692,-634.317,0,0
241689.075,344.475,-635.126,0,0
241949.4,344.865,-635.053,0,0
242209.725,345.487,-634.681,0,0
242470.05,344.243,-637.024,0,0
242730.375,344.77,-636.657,0,0
242990.7,343.793,-638.47,0,0
243251.025,344.534,-637.66,0,0
243511.35,344.573,-637.665,0,0
243771.675,343.855,-638.941,0,0
244032.0,343.117,-640.114,0,0
244292.325,343.948,-638.71,0,0
244552.65,342.425,-640.885,0,0
244812.975,342.489,-640.418,0,0
245073.3,343.5,-638.525,0,0
245333.625,340.556,-642.286,0,0
245593.95,339.913,-642.501,0,0
245854.275,340.007,-641.616,0,0
246114.6,339.899,-640.61,0,0
246374.925,338.68,-641.397,0,0
246635.25,337.305,-642.138,0,0
246895.575,335.624,-643.13,0,0
247155.9,335.906,-641.441,0,0
247416.225,334.221,-642.051,0,0
247676.55,333.151,-641.741,0,0
247936.875,332.088,-641.523,0,0
248197.2,331.281,-640.883,0,0
248457.525,330.459,-640.166,0,0
248717.85,330.39,-638.212,0,0
248978.175,328.132,-639.306,0,0
249238.5,328.123,-637.683,0,0
249498.825,328.542,-635.557,0,0
249759.15,328.925,-633.817,0,0
250019.475,329.259,-632.48,0,0
250279.8,330.339,-630.763,0,0
250540,332.979,-627.64,0,0
250800,334.68,-626.336,0,0
251061,340.293,-619.725,0,0
251321,337.132,-626.805,0,0
251581,342.022,-622.71,0,0
251842,338.712,-631.053,0,0
252102,340.946,-631.535,0,0
252362,342.246,-633.467,0,0
252623,344.546,-634.116,0,0
252883,345.258,-637.014,0,0
253143,345.978,-639.611,0,0
253404,346.514,-642.391,0,0
253664,346.971,-644.874,0,0
253924,346.853,-647.887,0,0
254185,347.189,-649.84,0,0
254445,346.4,-653.039,0,0
254705,346.39,-654.772,0,0
254966,344.723,-658.184,0,0
255226,342.946,-661.656,0,0
255486,341.419,-664.333,0,0
255747,340.814,-665.119,0,0
256007,339.006,-667.265,0,0
256267,336.438,-670.096,0,0
256528,333.163,-673.328,0,0
256788,331.252,-674.893,0,0
257048,327.49,-678.165,0,0
257309,324.845,-679.743,0,0
257569,322.271,-681.027,0,0
257829,319.569,-682.193,0,0
258090,316.977,-683.031,0,0
258350,313.986,-684.189,0,0
258610,311.645,-684.501,0,0
258871,308.337,-685.574,0,0
259131,304.168,-687.547,0,0
259391,300.879,-688.321,0,0
259651,298.013,-688.541,0,0
259912,295.182,-688.762,0,0
260172,292.595,-688.444,0,0
260432,289.9,-688.259,0,0
260693,287.674,-687.657,0,0
260953,285.454,-686.909,0,0
261213,283.585,-685.858,0,0
261474,277.988,-688.203,0,0
261734,275.935,-687.288,0,0
261994,272.465,-687.69,0,0
262255,268.947,-687.921,0,0
262515,267.975,-685.916,0,0
262775,264.884,-685.822,0,0
263036,262.762,-684.9,0,0
263296,261.017,-683.656,0,0
263556,259.506,-682.152,0,0
263817,255.587,-682.759,0,0
264077,254.148,-681.288,0,0
264337,252.259,-680.183,0,0
264598,249.3,-680.006,0,0
264858,248.18,-678.224,0,0
265118,247.074,-676.417,0,0
265379,243,-677.274,0,0
265639,241.609,-675.844,0,0
265899,239.648,-674.951,0,0
266160,237.891,-673.776,0,0
266420,236.138,-672.768,0,0
266680.25,237.523,-669.458,0,0
266940.575,233.212,-670.507,0,0
267200.9,231.692,-669.431,0,0
267461.225,231.043,-667.729,0,0
267721.55,229.453,-666.705,0,0
267981.875,228.291,-665.352,0,0
268242.2,225.657,-665.196,0,0
268502.525,223.952,-664.538,0,0
268762.85,222.566,-663.515,0,0
269023.175,220.345,-663.102,0,0
269283.5,218.66,-662.37,0,0
269543.825,217.303,-661.378,0,0
269804.15,216.281,-660.125,0,0
270064.475,214.897,-659.129,0,0
270324.8,213.913,-657.954,0,0
270585.125,213.271,-656.449,0,0
270845.45,211.622,-655.601,0,0
271105.775,210.565,-654.302,0,0
271366.1,210.704,-652.248,0,0
271626.425,205.315,-653.901,0,0
271886.75,205.702,-651.528,0,0
272147.075,203.326,-651.124,0,0
272407.4,200.916,-650.668,0,0
272667.725,199.327,-649.62,0,0
272928.05,198.177,-648.217,0,0
273188.375,197.209,-646.809,0,0
273448.7,196.042,-645.457,0,0
273709.025,196.56,-642.97,0,0
273969.35,193.96,-642.607,0,0
274229.675,191.608,-641.898,0,0
274490.0,189.599,-641.041,0,0
274750.325,187.835,-640.135,0,0
275010.65,188.883,-637.212,0,0
275270.975,185.081,-637.387,0,0
275531.3,183.739,-636.145,0,0
275791.625,181.74,-635.183,0,0
276051.95,180.01,-634.059,0,0
276312.275,178.595,-632.738,0,0
276572.6,177.405,-631.237,0,0
276832.925,177.806,-628.773,0,0
277093.25,174.498,-628.527,0,0
277353.575,173.509,-626.903,0,0
277613.9,172.956,-625.016,0,0
277874.225,171.281,-623.771,0,0
278134.55,169.807,-622.43,0,0
278394.875,168.005,-621.259,0,0
278655.2,167.133,-619.57,0,0
278915.525,165.75,-618.16,0,0
279175.85,164.958,-616.447,0,0
279436.175,163.897,-614.939,0,0
279696.5,162.998,-613.335,0,0
279956.825,162.048,-611.794,0,0
280217.15,161.105,-610.365,0,0
280477.475,160.644,-608.616,0,0
280737.8,159.959,-607.162,0,0
280998.125,159.234,-605.739,0,0
281258.45,159.058,-604.104,0,0
281518.775,158.647,-602.625,0,0
281779.1,158.427,-601.144,0,0
282039.425,157.886,-599.918,0,0
282299.75,157.548,-598.584,0,0
282560,158.202,-596.849,0,0
282820,157.814,-595.661,0,0
283081,157.262,-594.564,0,0
283341,157.162,-593.274,0,0
283601,156.358,-592.434,0,0
283862,156.129,-591.247,0,0
284122,156.63,-589.691,0,0
284382,157.484,-588.006,0,0
284643,157.427,-586.765,0,0
284903,157.821,-585.305,0,0
285163,156.257,-584.858,0,0
285424,155.017,-584.335,0,0
285684,154.107,-583.583,0,0
285944,153.143,-582.986,0,0
286205,154.173,-581.208,0,0
286465,153.975,-580.112,0,0
286725,154.65,-578.622,0,0
286986,152.676,-578.506,0,0
287246,154.341,-576.482,0,0
287506,150.767,-577.33,0,0
287767,150.71,-576.297,0,0
288027,149.992,-575.602,0,0
288287,149.773,-574.722,0,0
288548,148.489,-574.421,0,0
288808,156.248,-569.16,0,0
289068,157.834,-567.278,0,0
289329,147.35,-572.211,0,0
289589,147.357,-571.348,0,0
289849,147.129,-570.558,0,0
290109,147.764,-569.255,0,0
290370,145.473,-569.643,0,0
290630,144.844,-569.011,0,0
290890,144.424,-568.28,0,0
291151,144.004,-567.587,0,0
291411,143.548,-566.839,0,0
291671,142.977,-566.155,0,0
291932,142.456,-565.388,0,0
292192,142.534,-564.323,0,0
292452,142.014,-563.508,0,0
292713,142.462,-562.196,0,0
292973,141.662,-561.539,0,0
293233,140.096,-561.216,0,0
293494,139.499,-560.431,0,0
293754,138.976,-559.582,0,0
294014,138.674,-558.578,0,0
294275,138.191,-557.702,0,0
294535,136.872,-557.244,0,0
294795,135.877,-556.517,0,0
295056,134.79,-555.844,0,0
295316,134.227,-554.934,0,0
295576,133.841,-553.859,0,0
295837,133.273,-552.895,0,0
296097,133.037,-551.79,0,0
296357,132.938,-550.562,0,0
296618,132.655,-549.448,0,0
296878,132.32,-548.396,0,0
297138,132.244,-547.223,0,0
297399,132.611,-545.859,0,0
297659,131.337,-545.31,0,0
297919,131.309,-544.214,0,0
298180,130.667,-543.464,0,0
298440,129.992,-542.768,0,0
298700.2,129.46,-542.131,0,0
298960.525,129.193,-541.333,0,0
299220.85,128.841,-540.65,0,0
299481.175,128.846,-539.793,0,0
299741.5,128.562,-539.191,0,0
300001.825,128.249,-538.57,0,0
300262.15,127.812,-538.061,0,0
300522.475,127.934,-537.294,0,0
300782.8,127.961,-536.539,0,0
301043.125,127.938,-535.873,0,0
301303.45,127.918,-535.243,0,0
301563.775,128.132,-534.468,0,0
301824.1,127.344,-534.212,0,0
302084.425,127.286,-533.529,0,0
302344.75,126.754,-533.127,0,0
302605.075,126.28,-532.67,0,0
302865.4,125.847,-532.186,0,0
303125.725,125.492,-531.647,0,0
303386.05,125.271,-531.016,0,0
303646.375,125.154,-530.364,0,0
303906.7,125.09,-529.634,0,0
304167.025,125.149,-528.857,0,0
304427.35,124.55,-528.414,0,0
304687.675,124.101,-527.823,0,0
304948.0,123.695,-527.177,0,0
305208.325,123.463,-526.488,0,0
305468.65,122.831,-525.91,0,0
305728.975,122.228,-525.408,0,0
305989.3,122.023,-524.629,0,0
306249.625,121.979,-523.795,0,0
306509.95,121.52,-523.135,0,0
306770.275,121.441,-522.35,0,0
307030.6,120.641,-521.817,0,0
307290.925,120.949,-520.879,0,0
307551.25,120.231,-520.292,0,0
307811.575,119.584,-519.681,0,0
308071.9,119.298,-518.926,0,0
308332.225,119.594,-517.91,0,0
308592.55,119.248,-517.156,0,0
308852.875,119.98,-515.935,0,0
309113.2,119.317,-515.333,0,0
309373.525,118.641,-514.779,0,0
309633.85,118.003,-514.13,0,0
309894.175,117.186,-513.64,0,0
310154.5,117.415,-512.659,0,0
310414.825,117.804,-511.609,0,0
310675.15,118.172,-510.542,0,0
310935.475,117.447,-510.012,0,0
311195.8,118.393,-508.653,0,0
311456.125,117.365,-508.268,0,0
311716.45,115.913,-508.093,0,0
311976.775,115.485,-507.39,0,0
312237.1,114.94,-506.725,0,0
312497.425,114.552,-506.123,0,0
312757.75,114.63,-505.137,0,0
313018.075,113.869,-504.614,0,0
313278.4,113.857,-503.775,0,0
313538.725,113.064,-503.228,0,0
313799.05,112.363,-502.629,0,0
314059.375,112.086,-501.892,0,0
314319.7,111.538,-501.258,0,0
314580,109.656,-501.339,0,0
314840,109.384,-500.53,0,0
315101,109.026,-499.861,0,0
315361,108.721,-499.129,0,0
315621,108.51,-498.37,0,0
315882,108.472,-497.593,0,0
316142,108.171,-496.89,0,0
316402,108.331,-495.991,0,0
316663,107.892,-495.27,0,0
316923,107.919,-494.472,0,0
317183,108.167,-493.636,0,0
317444,108.069,-492.854,0,0
317704,108.047,-492.003,0,0
317964,107.74,-491.398,0,0
318225,107.604,-490.678,0,0
318485,107.37,-489.93,0,0
318745,107.501,-489.145,0,0
319006,107.763,-488.274,0,0
319266,106.557,-488.07,0,0
319526,105.667,-487.624,0,0
319787,104.866,-487.204,0,0
320047,104.376,-486.691,0,0
320307,105.006,-485.686,0,0
320567,104.04,-485.272,0,0
320828,104.042,-484.61,0,0
321088,103.936,-483.98,0,0
321348,103.588,-483.392,0,0
321609,103.448,-482.718,0,0
321869,103.115,-482.183,0,0
322129,102.801,-481.656,0,0
322390,102.756,-480.979,0,0
322650,102.955,-480.163,0,0
322910,102.311,-479.747,0,0
323171,101.615,-479.416,0,0
323431,100.971,-478.96,0,0
323691,100.747,-478.346,0,0
323952,100.389,-477.837,0,0
324212,100.005,-477.302,0,0
324472,99.9333,-476.683,0,0
324733,99.8327,-476.017,0,0
324993,99.9093,-475.23,0,0
325253,99.217,-474.888,0,0
325514,99.0025,-474.203,0,0
325774,98.7926,-473.58,0,0
326034,98.5969,-472.99,0,0
326295,97.7556,-472.593,0,0
326555,97.391,-472.002,0,0
326815,96.8644,-471.473,0,0
327076,96.4525,-470.917,0,0
327336,96.1044,-470.308,0,0
327596,95.8038,-469.665,0,0
327857,95.4123,-469.112,0,0
328117,95.2795,-468.367,0,0
328377,95.0245,-467.761,0,0
328638,95.0005,-467,0,0
328898,94.9502,-466.197,0,0
329158,94.4025,-465.673,0,0
329419,93.5607,-465.296,0,0
329679,93.2032,-464.645,0,0
329939,93.0968,-463.898,0,0
330200,92.8006,-463.304,0,0
330460,92.5425,-462.641,0,0
330720.15,92.1877,-462.049,0,0
330980.475,92.0477,-461.423,0,0
331240.8,91.6875,-460.842,0,0
331501.125,91.4619,-460.127,0,0
331761.45,91.4218,-459.376,0,0
332021.775,91.3673,-458.651,0,0
332282.1,91.4424,-457.868,0,0
332542.425,91.5498,-457.146,0,0
332802.75,90.4607,-456.828,0,0
333063.075,90.2459,-456.18,0,0
333323.4,90.1499,-455.546,0,0
333583.725,89.8799,-454.881,0,0
333844.05,89.7755,-454.221,0,0
334104.375,89.5237,-453.623,0,0
334364.7,89.336,-452.994,0,0
334625.025,89.2532,-452.337,0,0
334885.35,89.1189,-451.708,0,0
335145.675,89.1274,-450.979,0,0
335406.0,88.7983,-450.452,0,0
335666.325,88.5983,-449.854,0,0
335926.65,88.3072,-449.258,0,0
336186.975,88.3507,-448.573,0,0
336447.3,88.5353,-447.802,0,0
336707.625,88.1802,-447.287,0,0
336967.95,88.0424,-446.638,0,0
337228.275,87.7899,-446.034,0,0
337488.6,87.6276,-445.391,0,0
337748.925,87.3537,-444.879,0,0
338009.25,87.6376,-444.064,0,0
338269.575,87.6376,-443.373,0,0
338529.9,87.5457,-442.794,0,0
338790.225,87.5151,-442.109,0,0
339050.55,87.4076,-441.538,0,0
339310.875,87.2995,-440.864,0,0
339571.2,86.5948,-440.479,0,0
339831.525,86.3536,-439.899,0,0
340091.85,86.4653,-439.219,0,0
340352.175,86.4891,-438.596,0,0
340612.5,86.2398,-438.024,0,0
340872.825,86.3684,-437.303,0,0
341133.15,86.0348,-436.804,0,0
341393.475,86.0122,-436.134,0,0
341653.8,86.0399,-435.456,0,0
341914.125,85.8767,-434.873,0,0
342174.45,85.5747,-434.356,0,0
342434.775,84.604,-434.067,0,0
342695.1,84.3835,-433.482,0,0
342955.425,84.2392,-432.914,0,0
343215.75,84.0961,-432.287,0,0
343476.075,84.0427,-431.736,0,0
343736.4,83.855,-431.143,0,0
343996.725,83.3497,-430.715,0,0
344257.05,83.2165,-430.163,0,0
344517.375,82.9719,-429.636,0,0
344777.7,83.0779,-428.955,0,0
345038.025,83.1971,-428.263,0,0
345298.35,83.1316,-427.664,0,0
345558.675,82.9999,-427.128,0,0
345819.0,82.6673,-426.647,0,0
346079.325,82.8808,-425.97,0,0
346339.65,83.5111,-425.09,0,0
346599.975,82.7925,-424.756,0,0
346860,82.0658,-424.377,0,0
347121,81.608,-423.984,0,0
347381,82.2417,-423.119,0,0
347641,82.2425,-422.547,0,0
347902,81.2916,-422.282,0,0
348162,81.1572,-421.728,0,0
348422,81.0247,-421.152,0,0
348683,80.7538,-420.648,0,0
348943,80.1993,-420.277,0,0
349203,80.9124,-419.408,0,0
349464,80.8168,-418.806,0,0
349724,79.8798,-418.559,0,0
349984,79.8925,-417.889,0,0
350245,80.5444,-417.079,0,0
350505,80.0006,-416.694,0,0
350765,79.7021,-416.163,0,0
351025,79.202,-415.734,0,0
351286,79.6566,-414.973,0,0
351546,80.2494,-414.141,0,0
351806,78.9591,-413.98,0,0
352067,78.7812,-413.44,0,0
352327,78.7237,-412.864,0,0
352587,78.3884,-412.369,0,0
352848,78.9754,-411.546,0,0
353108,77.9334,-411.309,0,0
353368,78.0718,-410.644,0,0
353629,77.9714,-410.059,0,0
353889,77.5706,-409.602,0,0
354149,78.3507,-408.725,0,0
354410,77.6389,-408.334,0,0
354670,77.435,-407.847,0,0
354930,77.1727,-407.29,0,0
355191,76.68,-406.91,0,0
355451,76.5827,-406.287,0,0
355711,76.6688,-405.674,0,0
355972,76.7518,-404.976,0,0
356232,76.235,-404.552,0,0
356492,75.9908,-404.041,0,0
356753,76.1472,-403.323,0,0
357013,76.0301,-402.783,0,0
357273,76.4486,-402.011,0,0
357534,76.1635,-401.501,0,0
357794,77.1852,-400.487,0,0
358054,76.5519,-400.123,0,0
358315,76.1344,-399.695,0,0
358575,75.7415,-399.174,0,0
358835,75.3645,-398.697,0,0
359096,75.39,-398.102,0,0
359356,75.9471,-397.227,0,0
359616,75.224,-396.893,0,0
359877,75.0485,-396.32,0,0
360137,75.0853,-395.705,0,0
360397,75.3703,-394.97,0,0
360658,75.9702,-394.101,0,0
360918,76.3481,-393.358,0,0
361178,75.6308,-393.024,0,0
361438,75.4111,-392.383,0,0
361699,75.3503,-391.806,0,0
361959,75.3704,-391.246,0,0
362219,75.4509,-390.574,0,0
362480,76.3162,-389.641,0,0
362740.1,74.176,-389.83,0,0
363000.425,74.0515,-389.276,0,0
363260.75,74.1059,-388.592,0,0
363521.075,74.0589,-388.013,0,0
363781.4,74.167,-387.306,0,0
364041.725,74.1589,-386.69,0,0
364302.05,74.3102,-386.022,0,0
364562.375,73.2719,-385.808,0,0
364822.7,73.2327,-385.154,0,0
365083.025,72.8541,-384.698,0,0
365343.35,72.4947,-384.236,0,0
365603.675,72.5723,-383.562,0,0
365864.0,72.2838,-383.089,0,0
366124.325,73.4624,-381.991,0,0
366384.65,72.6575,-381.727,0,0
366644.975,72.519,-381.12,0,0
366905.3,72.1911,-380.622,0,0
367165.625,72.3127,-379.995,0,0
367425.95,72.1699,-379.437,0,0
367686.275,72.0863,-378.858,0,0
367946.6,72.1596,-378.244,0,0
368206.925,72.213,-377.632,0,0
368467.25,72.349,-377.015,0,0
368727.575,72.3136,-376.445,0,0
368987.9,72.6153,-375.722,0,0
369248.225,72.8824,-375.016,0,0
369508.55,72.7596,-374.485,0,0
369768.875,72.2489,-374.086,0,0
370029.2,72.8238,-373.308,0,0
370289.525,72.6102,-372.851,0,0
370549.85,72.2623,-372.405,0,0
370810.175,72.916,-371.614,0,0
371070.5,72.8954,-371.071,0,0
371330.825,73.4658,-370.299,0,0
371591.15,72.0012,-370.327,0,0
371851.475,72.0565,-369.752,0,0
372111.8,72.5051,-369.048,0,0
372372.125,72.1044,-368.695,0,0
372632.45,71.9094,-368.262,0,0
372892.775,72.0344,-367.727,0,0
373153.1,72.4424,-367.034,0,0
373413.425,72.3482,-366.607,0,0
373673.75,72.1506,-366.191,0,0
373934.075,72.9256,-365.4,0,0
374194.4,75.9793,-363.724,0,0
374454.725,71.271,-365.15,0,0
374715.05,72.4679,-364.234,0,0
374975.375,72.6922,-363.705,0,0
375235.7,72.5009,-363.364,0,0
375496.025,72.2705,-363.05,0,0
375756.35,73.0083,-362.371,0,0
376016.675,72.6211,-362.111,0,0
376277.0,72.8304,-361.598,0,0
376537.325,72.3237,-361.414,0,0
376797.65,72.2426,-361.032,0,0
377057.975,71.7663,-360.798,0,0
377318.3,71.3834,-360.502,0,0
377578.625,71.7541,-359.924,0,0
377838.95,71.709,-359.484,0,0
378099.275,71.3952,-359.161,0,0
378359.6,71.5948,-358.554,0,0
378619.925,71.1893,-358.259,0,0
378880,72.2787,-357.407,0,0
379141,71.7001,-357.123,0,0
379401,71.3077,-356.718,0,0
379661,71.0089,-356.326,0,0
379922,71.1217,-355.725,0,0
380182,70.6454,-355.349,0,0
380442,70.4624,-354.869,0,0
380703,70.5172,-354.303,0,0
380963,70.336,-353.852,0,0
381223,70.3384,-353.287,0,0
381483,70.1942,-352.862,0,0
381744,70.181,-352.311,0,0
382004,70.4224,-351.741,0,0
382264,70.5104,-351.178,0,0
382525,70.999,-350.492,0,0
382785,70.6645,-350.209,0,0
383045,70.7322,-349.661,0,0
383306,70.1979,-349.412,0,0
383566,70.2715,-348.865,0,0
383826,70.4472,-348.296,0,0
384087,70.5518,-347.716,0,0
384347,70.2925,-347.311,0,0
384607,70.907,-346.565,0,0
384868,70.3207,-346.268,0,0
385128,70.018,-345.818,0,0
385388,69.9175,-345.324,0,0
385649,70.131,-344.679,0,0
385909,70.081,-344.178,0,0
386169,70.1025,-343.598,0,0
386430,70.0254,-343.016,0,0
386690,70.0577,-342.442,0,0
386950,70.0934,-341.858,0,0
387211,70.0747,-341.277,0,0
387471,70.1594,-340.683,0,0
387731,73.2614,-338.789,0,0
387992,69.5081,-339.753,0,0
388252,69.176,-339.307,0,0
388512,68.8908,-338.866,0,0
388773,68.9132,-338.28,0,0
389033,68.9725,-337.641,0,0
389293,69.0933,-337.043,0,0
389554,68.979,-336.463,0,0
389814,69.5789,-335.679,0,0
390074,69.1786,-335.239,0,0
390335,69.2182,-334.655,0,0
390595,68.9177,-334.164,0,0
390855,70.1929,-333.064,0,0
391116,68.7955,-333.019,0,0
391376,68.6853,-332.522,0,0
391636,69.0616,-331.754,0,0
391896,68.7008,-331.315,0,0
392157,69.2164,-330.543,0,0
392417,69.1454,-329.994,0,0
392677,69.2435,-329.364,0,0
392938,69.6051,-328.677,0,0
393198,69.5789,-328.049,0,0
393458,69.4076,-327.597,0,0
393719,69.8423,-326.814,0,0
393979,69.4702,-326.391,0,0
394239,69.4085,-325.852,0,0
394500,69.4677,-325.236,0,0
394760.05,68.9999,-324.886,0,0
395020.375,69.1543,-324.246,0,0
395280.7,68.7754,-323.844,0,0
395541.025,69.0522,-323.16,0,0
395801.35,69.6219,-322.312,0,0
396061.675,69.4481,-321.835,0,0
396322.0,69.1881,-321.364,0,0
396582.325,69.4808,-320.658,0,0
396842.65,69.2316,-320.188,0,0
397102.975,69.2677,-319.646,0,0
397363.3,69.3992,-319.007,0,0
397623.625,70.6047,-317.937,0,0
397883.95,70.2738,-317.469,0,0
398144.275,69.7105,-317.192,0,0
398404.6,69.9608,-316.478,0,0
398664.925,70.0317,-315.902,0,0
398925.25,69.9333,-315.389,0,0
399185.575,70.2477,-314.719,0,0
399445.9,70.3734,-314.13,0,0
399706.225,70.692,-313.433,0,0
399966.55,71.0896,-312.7,0,0
400006.6,71.0222,-312.651,0,0