File: Accelerated corrosion test data/2025-10-20_18-00-03/sample_7.csv
Frequency (Hz),Impedance (ohms),Phase (Radians),Temperature (C),Humidity (%)
10000.0,273.469,-12102.5,0,0
10260.325,274.902,-11811.8,0,0
10520.65,257.378,-11510.7,0,0
10780.975,251.869,-11229,0,0
11041.3,249.109,-10961.3,0,0
11301.625,246.279,-10705,0,0
11561.95,248.354,-10455.7,0,0
11822.275,257.952,-10226.7,0,0
12082.6,264.439,-10005.1,0,0
12342.925,326.087,-9823.38,0,0
12603.25,261.872,-9661.59,0,0
12863.575,270.109,-9455.14,0,0
13123.9,237.926,-9284.47,0,0
13384.225,231.395,-9108.07,0,0
13644.55,220.346,-8922.25,0,0
13904.875,207.696,-8761.72,0,0
14165.2,203.447,-8589.43,0,0
14425.525,206.124,-8452.44,0,0
14685.8,202.843,-8296.18,0,0
14946.175,197.999,-8149.7,0,0
15206.5,197.32,-8019.28,0,0
15466.825,183.784,-7878.24,0,0
15727.15,185.513,-7749.78,0,0
15987.5,179.329,-7621.12,0,0
16247.8,178.123,-7500.44,0,0
16508.125,171.108,-7379.42,0,0
16768.45,169.79,-7260.99,0,0
17028.775,169.551,-7150.19,0,0
17289.1,167.254,-7042.75,0,0
17549.425,165.533,-6933.27,0,0
17809.75,166.585,-6824.65,0,0
18070.075,167.847,-6726.87,0,0
18330.4,174.116,-6619.76,0,0
18590.725,194.215,-6529.64,0,0
18851.05,193.566,-6469.27,0,0
19111.375,183.644,-6386.64,0,0
19371.7,211.059,-6300.94,0,0
19632.025,173.598,-6243.72,0,0
19892.35,157.046,-6144.3,0,0
20152.675,168.914,-6059.52,0,0
20413.0,171.059,-5982.04,0,0
20673.3,171.122,-5906.07,0,0
20933.65,182.192,-5846.73,0,0
21193.975,162.397,-5789.7,0,0
21454.3,152.865,-5713.77,0,0
21714.625,157.518,-5646.88,0,0
21974.9,145.623,-5584.66,0,0
22235.275,139.376,-5514.68,0,0
22495.6,137.808,-5448.94,0,0
22755.925,132.751,-5386.44,0,0
23016.25,129.46,-5322.92,0,0
23276.6,127.369,-5260.4,0,0
23536.9,127.228,-5199.12,0,0
23797.225,127.383,-5143.19,0,0
24057.55,123.762,-5086.72,0,0
24317.875,121.769,-5029.5,0,0
24578.2,123.005,-4974.03,0,0
24838.525,121.3,-4920.97,0,0
25098.85,120.19,-4869.47,0,0
25359.175,118.883,-4817,0,0
25619.5,117.663,-4764.71,0,0
25879.8,118.456,-4714.8,0,0
26140.1,117.42,-4663.96,0,0
26400.5,122.422,-4615.24,0,0
26660.8,119.285,-4569.6,0,0
26921.1,119.673,-4519.54,0,0
27181.4,124.908,-4470.44,0,0
27441.8,129.512,-4425.01,0,0
27702.1,137.851,-4375.86,0,0
27962.4,151.274,-4330.39,0,0
28222.7,177.282,-4293.45,0,0
28483.1,193.38,-4280.46,0,0
28743.4,194.987,-4270.03,0,0
29003.7,176.703,-4256.76,0,0
29264,153.849,-4224.26,0,0
29524.4,140.766,-4184.24,0,0
29784.7,133.764,-4143.28,0,0
30045,127.07,-4101.15,0,0
30305.3,127.108,-4061.77,0,0
30565.7,129.338,-4025.98,0,0
30826,130.896,-3992.27,0,0
31086.3,131.487,-3963.01,0,0
31346.6,128.754,-3933.02,0,0
31607,130.334,-3905.62,0,0
31867.3,119.984,-3877.41,0,0
32127.6,117.867,-3844.29,0,0
32387.9,114.585,-3814.27,0,0
32648.3,111.07,-3785.11,0,0
32908.6,107.467,-3754.6,0,0
33168.9,104.027,-3724.95,0,0
33429.2,101.074,-3694.78,0,0
33689.6,98.0833,-3664.52,0,0
33949.9,96.4764,-3635.12,0,0
34210.2,94.5358,-3606.06,0,0
34470.5,92.9054,-3577.72,0,0
34730.9,91.4784,-3549.25,0,0
34991.2,90.5025,-3521.51,0,0
35251.5,89.601,-3494.49,0,0
35511.8,88.705,-3467.57,0,0
35772.2,88.1592,-3441.23,0,0
36032.5,87.8626,-3415.17,0,0
36292.8,87.368,-3390.17,0,0
36553.1,86.3855,-3365.01,0,0
36813.5,85.907,-3340.01,0,0
37073.8,85.6188,-3315.42,0,0
37334.1,85.5619,-3291.32,0,0
37594.4,85.2981,-3267.61,0,0
37854.8,84.6461,-3244.45,0,0
38115.1,84.3935,-3220.45,0,0
38375.4,85.0092,-3196.8,0,0
38635.7,86.1336,-3173.85,0,0
38896.1,87.4586,-3150.91,0,0
39156.4,89.9448,-3129,0,0
39416.7,93.1362,-3107.46,0,0
39677,97.5445,-3089.1,0,0
39937.4,99.9684,-3073.92,0,0
40197.7,99.5791,-3058.67,0,0
40458,97.3437,-3043.62,0,0
40718.3,93.1924,-3026.21,0,0
40978.7,89.5362,-3007.7,0,0
41239,86.9439,-2988.39,0,0
41499.3,84.5662,-2968.74,0,0
41759.6,83.4049,-2949.48,0,0
42020,81.8732,-2930.64,0,0
42280.275,80.068,-2911.7,0,0
42540.6,79.0084,-2892.04,0,0
42800.925,79.4497,-2873.16,0,0
43061.25,79.4713,-2854.93,0,0
43321.575,80.47,-2837.94,0,0
43581.9,78.6699,-2820.73,0,0
43842.225,78.2125,-2802.52,0,0
44102.55,79.2572,-2784.64,0,0
44362.875,81.1501,-2768.21,0,0
44623.2,82.4564,-2753.64,0,0
44883.525,82.2531,-2740.35,0,0
45143.85,80.0607,-2725.27,0,0
45404.175,78.4268,-2709.41,0,0
45664.5,78.4515,-2692.19,0,0
45924.825,80.0189,-2678.29,0,0
46185.15,79.0355,-2665.54,0,0
46445.475,76.9891,-2652.04,0,0
46705.8,74.2411,-2637.64,0,0
46966.125,71.955,-2621.79,0,0
47226.45,70.8913,-2605.88,0,0
47486.775,70.1324,-2590.85,0,0
47747.1,69.7669,-2575.68,0,0
48007.425,69.7244,-2561.32,0,0
48267.75,69.4126,-2547.14,0,0
48528.075,68.5975,-2533.25,0,0
48788.4,68.0938,-2519.14,0,0
49048.725,67.4742,-2505.34,0,0
49309.05,66.8388,-2491.56,0,0
49569.375,66.618,-2477.95,0,0
49829.7,66.178,-2464.51,0,0
50090.025,65.9784,-2451.13,0,0
50350.35,65.4377,-2438.07,0,0
50610.675,65.3112,-2424.94,0,0
50871.0,64.9435,-2412.3,0,0
51131.325,64.6193,-2399.49,0,0
51391.65,64.3141,-2386.94,0,0
51651.975,64.022,-2374.44,0,0
51912.3,63.5689,-2362.12,0,0
52172.625,63.5254,-2349.9,0,0
52432.95,63.5008,-2337.85,0,0
52693.275,63.1866,-2325.75,0,0
52953.6,63.2355,-2313.89,0,0
53213.925,63.1933,-2302.44,0,0
53474.25,63.0357,-2291.18,0,0
53734.575,62.728,-2279.97,0,0
53994.9,62.1815,-2268.75,0,0
54255.225,61.7833,-2257.47,0,0
54515.55,61.5902,-2246.25,0,0
54775.875,61.3177,-2235.24,0,0
55036.2,60.9875,-2224.31,0,0
55296.525,60.6417,-2213.31,0,0
55556.85,60.3276,-2202.6,0,0
55817.175,60.1096,-2191.89,0,0
56077.5,59.7561,-2181.21,0,0
56337.825,59.7288,-2170.49,0,0
56598.15,59.7364,-2160.16,0,0
56858.475,59.4882,-2149.98,0,0
57118.8,59.5556,-2139.83,0,0
57379.125,59.2741,-2129.7,0,0
57639.45,59.0977,-2119.84,0,0
57899.775,58.7674,-2109.89,0,0
58160.1,58.585,-2099.75,0,0
58420.4,59.0121,-2089.83,0,0
58680.7,59.2307,-2080.4,0,0
58941.1,59.0495,-2071.18,0,0
59201.4,58.8206,-2061.86,0,0
59461.7,58.7931,-2052.31,0,0
59722,59.0703,-2043.12,0,0
59982.4,58.9119,-2034.32,0,0
60242.7,58.9452,-2025.3,0,0
60503,58.8427,-2016.89,0,0
60763.3,58.3126,-2008.11,0,0
61023.7,57.9126,-1999.4,0,0
61284,57.4536,-1990.65,0,0
61544.3,57.1252,-1982.02,0,0
61804.6,56.6919,-1973.45,0,0
62065,56.2888,-1964.85,0,0
62325.3,55.918,-1956.13,0,0
62585.6,55.6737,-1947.41,0,0
62845.9,55.53,-1938.89,0,0
63106.3,55.3333,-1930.45,0,0
63366.6,55.1517,-1922.1,0,0
63626.9,55.1371,-1913.64,0,0
63887.2,54.9509,-1905.71,0,0
64147.6,54.724,-1897.6,0,0
64407.9,54.4505,-1889.42,0,0
64668.2,54.3836,-1881.29,0,0
64928.5,54.3803,-1873.3,0,0
65188.9,54.3177,-1865.34,0,0
65449.2,54.6012,-1857.55,0,0
65709.5,54.5948,-1850.2,0,0
65969.8,54.4382,-1842.9,0,0
66230.2,54.2414,-1835.4,0,0
66490.5,54.0316,-1828.19,0,0
66750.8,53.6577,-1820.83,0,0
67011.1,53.2147,-1813.54,0,0
67271.5,52.7177,-1806.05,0,0
67531.8,52.3581,-1798.58,0,0
67792.1,52.2016,-1791.07,0,0
68052.4,51.9002,-1783.9,0,0
68312.8,51.7517,-1776.53,0,0
68573.1,51.5196,-1769.26,0,0
68833.4,51.3782,-1762.2,0,0
69093.7,51.2485,-1755.02,0,0
69354.1,51.1998,-1747.91,0,0
69614.4,51.0793,-1740.89,0,0
69874.7,50.8802,-1733.95,0,0
70135,50.8306,-1727.12,0,0
70395.4,50.7128,-1720.34,0,0
70655.7,50.5575,-1713.61,0,0
70916,50.7158,-1706.77,0,0
71176.3,50.6807,-1700.26,0,0
71436.7,50.6001,-1693.72,0,0
71697,50.351,-1687.43,0,0
71957.3,50.0941,-1680.86,0,0
72217.6,49.9373,-1674.41,0,0
72478,49.6968,-1668.01,0,0
72738.3,49.5072,-1661.62,0,0
72998.6,49.2973,-1655.18,0,0
73258.9,49.1781,-1648.88,0,0
73519.3,48.9324,-1642.5,0,0
73779.6,48.8205,-1636.21,0,0
74039.9,48.718,-1629.97,0,0
74300.225,48.6024,-1623.75,0,0
74560.55,48.524,-1617.62,0,0
74820.875,48.3603,-1611.54,0,0
75081.2,48.2424,-1605.38,0,0
75341.525,48.2488,-1599.44,0,0
75601.85,48.0877,-1593.45,0,0
75862.175,47.9739,-1587.53,0,0
76122.5,47.8228,-1581.59,0,0
76382.825,47.7539,-1575.67,0,0
76643.15,47.6523,-1569.79,0,0
76903.475,47.5331,-1563.97,0,0
77163.8,47.5787,-1558.18,0,0
77424.125,47.521,-1552.42,0,0
77684.45,47.5121,-1546.69,0,0
77944.775,47.4189,-1541.13,0,0
78205.1,47.3604,-1535.48,0,0
78465.425,47.2491,-1529.94,0,0
78725.75,47.1938,-1524.34,0,0
78986.075,47.1337,-1518.82,0,0
79246.4,47.1669,-1513.28,0,0
79506.725,47.1474,-1507.83,0,0
79767.05,47.0564,-1502.46,0,0
80027.375,47.0405,-1497.07,0,0
80287.7,47.0074,-1491.78,0,0
80548.025,46.9875,-1486.5,0,0
80808.35,46.8854,-1481.28,0,0
81068.675,46.7943,-1476.06,0,0
81329.0,46.6839,-1470.86,0,0
81589.325,46.6343,-1465.62,0,0
81849.65,46.5729,-1460.46,0,0
82109.975,46.4388,-1455.28,0,0
82370.3,46.4113,-1450.04,0,0
82630.625,46.3641,-1444.9,0,0
82890.95,46.3592,-1439.79,0,0
83151.275,46.3712,-1434.8,0,0
83411.6,46.3263,-1429.77,0,0
83671.925,46.2631,-1424.72,0,0
83932.25,46.2972,-1419.65,0,0
84192.575,46.3841,-1414.79,0,0
84452.9,46.389,-1409.82,0,0
84713.225,46.4458,-1404.95,0,0
84973.55,46.5185,-1400.18,0,0
85233.875,46.6032,-1395.45,0,0
85494.2,46.6652,-1390.73,0,0
85754.525,46.5711,-1386.08,0,0
86014.85,46.5297,-1381.29,0,0
86275.175,46.5243,-1376.54,0,0
86535.5,46.6391,-1371.94,0,0
86795.825,46.6233,-1367.44,0,0
87056.15,46.4807,-1362.73,0,0
87316.475,46.5614,-1358.09,0,0
87576.8,46.6773,-1353.65,0,0
87837.125,46.714,-1349.08,0,0
88097.45,46.6617,-1344.73,0,0
88357.775,46.5714,-1340.28,0,0
88618.1,46.49,-1335.82,0,0
88878.425,46.3725,-1331.46,0,0
89138.75,46.1535,-1327.02,0,0
89399.075,46.0587,-1322.47,0,0
89659.4,46.0344,-1317.95,0,0
89919.725,46.012,-1313.39,0,0
90180,46.0242,-1309.05,0,0
90440.4,45.9919,-1304.54,0,0
90700.7,46.0798,-1300.1,0,0
90961,46.1757,-1295.77,0,0
91221.3,46.1055,-1291.47,0,0
91481.7,46.1268,-1287.09,0,0
91742,46.2685,-1282.68,0,0
92002.3,46.3339,-1278.43,0,0
92262.6,46.3211,-1274.1,0,0
92523,46.5201,-1269.74,0,0
92783.3,46.3845,-1265.38,0,0
93043.6,46.5765,-1261.03,0,0
93303.9,46.7813,-1256.5,0,0
93564.3,47.2623,-1251.93,0,0
93824.6,48.1042,-1247.64,0,0
94084.9,49.0309,-1243.6,0,0
94345.2,50.0121,-1240.04,0,0
94605.6,50.7046,-1236.9,0,0
94865.9,50.859,-1234.06,0,0
95126.2,50.5265,-1230.91,0,0
95386.5,50.1692,-1227.36,0,0
95646.9,49.7234,-1223.91,0,0
95907.2,49.1565,-1220.06,0,0
96167.5,48.769,-1216.03,0,0
96427.8,48.5436,-1212.04,0,0
96688.2,48.3896,-1207.89,0,0
96948.5,48.336,-1203.79,0,0
97208.8,48.4472,-1199.74,0,0
97469.1,48.5228,-1195.89,0,0
97729.5,48.5939,-1191.87,0,0
97989.8,48.8676,-1187.96,0,0
98250.1,49.1415,-1184.33,0,0
98510.4,49.2175,-1180.59,0,0
98770.8,49.2806,-1176.98,0,0
99031.1,49.3721,-1173.35,0,0
99291.4,49.2605,-1169.76,0,0
99551.7,49.1341,-1166.03,0,0
99812.1,48.8505,-1162.14,0,0
100072,48.8403,-1157.98,0,0
100333,49.2536,-1153.88,0,0
100593,49.7616,-1150.17,0,0
100853,49.9678,-1146.57,0,0
101114,50.1438,-1142.7,0,0
101374,50.6847,-1138.95,0,0
101634,51.0145,-1135.52,0,0
101895,51.2339,-1131.83,0,0
102155,51.7042,-1128.23,0,0
102415,52.0635,-1124.64,0,0
102676,52.5673,-1121.15,0,0
102936,53.0155,-1117.73,0,0
103196,53.5334,-1114.26,0,0
103457,54.1458,-1110.98,0,0
103717,54.8178,-1107.85,0,0
103977,55.338,-1105.21,0,0
104238,55.1131,-1102.44,0,0
104498,55.1282,-1099.03,0,0
104758,55.451,-1095.75,0,0
105019,55.8981,-1092.87,0,0
105279,55.7467,-1090.1,0,0
105539,55.5236,-1087.07,0,0
105800,55.3343,-1083.77,0,0
106060,55.3094,-1080.46,0,0
106320.175,55.0761,-1077.13,0,0
106580.5,55.1527,-1073.58,0,0
106840.825,55.273,-1070.08,0,0
107101.15,55.6635,-1066.77,0,0
107361.475,55.8214,-1063.65,0,0
107621.8,55.9125,-1060.31,0,0
107882.125,56.0568,-1057.1,0,0
108142.45,56.0742,-1053.73,0,0
108402.775,56.366,-1050.3,0,0
108663.1,56.7649,-1046.96,0,0
108923.425,57.0915,-1043.95,0,0
109183.75,57.1061,-1040.81,0,0
109444.075,57.1792,-1037.47,0,0
109704.4,57.3516,-1034.11,0,0
109964.725,57.4762,-1030.64,0,0
110225.05,57.6854,-1027.14,0,0
110485.375,58.0207,-1023.45,0,0
110745.7,58.6277,-1019.89,0,0
111006.025,59.3758,-1016.35,0,0
111266.35,60.2081,-1013.09,0,0
111526.675,60.8155,-1009.95,0,0
111787.0,61.3298,-1006.56,0,0
112047.325,62.1142,-1003.09,0,0
112307.65,63.2189,-999.607,0,0
112567.975,64.2713,-996.417,0,0
112828.3,65.3628,-993.322,0,0
113088.625,66.6327,-990.249,0,0
113348.95,68.0711,-987.552,0,0
113609.275,69.2459,-985.125,0,0
113869.6,69.9758,-982.388,0,0
114129.925,70.9696,-979.474,0,0
114390.25,72.3674,-976.693,0,0
114650.575,73.8069,-974.052,0,0
114910.9,75.2263,-971.729,0,0
115171.225,76.3921,-969.28,0,0
115431.55,77.8454,-966.913,0,0
115691.875,79.2895,-964.536,0,0
115952.2,81.1347,-962.35,0,0
116212.525,83.0089,-960.633,0,0
116472.85,84.8103,-959.262,0,0
116733.175,86.3972,-958.225,0,0
116993.5,87.6511,-957.341,0,0
117253.825,88.6098,-956.471,0,0
117514.15,89.568,-955.488,0,0
117774.475,90.5678,-954.847,0,0
118034.8,91.1237,-954.396,0,0
118295.125,91.4222,-953.6,0,0
118555.45,92.0529,-952.697,0,0
118815.775,92.9115,-952.26,0,0
119076.1,93.3217,-952.444,0,0
119336.425,93.2707,-952.688,0,0
119596.75,92.8393,-953.011,0,0
119857.075,91.8981,-953.447,0,0
120117.4,90.2345,-953.681,0,0
120377.725,88.4211,-953.391,0,0
120638.05,86.1701,-953.113,0,0
120898.375,83.5363,-952.1,0,0
121158.7,80.7844,-950.608,0,0
121419.025,78.0882,-948.38,0,0
121679.35,76.1101,-945.547,0,0
121939.675,74.5353,-943.007,0,0
122200.0,73.0698,-940.623,0,0
122460,71.4112,-938.271,0,0
122721,69.813,-935.517,0,0
122981,68.4785,-932.851,0,0
123241,67.0198,-930.214,0,0
123502,65.5861,-927.269,0,0
123762,64.3613,-924.101,0,0
124022,63.6061,-920.909,0,0
124283,62.8766,-918.047,0,0
124543,62.1589,-915.303,0,0
124803,61.4439,-912.502,0,0
125064,60.7771,-909.887,0,0
125324,59.918,-907.354,0,0
125584,58.874,-904.682,0,0
125845,57.905,-901.727,0,0
126105,57.088,-898.789,0,0
126365,56.3222,-895.867,0,0
126626,55.4586,-892.864,0,0
126886,54.7916,-889.782,0,0
127146,54.1654,-886.755,0,0
127406,53.4679,-883.57,0,0
127667,53.035,-880.324,0,0
127927,52.8096,-877.093,0,0
128187,52.7283,-874.176,0,0
128448,52.4611,-871.36,0,0
128708,52.0529,-868.55,0,0
128968,51.6658,-865.606,0,0
129229,51.3501,-862.626,0,0
129489,51.1595,-859.685,0,0
129749,50.8793,-856.863,0,0
130010,50.4736,-853.947,0,0
130270,50.2825,-850.906,0,0
130530,50.2593,-847.98,0,0
130791,50.1018,-845.312,0,0
131051,49.7442,-842.52,0,0
131311,49.3736,-839.69,0,0
131572,48.9252,-836.589,0,0
131832,48.7219,-833.391,0,0
132092,48.6479,-830.282,0,0
132353,48.5688,-827.21,0,0
132613,48.5102,-824.089,0,0
132873,48.5305,-820.9,0,0
133134,48.6084,-817.704,0,0
133394,48.852,-814.552,0,0
133654,49.1279,-811.394,0,0
133915,49.4981,-808.197,0,0
134175,50.014,-805.05,0,0
134435,50.7843,-802.076,0,0
134696,51.5492,-799.388,0,0
134956,52.0952,-796.705,0,0
135216,52.751,-793.962,0,0
135477,53.6026,-791.32,0,0
135737,54.4408,-788.788,0,0
135997,55.4932,-786.521,0,0
136258,56.5012,-784.711,0,0
136518,57.1086,-783.186,0,0
136778,57.4947,-781.764,0,0
137039,57.3867,-780.454,0,0
137299,56.801,-778.894,0,0
137559,56.0249,-776.837,0,0
137819,55.4455,-774.416,0,0
138080,54.973,-772.048,0,0
138340.125,54.4629,-769.507,0,0
138600.45,54.0466,-766.835,0,0
138860.775,53.6761,-764.144,0,0
139121.1,53.3715,-761.297,0,0
139381.425,53.2523,-758.368,0,0
139641.75,53.1904,-755.53,0,0
139902.075,53.2479,-752.657,0,0
140162.4,53.4253,-749.824,0,0
140422.725,53.6119,-747.235,0,0
140683.05,53.6228,-744.67,0,0
140943.375,53.5942,-741.991,0,0
141203.7,53.5629,-739.291,0,0
141464.025,53.4761,-736.464,0,0
141724.35,53.5056,-733.514,0,0
141984.675,53.6967,-730.508,0,0
142245.0,54.0025,-727.627,0,0
142505.325,54.2464,-724.774,0,0
142765.65,54.5215,-721.872,0,0
143025.975,54.8994,-718.886,0,0
143286.3,55.4902,-716.005,0,0
143546.625,56.1539,-713.323,0,0
143806.95,56.7114,-710.684,0,0
144067.275,57.3241,-708.114,0,0
144327.6,57.9222,-705.711,0,0
144587.925,58.3868,-703.356,0,0
144848.25,58.7758,-701.02,0,0
145108.575,59.0978,-698.67,0,0
145368.9,59.2931,-696.403,0,0
145629.225,59.343,-693.909,0,0
145889.55,59.4557,-691.286,0,0
146149.875,59.6527,-688.611,0,0
146410.2,59.9106,-685.898,0,0
146670.525,60.3281,-683.211,0,0
146930.85,60.7173,-680.668,0,0
147191.175,61.0579,-678.142,0,0
147451.5,61.4057,-675.693,0,0
147711.825,61.5221,-673.257,0,0
147972.15,61.6912,-670.57,0,0
148232.475,62.0515,-668.008,0,0
148492.8,62.223,-665.597,0,0
148753.125,62.2358,-663.108,0,0
149013.45,62.1657,-660.495,0,0
149273.775,62.0645,-657.741,0,0
149534.1,61.9942,-654.877,0,0
149794.425,61.9358,-651.941,0,0
150054.75,61.865,-648.931,0,0
150315.075,61.8429,-645.768,0,0
150575.4,61.8455,-642.542,0,0
150835.725,61.9209,-639.204,0,0
151096.05,62.0685,-635.778,0,0
151356.375,62.3206,-632.24,0,0
151616.7,62.6883,-628.66,0,0
151877.025,63.1915,-625.064,0,0
152137.35,63.8007,-621.476,0,0
152397.675,64.4382,-617.867,0,0
152658.0,65.1426,-614.22,0,0
152918.325,65.9821,-610.564,0,0
153178.65,66.8897,-606.908,0,0
153438.975,67.909,-603.26,0,0
153699.3,68.9829,-599.674,0,0
153959.625,70.0382,-596.087,0,0
154219.95,71.1097,-592.387,0,0
154480,72.3485,-588.631,0,0
154741,73.6866,-584.868,0,0
155001,75.1024,-581.101,0,0
155261,76.7084,-577.285,0,0
155522,78.4894,-573.552,0,0
155782,80.3697,-569.891,0,0
156042,82.3149,-566.277,0,0
156303,84.4207,-562.753,0,0
156563,86.527,-559.311,0,0
156823,88.7207,-555.894,0,0
157084,91.0174,-552.528,0,0
157344,93.4582,-549.158,0,0
157604,96.1779,-546.004,0,0
157864,98.9758,-543.143,0,0
158125,101.666,-540.603,0,0
158385,104.308,-538.202,0,0
158645,106.934,-536.017,0,0
158906,109.346,-534.166,0,0
159166,111.415,-532.524,0,0
159426,113.104,-530.883,0,0
159687,114.36,-529.148,0,0
159947,115.27,-527.169,0,0
160207,115.911,-524.8,0,0
160468,116.449,-522.017,0,0
160728,117.023,-518.778,0,0
160988,117.802,-515.254,0,0
161249,118.404,-511.567,0,0
161509,119.156,-507.193,0,0
161769,120.361,-502.326,0,0
162030,122.152,-497.24,0,0
162290,124.455,-492.136,0,0
162550,127.19,-487.189,0,0
162811,130.084,-482.423,0,0
163071,132.98,-477.578,0,0
163331,136.214,-472.377,0,0
163592,139.916,-467.029,0,0
163852,144.444,-462.007,0,0
164112,149.028,-457.496,0,0
164373,153.697,-453.17,0,0
164633,158.361,-448.887,0,0
164893,163.231,-444.661,0,0
165154,167.873,-440.743,0,0
165414,172.242,-436.257,0,0
165674,177.027,-430.956,0,0
165935,182.708,-425.431,0,0
166195,189.13,-419.766,0,0
166455,196.512,-414.081,0,0
166716,204.832,-408.874,0,0
166976,213.762,-404.311,0,0
167236,223.09,-400.009,0,0
167497,233.312,-395.776,0,0
167757,244.692,-392.362,0,0
168017,256.603,-390.174,0,0
168277,268.779,-388.905,0,0
168538,281.358,-388.378,0,0
168798,294.587,-388.982,0,0
169058,307.995,-390.829,0,0
169319,321.675,-394.214,0,0
169579,334.811,-399.316,0,0
169839,346.6,-405.511,0,0
170100,357.95,-411.497,0,0
170360.075,369.729,-418.075,0,0
170620.4,381.977,-425.941,0,0
170880.725,393.945,-436.05,0,0
171141.05,403.945,-447.881,0,0
171401.375,412.552,-459.988,0,0
171661.7,420.353,-472.673,0,0
171922.025,427.205,-485.971,0,0
172182.35,433.305,-500.314,0,0
172442.675,438.044,-516.047,0,0
172703.0,440.119,-532.912,0,0
172963.325,439.618,-548.957,0,0
173223.65,437.949,-564.561,0,0
173483.975,434.664,-580.126,0,0
173744.3,429.144,-595.859,0,0
174004.625,420.348,-610.384,0,0
174264.95,409.253,-621.949,0,0
174525.275,397.648,-630.58,0,0
174785.6,385.905,-636.918,0,0
175045.925,373.972,-640.934,0,0
175306.25,363.179,-641.797,0,0
175566.575,354.646,-641.758,0,0
175826.9,346.31,-641.305,0,0
176087.225,339.016,-638.573,0,0
176347.55,334.638,-634.911,0,0
176607.875,332.53,-632.317,0,0
176868.2,331.038,-630.835,0,0
177128.525,329.931,-629.625,0,0
177388.85,329.82,-628.574,0,0
177649.175,330.569,-628.359,0,0
177909.5,331.792,-628.724,0,0
178169.825,334.316,-629.605,0,0
178430.15,338.553,-632.536,0,0
178690.475,342.702,-639.435,0,0
178950.8,343.981,-649.359,0,0
179211.125,341.205,-660.141,0,0
179471.45,335.076,-669.349,0,0
179731.775,327.519,-675.919,0,0
179992.1,320.226,-680.779,0,0
180252.425,312.891,-684.816,0,0
180512.75,305.86,-687.926,0,0
180773.075,299.325,-691.008,0,0
181033.4,292.331,-694.186,0,0
181293.725,284.854,-697.152,0,0
181554.05,276.29,-699.559,0,0
181814.375,267.628,-700.19,0,0
182074.7,260.081,-700.509,0,0
182335.025,252.127,-701.508,0,0
182595.35,242.751,-701.819,0,0
182855.675,232.932,-700.294,0,0
183116.0,223.577,-697.208,0,0
183376.325,215.288,-692.802,0,0
183636.65,208.377,-687.987,0,0
183896.975,202.259,-683.439,0,0
184157.3,196.414,-678.81,0,0
184417.625,190.941,-673.917,0,0
184677.95,186.08,-668.659,0,0
184938.275,182.18,-663.465,0,0
185198.6,178.685,-659.048,0,0
185458.925,174.932,-654.996,0,0
185719.25,170.825,-650.938,0,0
185979.575,166.319,-646.185,0,0
186239.9,162.391,-640.553,0,0
186500,159.373,-634.776,0,0
186761,156.796,-629.258,0,0
187021,154.506,-623.829,0,0
187281,152.426,-618.241,0,0
187542,150.957,-612.487,0,0
187802,150.241,-607.082,0,0
188062,149.967,-602.279,0,0
188322,149.719,-598.212,0,0
188583,149.166,-594.574,0,0
188843,148.331,-591.259,0,0
189103,146.898,-588.029,0,0
189364,145.086,-584.416,0,0
189624,143.301,-580.295,0,0
189884,141.746,-576.097,0,0
190145,140.037,-571.721,0,0
190405,138.524,-566.878,0,0
190665,137.474,-561.994,0,0
190926,136.41,-557.166,0,0
191186,135.421,-551.958,0,0
191446,135.038,-546.477,0,0
191707,135.23,-541.349,0,0
191967,135.44,-536.67,0,0
192227,135.42,-532.118,0,0
192488,135.261,-527.334,0,0
192748,135.267,-522.252,0,0
193008,135.58,-517,0,0
193269,136.318,-511.714,0,0
193529,137.422,-506.667,0,0
193789,138.56,-501.877,0,0
194050,139.717,-497.099,0,0
194310,140.981,-492.309,0,0
194570,142.446,-487.482,0,0
194831,144.157,-482.685,0,0
195091,146.15,-478.015,0,0
195351,148.378,-473.663,0,0
195612,150.558,-469.605,0,0
195872,152.587,-465.631,0,0
196132,154.776,-461.59,0,0
196393,157.106,-457.68,0,0
196653,159.407,-453.988,0,0
196913,161.776,-450.348,0,0
197174,164.282,-446.798,0,0
197434,166.747,-443.524,0,0
197694,169.161,-440.553,0,0
197955,171.213,-437.671,0,0
198215,172.874,-434.766,0,0
198475,174.504,-431.48,0,0
198735,176.241,-428.096,0,0
198996,177.956,-424.476,0,0
199256,179.757,-420.895,0,0
199516,181.501,-417.179,0,0
199777,183.176,-413.256,0,0
200037,184.967,-408.856,0,0
200297,187.228,-404.335,0,0
200558,189.738,-399.827,0,0
200818,192.553,-395.312,0,0
201078,195.487,-390.897,0,0
201339,198.478,-386.416,0,0
201599,201.553,-381.745,0,0
201859,204.937,-376.83,0,0
202120,208.767,-371.882,0,0
202380.025,213.063,-366.863,0,0
202640.35,217.83,-362.062,0,0
202900.675,222.886,-357.639,0,0
203161.0,228.057,-353.415,0,0
203421.325,233.432,-349.344,0,0
203681.65,238.93,-345.42,0,0
203941.975,244.555,-341.523,0,0
204202.3,250.385,-337.736,0,0
204462.625,256.522,-333.971,0,0
204722.95,262.951,-330.404,0,0
204983.275,269.551,-326.883,0,0
205243.6,276.634,-323.247,0,0
205503.925,284.63,-319.782,0,0
205764.25,293.401,-317.31,0,0
206024.575,302.156,-315.996,0,0
206284.9,310.609,-315.386,0,0
206545.225,318.838,-315.303,0,0
206805.55,326.657,-315.873,0,0
207065.875,333.746,-316.85,0,0
207326.2,340.099,-317.541,0,0
207586.525,346.388,-318.018,0,0
207846.85,352.217,-318.295,0,0
208107.175,357.8,-317.927,0,0
208367.5,363.815,-316.566,0,0
208627.825,370.744,-314.804,0,0
208888.15,378.704,-312.92,0,0
209148.475,387.698,-311.232,0,0
209408.8,397.873,-310.036,0,0
209669.125,408.925,-309.779,0,0
209929.45,420.897,-310.428,0,0
210189.775,433.503,-312.435,0,0
210450.1,446.8,-316.206,0,0
210710.425,460.038,-322.269,0,0
210970.75,472.014,-330.662,0,0
211231.075,481.932,-339.864,0,0
211491.4,490.801,-349.292,0,0
211751.725,498.585,-359.054,0,0
212012.05,505.458,-369.081,0,0
212272.375,511.257,-379.442,0,0
212532.7,515.678,-389.59,0,0
212793.025,519.522,-398.965,0,0
213053.35,523.238,-408.05,0,0
213313.675,526.452,-417.216,0,0
213574.0,529.281,-425.954,0,0
213834.325,532.286,-434.502,0,0
214094.65,535.296,-443.375,0,0
214354.975,538.168,-452.724,0,0
214615.3,540.449,-462.884,0,0
214875.625,541.367,-473.273,0,0
215135.95,541.438,-483.116,0,0
215396.275,540.743,-492.457,0,0
215656.6,539.806,-501.092,0,0
215916.925,539.05,-509.197,0,0
216177.25,538.69,-517.272,0,0
216437.575,538.564,-525.898,0,0
216697.9,538.08,-535.439,0,0
216958.225,536.471,-545.695,0,0
217218.55,533.432,-555.892,0,0
217478.875,529.319,-565.472,0,0
217739.2,524.472,-574.418,0,0
217999.525,519.265,-582.673,0,0
218259.85,513.7,-590.751,0,0
218520,507.337,-598.639,0,0
218780,500.075,-605.914,0,0
219041,491.961,-612.383,0,0
219301,482.975,-617.769,0,0
219561,473.5,-621.441,0,0
219822,464.289,-623.549,0,0
220082,455.435,-624.387,0,0
220342,447.391,-624.049,0,0
220603,440.336,-622.686,0,0
220863,434.318,-620.953,0,0
221123,429.078,-619.106,0,0
221384,424.529,-617.148,0,0
221644,420.486,-615.106,0,0
221904,417.018,-612.974,0,0
222165,414.035,-610.736,0,0
222425,411.688,-608.254,0,0
222685,410.299,-606.025,0,0
222946,409.329,-604.492,0,0
223206,408.302,-603.474,0,0
223466,407.278,-602.439,0,0
223727,406.445,-601.518,0,0
223987,405.757,-600.824,0,0
224247,404.981,-600.324,0,0
224508,404.108,-599.835,0,0
224768,403.179,-599.107,0,0
225028,402.403,-598.256,0,0
225289,401.708,-596.958,0,0
225549,401.486,-595.23,0,0
225809,402.256,-593.413,0,0
226070,403.858,-592.091,0,0
226330,405.867,-591.355,0,0
226590,408.17,-591.387,0,0
226851,410.428,-592.006,0,0
227111,412.424,-593.035,0,0
227371,414.437,-594.235,0,0
227632,416.496,-595.642,0,0
227892,418.627,-597.341,0,0
228152,420.832,-599.51,0,0
228413,423.049,-601.997,0,0
228673,425.242,-604.954,0,0
228933,427.395,-608.548,0,0
229193,429.134,-612.825,0,0
229454,430.064,-617.486,0,0
229714,430.282,-621.94,0,0
229974,430.291,-625.811,0,0
230235,430.917,-629.757,0,0
230495,431.916,-634.466,0,0
230755,432.318,-640.235,0,0
231016,431.55,-646.477,0,0
231276,429.734,-652.247,0,0
231536,427.621,-657.389,0,0
231797,425.658,-662.378,0,0
232057,423.619,-667.453,0,0
232317,421.511,-672.585,0,0
232578,419.304,-678.084,0,0
232838,416.755,-684.168,0,0
233098,413.409,-690.715,0,0
233359,409.121,-697.415,0,0
233619,403.861,-704.178,0,0
233879,397.197,-710.844,0,0
234140,388.914,-716.556,0,0
234400,379.911,-720.599,0,0
234660.3,370.935,-723.178,0,0
234920.625,362.192,-724.961,0,0
235180.95,353.392,-725.988,0,0
235441.275,344.381,-725.92,0,0
235701.6,335.893,-724.45,0,0
235961.925,328.639,-722.125,0,0
236222.25,322.226,-719.71,0,0
236482.575,316.463,-717.351,0,0
236742.9,311.14,-714.941,0,0
237003.225,306.401,-712.766,0,0
237263.55,301.666,-711.149,0,0
237523.875,296.325,-709.554,0,0
237784.2,290.646,-707.279,0,0
238044.525,285.175,-704.298,0,0
238304.85,280.018,-700.639,0,0
238565.175,275.472,-696.418,0,0
238825.5,271.631,-691.798,0,0
239085.825,268.713,-687.036,0,0
239346.15,266.729,-682.317,0,0
239606.475,265.541,-677.976,0,0
239866.8,265.156,-674.189,0,0
240127.125,265.334,-671.354,0,0
240387.45,265.817,-669.634,0,0
240647.775,265.729,-669.167,0,0
240908.1,264.423,-669.325,0,0
241168.425,262.083,-669.1,0,0
241428.75,259.502,-668.317,0,0
241689.075,256.79,-667.378,0,0
241949.4,253.875,-666.335,0,0
242209.725,250.514,-665.151,0,0
242470.05,246.533,-663.377,0,0
242730.375,242.462,-660.383,0,0
242990.7,239.065,-656.471,0,0
243251.025,236.62,-652.153,0,0
243511.35,234.973,-647.946,0,0
243771.675,233.712,-643.899,0,0
244032.0,232.784,-639.782,0,0
244292.325,232.415,-635.604,0,0
244552.65,232.85,-631.637,0,0
244812.975,233.966,-628.38,0,0
245073.3,235.354,-625.978,0,0
245333.625,236.465,-624.316,0,0
245593.95,237.261,-623.27,0,0
245854.275,237.512,-622.536,0,0
246114.6,237.191,-621.908,0,0
246374.925,236.424,-621.062,0,0
246635.25,235.48,-619.812,0,0
246895.575,234.604,-618.475,0,0
247155.9,233.519,-617.051,0,0
247416.225,232.287,-615.362,0,0
247676.55,231.145,-613.377,0,0
247936.875,230.115,-611.146,0,0
248197.2,229.323,-608.754,0,0
248457.525,228.653,-606.244,0,0
248717.85,228.256,-603.757,0,0
248978.175,227.908,-601.156,0,0
249238.5,227.65,-598.516,0,0
249498.825,227.597,-595.797,0,0
249759.15,227.87,-592.94,0,0
250019.475,228.37,-590.088,0,0
250279.8,229.138,-587.38,0,0
250540,230.084,-584.717,0,0
250800,231.211,-582.103,0,0
251061,232.584,-579.594,0,0
251321,234.178,-577.166,0,0
251581,236,-574.92,0,0
251842,238.02,-572.822,0,0
252102,240.341,-570.893,0,0
252362,242.925,-569.208,0,0
252623,245.752,-567.913,0,0
252883,248.662,-566.97,0,0
253143,251.749,-566.48,0,0
253404,254.852,-566.53,0,0
253664,257.892,-567.084,0,0
253924,260.619,-568.083,0,0
254185,263.038,-569.505,0,0
254445,265.045,-571.22,0,0
254705,266.669,-573.1,0,0
254966,267.964,-575.019,0,0
255226,268.912,-576.963,0,0
255486,269.638,-578.993,0,0
255747,270.047,-581.171,0,0
256007,269.985,-583.312,0,0
256267,269.53,-585.288,0,0
256528,268.859,-586.961,0,0
256788,268.048,-588.512,0,0
257048,267.041,-589.946,0,0
257309,265.758,-591.157,0,0
257569,264.305,-592.031,0,0
257829,262.817,-592.526,0,0
258090,261.395,-592.707,0,0
258350,260.143,-592.566,0,0
258610,259.198,-592.179,0,0
258871,258.652,-591.809,0,0
259131,258.402,-591.724,0,0
259391,258.116,-591.983,0,0
259651,257.52,-592.453,0,0
259912,256.632,-592.866,0,0
260172,255.489,-593.064,0,0
260432,254.258,-592.959,0,0
260693,253.082,-592.553,0,0
260953,252.083,-591.988,0,0
261213,251.176,-591.245,0,0
261474,250.372,-590.344,0,0
261734,249.794,-589.311,0,0
261994,249.383,-588.192,0,0
262255,249.17,-586.898,0,0
262515,249.37,-585.485,0,0
262775,250.001,-584.131,0,0
263036,251.073,-583.02,0,0
263296,252.504,-582.301,0,0
263556,254.058,-582.101,0,0
263817,255.574,-582.366,0,0
264077,256.991,-582.916,0,0
264337,258.279,-583.897,0,0
264598,259.17,-585.181,0,0
264858,259.714,-586.655,0,0
265118,259.865,-587.98,0,0
265379,259.843,-589.072,0,0
265639,259.868,-590.09,0,0
265899,259.942,-591.08,0,0
266160,259.993,-592.164,0,0
266420,260.056,-593.335,0,0
266680.25,260.053,-594.688,0,0
266940.575,259.833,-596.108,0,0
267200.9,259.552,-597.599,0,0
267461.225,259.018,-599.165,0,0
267721.55,258.281,-600.814,0,0
267981.875,257.248,-602.403,0,0
268242.2,255.876,-603.917,0,0
268502.525,254.189,-605.127,0,0
268762.85,252.345,-605.904,0,0
269023.175,250.553,-606.266,0,0
269283.5,248.942,-606.293,0,0
269543.825,247.524,-606.109,0,0
269804.15,246.347,-605.727,0,0
270064.475,245.483,-605.149,0,0
270324.8,244.876,-604.462,0,0
270585.125,244.745,-603.686,0,0
270845.45,245.05,-603.03,0,0
271105.775,245.864,-602.593,0,0
271366.1,247.144,-602.493,0,0
271626.425,248.766,-602.883,0,0
271886.75,250.716,-603.847,0,0
272147.075,252.95,-605.658,0,0
272407.4,255.167,-608.502,0,0
272667.725,256.898,-612.344,0,0
272928.05,257.9,-617.152,0,0
273188.375,257.89,-622.54,0,0
273448.7,256.753,-628.201,0,0
273709.025,254.46,-633.913,0,0
273969.35,251.191,-639.334,0,0
274229.675,247.043,-644.402,0,0
274490.0,242.075,-648.904,0,0
274750.325,236.538,-652.658,0,0
275010.65,230.633,-656.014,0,0
275270.975,224.215,-658.859,0,0
275531.3,217.177,-660.963,0,0
275791.625,209.78,-662.118,0,0
276051.95,202.224,-662.277,0,0
276312.275,194.754,-661.456,0,0
276572.6,187.624,-659.787,0,0
276832.925,180.872,-657.497,0,0
277093.25,174.46,-654.632,0,0
277353.575,168.452,-651.152,0,0
277613.9,162.92,-647.141,0,0
277874.225,158.044,-642.669,0,0
278134.55,153.833,-637.938,0,0
278394.875,150.212,-633.101,0,0
278655.2,147.183,-628.213,0,0
278915.525,144.681,-623.334,0,0
279175.85,142.685,-618.605,0,0
279436.175,141.096,-614.049,0,0
279696.5,139.789,-609.658,0,0
279956.825,138.839,-605.452,0,0
280217.15,138.007,-601.371,0,0
280477.475,137.554,-597.396,0,0
280737.8,137.385,-593.653,0,0
280998.125,137.502,-590.271,0,0
281258.45,137.677,-587.349,0,0
281518.775,137.7,-584.822,0,0
281779.1,137.435,-582.463,0,0
282039.425,136.944,-580.061,0,0
282299.75,136.349,-577.558,0,0
282560,135.739,-574.959,0,0
282820,135.075,-572.223,0,0
283081,134.409,-569.299,0,0
283341,133.856,-566.191,0,0
283601,133.576,-562.869,0,0
283862,133.531,-559.556,0,0
284122,133.676,-556.137,0,0
284382,134.299,-552.822,0,0
284643,135.226,-549.604,0,0
284903,136.363,-546.507,0,0
285163,137.584,-543.695,0,0
285424,139.062,-541.096,0,0
285684,140.734,-538.833,0,0
285944,142.359,-536.883,0,0
286205,143.895,-535.167,0,0
286465,145.444,-533.601,0,0
286725,146.867,-532.309,0,0
286986,148.291,-531.182,0,0
287246,149.508,-530.181,0,0
287506,150.62,-529.457,0,0
287767,151.447,-528.752,0,0
288027,151.968,-528.161,0,0
288287,152.217,-527.432,0,0
288548,152.276,-526.484,0,0
288808,152.341,-525.287,0,0
289068,152.399,-523.948,0,0
289329,152.443,-522.394,0,0
289589,152.661,-520.778,0,0
289849,152.892,-518.928,0,0
290109,153.198,-517.032,0,0
290370,153.723,-514.979,0,0
290630,154.461,-512.813,0,0
290890,155.52,-510.752,0,0
291151,156.795,-508.737,0,0
291411,158.227,-507.033,0,0
291671,159.593,-505.47,0,0
291932,161.031,-504.026,0,0
292192,162.28,-502.584,0,0
292452,163.628,-501.134,0,0
292713,164.99,-499.61,0,0
292973,166.537,-498.166,0,0
293233,168.167,-496.743,0,0
293494,169.85,-495.546,0,0
293754,171.578,-494.319,0,0
294014,173.327,-493.288,0,0
294275,175.022,-492.207,0,0
294535,176.664,-491.103,0,0
294795,178.428,-489.99,0,0
295056,180.258,-488.865,0,0
295316,182.197,-487.747,0,0
295576,184.41,-486.637,0,0
295837,186.645,-485.72,0,0
296097,188.935,-484.833,0,0
296357,191.311,-484.13,0,0
296618,193.826,-483.339,0,0
296878,196.497,-482.734,0,0
297138,199.204,-482.27,0,0
297399,202.102,-481.956,0,0
297659,204.951,-481.874,0,0
297919,207.967,-481.845,0,0
298180,210.996,-482.154,0,0
298440,213.992,-482.514,0,0
298700.2,216.985,-483.064,0,0
298960.525,220.031,-483.651,0,0
299220.85,223.181,-484.376,0,0
299481.175,226.398,-485.228,0,0
299741.5,229.804,-486.306,0,0
300001.825,233.255,-487.51,0,0
300262.15,236.864,-489.244,0,0
300522.475,240.479,-491.065,0,0
300782.8,244.085,-493.388,0,0
301043.125,247.771,-495.929,0,0
301303.45,251.555,-498.786,0,0
301563.775,255.285,-502.117,0,0
301824.1,259.007,-506.09,0,0
302084.425,262.5,-510.659,0,0
302344.75,265.71,-515.987,0,0
302605.075,268.484,-521.935,0,0
302865.4,270.397,-528.352,0,0
303125.725,271.481,-535.192,0,0
303386.05,271.589,-542.149,0,0
303646.375,270.793,-548.977,0,0
303906.7,269.244,-555.474,0,0
304167.025,267.054,-561.582,0,0
304427.35,264.405,-567.248,0,0
304687.675,261.388,-572.431,0,0
304948.0,258.13,-577.205,0,0
305208.325,254.716,-581.623,0,0
305468.65,251.177,-585.784,0,0
305728.975,247.432,-589.766,0,0
305989.3,243.419,-593.497,0,0
306249.625,239.129,-596.902,0,0
306509.95,234.635,-599.941,0,0
306770.275,229.986,-602.576,0,0
307030.6,225.236,-604.806,0,0
307290.925,220.472,-606.628,0,0
307551.25,215.736,-608.109,0,0
307811.575,211.047,-609.272,0,0
308071.9,206.378,-610.146,0,0
308332.225,201.781,-610.742,0,0
308592.55,197.217,-611.069,0,0
308852.875,192.703,-611.127,0,0
309113.2,188.259,-610.893,0,0
309373.525,183.936,-610.308,0,0
309633.85,179.843,-609.431,0,0
309894.175,175.986,-608.311,0,0
310154.5,172.409,-607,0,0
310414.825,169.127,-605.638,0,0
310675.15,166.077,-604.253,0,0
310935.475,163.234,-602.906,0,0
311195.8,160.511,-601.57,0,0
311456.125,157.904,-600.244,0,0
311716.45,155.364,-598.923,0,0
311976.775,152.911,-597.581,0,0
312237.1,150.546,-596.259,0,0
312497.425,148.234,-594.932,0,0
312757.75,145.972,-593.596,0,0
313018.075,143.72,-592.24,0,0
313278.4,141.487,-590.862,0,0
313538.725,139.239,-589.425,0,0
313799.05,137.033,-587.88,0,0
314059.375,134.903,-586.2,0,0
314319.7,132.853,-584.458,0,0
314580,130.899,-582.599,0,0
314840,129.082,-580.661,0,0
315101,127.387,-578.656,0,0
315361,125.902,-576.612,0,0
315621,124.573,-574.535,0,0
315882,123.378,-572.513,0,0
316142,122.346,-570.54,0,0
316402,121.448,-568.618,0,0
316663,120.656,-566.778,0,0
316923,119.966,-565.028,0,0
317183,119.326,-563.396,0,0
317444,118.655,-561.828,0,0
317704,118.042,-560.325,0,0
317964,117.435,-558.828,0,0
318225,116.853,-557.345,0,0
318485,116.318,-555.917,0,0
318745,115.798,-554.53,0,0
319006,115.32,-553.124,0,0
319266,114.92,-551.723,0,0
319526,114.589,-550.371,0,0
319787,114.342,-549.113,0,0
320047,114.055,-547.926,0,0
320307,113.839,-546.836,0,0
320567,113.595,-545.809,0,0
320828,113.319,-544.841,0,0
321088,113.025,-543.912,0,0
321348,112.709,-543.015,0,0
321609,112.353,-542.123,0,0
321869,111.999,-541.224,0,0
322129,111.663,-540.343,0,0
322390,111.31,-539.453,0,0
322650,110.988,-538.605,0,0
322910,110.66,-537.787,0,0
323171,110.327,-536.988,0,0
323431,109.987,-536.203,0,0
323691,109.651,-535.439,0,0
323952,109.287,-534.683,0,0
324212,108.923,-533.945,0,0
324472,108.551,-533.19,0,0
324733,108.149,-532.441,0,0
324993,107.733,-531.665,0,0
325253,107.399,-530.836,0,0
325514,107.085,-530.019,0,0
325774,106.849,-529.197,0,0
326034,106.698,-528.442,0,0
326295,106.583,-527.756,0,0
326555,106.461,-527.177,0,0
326815,106.335,-526.657,0,0
327076,106.185,-526.213,0,0
327336,106.018,-525.868,0,0
327596,105.767,-525.568,0,0
327857,105.429,-525.326,0,0
328117,105.014,-525.091,0,0
328377,104.533,-524.849,0,0
328638,103.973,-524.565,0,0
328898,103.395,-524.26,0,0
329158,102.796,-523.899,0,0
329419,102.192,-523.558,0,0
329679,101.584,-523.214,0,0
329939,100.954,-522.853,0,0
330200,100.29,-522.53,0,0
330460,99.6165,-522.176,0,0
330720.15,98.8959,-521.831,0,0
330980.475,98.2341,-521.5,0,0
331240.8,97.3247,-521.141,0,0
331501.125,96.6145,-520.856,0,0
331761.45,95.6991,-520.472,0,0
332021.775,94.7302,-520.115,0,0
332282.1,93.7754,-519.731,0,0
332542.425,92.7223,-519.243,0,0
332802.75,91.6709,-518.683,0,0
333063.075,90.5524,-518.097,0,0
333323.4,89.4613,-517.465,0,0
333583.725,88.4361,-516.751,0,0
333844.05,87.249,-516.022,0,0
334104.375,86.1527,-515.185,0,0
334364.7,85.0719,-514.281,0,0
334625.025,84.0362,-513.353,0,0
334885.35,83.0161,-512.416,0,0
335145.675,81.9915,-511.42,0,0
335406.0,81.0975,-510.41,0,0
335666.325,80.121,-509.438,0,0
335926.65,79.1624,-508.297,0,0
336186.975,78.2309,-507.224,0,0
336447.3,77.2497,-506.186,0,0
336707.625,76.3716,-504.975,0,0
336967.95,75.5042,-503.751,0,0
337228.275,74.6426,-502.514,0,0
337488.6,73.8082,-501.287,0,0
337748.925,73.0718,-499.905,0,0
338009.25,72.3232,-498.565,0,0
338269.575,71.7135,-497.236,0,0
338529.9,71.0705,-495.907,0,0
338790.225,70.4872,-494.619,0,0
339050.55,69.9279,-493.299,0,0
339310.875,69.354,-491.929,0,0
339571.2,68.8385,-490.669,0,0
339831.525,68.3258,-489.362,0,0
340091.85,67.8886,-487.952,0,0
340352.175,67.3953,-486.72,0,0
340612.5,66.9226,-485.355,0,0
340872.825,66.5558,-484.003,0,0
341133.15,66.1148,-482.606,0,0
341393.475,65.7197,-481.194,0,0
341653.8,65.3726,-479.812,0,0
341914.125,65.1077,-478.355,0,0
342174.45,64.9267,-476.958,0,0
342434.775,64.7042,-475.587,0,0
342695.1,64.5078,-474.099,0,0
342955.425,64.4095,-472.695,0,0
343215.75,64.3729,-471.303,0,0
343476.075,64.3175,-469.968,0,0
343736.4,64.3467,-468.557,0,0
343996.725,64.4181,-467.225,0,0
344257.05,64.5681,-465.889,0,0
344517.375,64.7219,-464.686,0,0
344777.7,64.9457,-463.497,0,0
345038.025,65.1896,-462.326,0,0
345298.35,65.4298,-461.247,0,0
345558.675,65.6531,-460.22,0,0
345819.0,65.8846,-459.237,0,0
346079.325,66.1175,-458.399,0,0
346339.65,66.3015,-457.605,0,0
346599.975,66.4524,-456.818,0,0
346860,66.5705,-456.092,0,0
347121,66.536,-455.398,0,0
347381,66.5206,-454.662,0,0
347641,66.3966,-453.949,0,0
347902,66.2728,-453.186,0,0
348162,66.0073,-452.403,0,0
348422,65.7691,-451.644,0,0
348683,65.4903,-450.733,0,0
348943,65.2036,-449.76,0,0
349203,64.9232,-448.689,0,0
349464,64.7489,-447.688,0,0
349724,64.513,-446.55,0,0
349984,64.3456,-445.48,0,0
350245,64.2206,-444.406,0,0
350505,64.0828,-443.275,0,0
350765,63.9091,-442.113,0,0
351025,63.8027,-440.905,0,0
351286,63.7052,-439.584,0,0
351546,63.6591,-438.333,0,0
351806,63.7206,-436.995,0,0
352067,63.8658,-435.678,0,0
352327,64.0899,-434.368,0,0
352587,64.4293,-433.095,0,0
352848,64.7433,-431.845,0,0
353108,65.1118,-430.644,0,0
353368,65.5475,-429.515,0,0
353629,66.0303,-428.428,0,0
353889,66.5439,-427.402,0,0
354149,67.0492,-426.468,0,0
354410,67.5934,-425.582,0,0
354670,68.1044,-424.709,0,0
354930,68.6018,-423.944,0,0
355191,69.1381,-423.226,0,0
355451,69.6887,-422.487,0,0
355711,70.1392,-421.932,0,0
355972,70.602,-421.343,0,0
356232,70.9903,-420.943,0,0
356492,71.3119,-420.505,0,0
356753,71.5082,-420.142,0,0
357013,71.6308,-419.771,0,0
357273,71.7004,-419.356,0,0
357534,71.6674,-418.978,0,0
357794,71.5176,-418.511,0,0
358054,71.318,-417.993,0,0
358315,71.077,-417.346,0,0
358575,70.7681,-416.659,0,0
358835,70.5158,-415.781,0,0
359096,70.2942,-414.861,0,0
359356,70.0866,-413.899,0,0
359616,69.8953,-412.819,0,0
359877,69.8206,-411.721,0,0
360137,69.7757,-410.588,0,0
360397,69.8222,-409.437,0,0
360658,69.9061,-408.258,0,0
360918,70.0023,-407.094,0,0
361178,70.2406,-405.881,0,0
361438,70.4499,-404.658,0,0
361699,70.7883,-403.458,0,0
361959,71.1691,-402.237,0,0
362219,71.61,-401.144,0,0
362480,72.0897,-399.992,0,0
362740.1,72.629,-398.914,0,0
363000.425,73.1257,-397.879,0,0
363260.75,73.7018,-396.878,0,0
363521.075,74.2541,-395.888,0,0
363781.4,74.8612,-394.909,0,0
364041.725,75.5227,-393.926,0,0
364302.05,76.1723,-393.024,0,0
364562.375,76.9301,-392.153,0,0
364822.7,77.6328,-391.278,0,0
365083.025,78.4469,-390.525,0,0
365343.35,79.1898,-389.763,0,0
365603.675,79.9619,-389.107,0,0
365864.0,80.768,-388.546,0,0
366124.325,81.5341,-387.986,0,0
366384.65,82.2431,-387.48,0,0
366644.975,82.8755,-387.044,0,0
366905.3,83.5254,-386.522,0,0
367165.625,84.1524,-386.071,0,0
367425.95,84.7545,-385.559,0,0
367686.275,85.4032,-385.103,0,0
367946.6,86.0513,-384.598,0,0
368206.925,86.6786,-384.213,0,0
368467.25,87.3857,-383.823,0,0
368727.575,88.0681,-383.454,0,0
368987.9,88.7207,-383.202,0,0
369248.225,89.3575,-382.921,0,0
369508.55,89.981,-382.729,0,0
369768.875,90.5724,-382.614,0,0
370029.2,91.1787,-382.556,0,0
370289.525,91.5935,-382.561,0,0
370549.85,91.9844,-382.55,0,0
370810.175,92.2559,-382.579,0,0
371070.5,92.3765,-382.593,0,0
371330.825,92.4566,-382.562,0,0
371591.15,92.4422,-382.456,0,0
371851.475,92.3437,-382.223,0,0
372111.8,92.2103,-381.899,0,0
372372.125,92.1355,-381.48,0,0
372632.45,92.0896,-380.933,0,0
372892.775,92.0798,-380.369,0,0
373153.1,92.1475,-379.758,0,0
373413.425,92.2632,-379.099,0,0
373673.75,92.4132,-378.445,0,0
373934.075,92.6268,-377.771,0,0
374194.4,92.8929,-377.1,0,0
374454.725,93.2129,-376.449,0,0
374715.05,93.5498,-375.832,0,0
374975.375,93.9315,-375.27,0,0
375235.7,94.3579,-374.734,0,0
375496.025,94.7219,-374.216,0,0
375756.35,95.1195,-373.744,0,0
376016.675,95.5242,-373.309,0,0
376277.0,95.857,-372.919,0,0
376537.325,96.1641,-372.53,0,0
376797.65,96.4423,-372.137,0,0
377057.975,96.6333,-371.76,0,0
377318.3,96.8104,-371.275,0,0
377578.625,96.9631,-370.816,0,0
377838.95,97.087,-370.233,0,0
378099.275,97.2546,-369.611,0,0
378359.6,97.5057,-368.955,0,0
378619.925,97.7816,-368.268,0,0
378880,98.0562,-367.575,0,0
379141,98.4009,-366.905,0,0
379401,98.8576,-366.181,0,0
379661,99.3309,-365.578,0,0
379922,99.7837,-364.933,0,0
380182,100.234,-364.344,0,0
380442,100.733,-363.822,0,0
380703,101.182,-363.263,0,0
380963,101.631,-362.734,0,0
381223,102.07,-362.141,0,0
381483,102.545,-361.572,0,0
381744,103.032,-361.008,0,0
382004,103.542,-360.445,0,0
382264,104.057,-359.879,0,0
382525,104.628,-359.346,0,0
382785,105.201,-358.763,0,0
383045,105.784,-358.282,0,0
383306,106.336,-357.822,0,0
383566,106.916,-357.377,0,0
383826,107.454,-356.929,0,0
384087,107.975,-356.535,0,0
384347,108.471,-355.99,0,0
384607,109.046,-355.569,0,0
384868,109.597,-355.091,0,0
385128,110.168,-354.678,0,0
385388,110.738,-354.261,0,0
385649,111.277,-353.859,0,0
385909,111.789,-353.45,0,0
386169,112.281,-352.986,0,0
386430,112.801,-352.518,0,0
386690,113.37,-352.013,0,0
386950,113.952,-351.517,0,0
387211,114.532,-351.102,0,0
387471,115.035,-350.604,0,0
387731,115.608,-350.165,0,0
387992,116.079,-349.601,0,0
388252,116.594,-349.014,0,0
388512,117.187,-348.334,0,0
388773,117.823,-347.583,0,0
389033,118.648,-346.852,0,0
389293,119.527,-346.154,0,0
389554,120.489,-345.496,0,0
389814,121.507,-344.904,0,0
390074,122.589,-344.429,0,0
390335,123.67,-344.006,0,0
390595,124.739,-343.623,0,0
390855,125.806,-343.309,0,0
391116,126.837,-343.028,0,0
391376,127.897,-342.748,0,0
391636,128.946,-342.484,0,0
391896,129.974,-342.297,0,0
392157,131.044,-342.115,0,0
392417,132.091,-341.947,0,0
392677,133.182,-341.837,0,0
392938,134.246,-341.774,0,0
393198,135.223,-341.726,0,0
393458,136.204,-341.686,0,0
393719,137.098,-341.623,0,0
393979,137.956,-341.521,0,0
394239,138.873,-341.38,0,0
394500,139.783,-341.175,0,0
394760.05,140.715,-340.818,0,0
395020.375,141.823,-340.546,0,0
395280.7,142.974,-340.186,0,0
395541.025,144.207,-339.894,0,0
395801.35,145.535,-339.555,0,0
396061.675,146.941,-339.294,0,0
396322.0,148.401,-339.024,0,0
396582.325,150.014,-338.756,0,0
396842.65,151.781,-338.609,0,0
397102.975,153.692,-338.472,0,0
397363.3,155.681,-338.532,0,0
397623.625,157.806,-338.668,0,0
397883.95,160.011,-338.981,0,0
398144.275,162.319,-339.484,0,0
398404.6,164.689,-340.188,0,0
398664.925,167.165,-341.098,0,0
398925.25,169.616,-342.289,0,0
399185.575,172.146,-343.666,0,0
399445.9,174.639,-345.428,0,0
399706.225,177.059,-347.532,0,0
399966.55,179.296,-349.951,0,0
400006.6,179.634,-350.353,0,0