File: Accelerated corrosion test data/2025-10-20_18-00-03/sample_2.csv
Frequency (Hz),Impedance (ohms),Phase (Radians),Temperature (C),Humidity (%)
10000.0,223.191,-11487.6,0,0
10260.325,217.233,-11198.4,0,0
10520.65,212.306,-10923.6,0,0
10780.975,207.856,-10661.5,0,0
11041.3,202.753,-10412.5,0,0
11301.625,198.621,-10173.7,0,0
11561.95,195.229,-9944.48,0,0
11822.275,193.622,-9735.11,0,0
12082.6,188.264,-9523.84,0,0
12342.925,183.112,-9326.51,0,0
12603.25,179.16,-9133.63,0,0
12863.575,175.571,-8948.78,0,0
13123.9,173.063,-8774.78,0,0
13384.225,169.163,-8602.45,0,0
13644.55,167.075,-8436.13,0,0
13904.875,184.765,-8283.08,0,0
14165.2,161.586,-8135.87,0,0
14425.525,158.306,-7987.71,0,0
14685.8,161.685,-7839.08,0,0
14946.175,156.025,-7710.52,0,0
15206.5,160.777,-7590.76,0,0
15466.825,156.662,-7453.54,0,0
15727.15,148.201,-7338.81,0,0
15987.5,145.461,-7217.21,0,0
16247.8,145.379,-7102.37,0,0
16508.125,140.061,-6991.84,0,0
16768.45,137.713,-6882.79,0,0
17028.775,136.287,-6777.95,0,0
17289.1,135.083,-6677.23,0,0
17549.425,132.032,-6577.42,0,0
17809.75,129.948,-6480.67,0,0
18070.075,128.297,-6387.71,0,0
18330.4,126.94,-6296.53,0,0
18590.725,125.781,-6207.53,0,0
18851.05,124.82,-6121.37,0,0
19111.375,125.847,-6039.46,0,0
19371.7,125.212,-5962.24,0,0
19632.025,120.169,-5883,0,0
19892.35,117.973,-5804.48,0,0
20152.675,116.286,-5728.49,0,0
20413.0,115.699,-5653.52,0,0
20673.3,115.319,-5580.79,0,0
20933.65,115.888,-5508.7,0,0
21193.975,122.932,-5440.59,0,0
21454.3,129.907,-5379.83,0,0
21714.625,126.3,-5324.72,0,0
21974.9,119.92,-5258.69,0,0
22235.275,116.638,-5204.22,0,0
22495.6,112.63,-5142.58,0,0
22755.925,109.851,-5081.48,0,0
23016.25,110.497,-5026.13,0,0
23276.6,111.121,-4971.35,0,0
23536.9,106.033,-4916.07,0,0
23797.225,105.233,-4861.49,0,0
24057.55,104.051,-4810.46,0,0
24317.875,100.949,-4758.97,0,0
24578.2,99.2699,-4707.37,0,0
24838.525,98.1505,-4657.04,0,0
25098.85,97.1273,-4608.07,0,0
25359.175,95.9322,-4560.9,0,0
25619.5,95.7522,-4513.69,0,0
25879.8,94.1271,-4467.23,0,0
26140.1,94.9576,-4422.18,0,0
26400.5,93.8159,-4379.33,0,0
26660.8,94.4594,-4336.79,0,0
26921.1,93.0755,-4294.16,0,0
27181.4,91.8268,-4254.56,0,0
27441.8,90.403,-4213.81,0,0
27702.1,89.0233,-4173.18,0,0
27962.4,88.1209,-4132.57,0,0
28222.7,88.6337,-4093.82,0,0
28483.1,88.2395,-4055.84,0,0
28743.4,87.6466,-4017.97,0,0
29003.7,89.6937,-3980.91,0,0
29264,89.238,-3945.05,0,0
29524.4,92.5803,-3908.99,0,0
29784.7,95.6694,-3880.4,0,0
30045,93.4456,-3849.83,0,0
30305.3,92.6793,-3816.33,0,0
30565.7,88.6853,-3788.25,0,0
30826,86.4465,-3754.47,0,0
31086.3,85.4964,-3722.44,0,0
31346.6,83.746,-3691,0,0
31607,84.0973,-3660.07,0,0
31867.3,81.9882,-3630.65,0,0
32127.6,80.5711,-3599.51,0,0
32387.9,81.0882,-3569.07,0,0
32648.3,82.6884,-3541.87,0,0
32908.6,82.2557,-3515.54,0,0
33168.9,80.3797,-3488.43,0,0
33429.2,78.419,-3461.01,0,0
33689.6,78.0621,-3433.97,0,0
33949.9,77.3309,-3407.35,0,0
34210.2,75.7797,-3381.46,0,0
34470.5,74.9787,-3355.16,0,0
34730.9,74.5024,-3329.42,0,0
34991.2,74.045,-3304.16,0,0
35251.5,73.6008,-3279.39,0,0
35511.8,72.9677,-3255.2,0,0
35772.2,72.5518,-3230.82,0,0
36032.5,71.9673,-3207.51,0,0
36292.8,71.4247,-3183.86,0,0
36553.1,70.8405,-3160.79,0,0
36813.5,70.502,-3137.87,0,0
37073.8,70.2883,-3115.39,0,0
37334.1,69.9276,-3093.24,0,0
37594.4,69.6138,-3071.68,0,0
37854.8,69.005,-3050.27,0,0
38115.1,68.752,-3029.48,0,0
38375.4,68.2939,-3008.35,0,0
38635.7,67.799,-2987.65,0,0
38896.1,67.5133,-2967.11,0,0
39156.4,66.9789,-2947.26,0,0
39416.7,66.5271,-2927.4,0,0
39677,66.2354,-2907.72,0,0
39937.4,65.9963,-2888.44,0,0
40197.7,65.5591,-2869.3,0,0
40458,65.2366,-2850.2,0,0
40718.3,64.9113,-2831.29,0,0
40978.7,65.2359,-2813.32,0,0
41239,64.5584,-2795,0,0
41499.3,64.6401,-2777.23,0,0
41759.6,64.2473,-2759.71,0,0
42020,64.0059,-2742.07,0,0
42280.275,64.1444,-2724.95,0,0
42540.6,63.5679,-2708.09,0,0
42800.925,63.4342,-2691.29,0,0
43061.25,62.8659,-2674.44,0,0
43321.575,62.7145,-2657.98,0,0
43581.9,62.5518,-2641.8,0,0
43842.225,62.1068,-2625.66,0,0
44102.55,62.0497,-2609.67,0,0
44362.875,61.8746,-2594.15,0,0
44623.2,61.675,-2578.82,0,0
44883.525,61.2173,-2563.22,0,0
45143.85,60.898,-2547.76,0,0
45404.175,61.1266,-2532.95,0,0
45664.5,60.6379,-2517.91,0,0
45924.825,61.0194,-2502.94,0,0
46185.15,61.1825,-2489.25,0,0
46445.475,60.3013,-2475,0,0
46705.8,59.9525,-2460.27,0,0
46966.125,59.9461,-2446.37,0,0
47226.45,59.8362,-2432.01,0,0
47486.775,60.1621,-2418.93,0,0
47747.1,59.6587,-2404.93,0,0
48007.425,59.8044,-2391.36,0,0
48267.75,60.3527,-2377.67,0,0
48528.075,61.0207,-2365.84,0,0
48788.4,60.3667,-2353.64,0,0
49048.725,59.8156,-2341.21,0,0
49309.05,59.0355,-2328.81,0,0
49569.375,58.317,-2316.02,0,0
49829.7,57.8079,-2303.33,0,0
50090.025,57.7614,-2290.91,0,0
50350.35,57.1428,-2278.66,0,0
50610.675,56.8032,-2266.17,0,0
50871.0,57.0245,-2254.13,0,0
51131.325,56.679,-2242.48,0,0
51391.65,56.4166,-2230.91,0,0
51651.975,55.7878,-2219.31,0,0
51912.3,55.3631,-2207.6,0,0
52172.625,54.9966,-2195.9,0,0
52432.95,54.8867,-2184.42,0,0
52693.275,54.4916,-2172.95,0,0
52953.6,54.2711,-2161.59,0,0
53213.925,54.1666,-2150.43,0,0
53474.25,53.9761,-2139.25,0,0
53734.575,53.9314,-2128.41,0,0
53994.9,53.5809,-2117.51,0,0
54255.225,53.5736,-2106.67,0,0
54515.55,53.6571,-2096.04,0,0
54775.875,53.5542,-2085.59,0,0
55036.2,53.465,-2075.07,0,0
55296.525,53.2605,-2064.77,0,0
55556.85,53.2602,-2054.35,0,0
55817.175,53.1957,-2044.27,0,0
56077.5,53.2093,-2034.26,0,0
56337.825,53.1382,-2024.15,0,0
56598.15,53.068,-2014.35,0,0
56858.475,53.2094,-2004.51,0,0
57118.8,53.204,-1994.73,0,0
57379.125,53.2358,-1985.07,0,0
57639.45,53.1974,-1975.38,0,0
57899.775,53.3962,-1966.07,0,0
58160.1,53.4256,-1956.96,0,0
58420.4,53.3312,-1947.51,0,0
58680.7,53.1942,-1938.15,0,0
58941.1,53.5104,-1928.91,0,0
59201.4,53.6655,-1919.8,0,0
59461.7,53.9872,-1910.76,0,0
59722,54.1533,-1901.72,0,0
59982.4,54.8916,-1892.7,0,0
60242.7,55.6308,-1884.52,0,0
60503,55.6277,-1876.65,0,0
60763.3,55.6945,-1868.05,0,0
61023.7,55.8865,-1859.54,0,0
61284,56.5661,-1851.05,0,0
61544.3,57.5963,-1843.32,0,0
61804.6,58.3864,-1836.11,0,0
62065,58.4497,-1829.75,0,0
62325.3,57.399,-1822.4,0,0
62585.6,56.9117,-1814.57,0,0
62845.9,57.1804,-1807.14,0,0
63106.3,55.9848,-1800.63,0,0
63366.6,55.097,-1792.18,0,0
63626.9,54.8132,-1784.93,0,0
63887.2,53.9332,-1777.26,0,0
64147.6,53.6553,-1769.6,0,0
64407.9,53.1534,-1762.1,0,0
64668.2,52.5123,-1754.46,0,0
64928.5,51.5578,-1747.12,0,0
65188.9,50.6722,-1739.08,0,0
65449.2,50.2043,-1730.79,0,0
65709.5,50.2528,-1722.75,0,0
65969.8,50.3178,-1715.14,0,0
66230.2,50.2807,-1707.49,0,0
66490.5,50.4499,-1699.84,0,0
66750.8,50.5113,-1692.68,0,0
67011.1,50.3325,-1685.22,0,0
67271.5,50.7421,-1677.54,0,0
67531.8,51.3322,-1670.11,0,0
67792.1,52.0224,-1663.02,0,0
68052.4,52.9596,-1656.55,0,0
68312.8,52.9735,-1650.51,0,0
68573.1,52.8988,-1643.39,0,0
68833.4,53.6304,-1636.68,0,0
69093.7,54.2066,-1630.52,0,0
69354.1,54.5492,-1624.63,0,0
69614.4,54.7463,-1618.51,0,0
69874.7,55.2687,-1612.83,0,0
70135,55.204,-1607.53,0,0
70395.4,54.9556,-1602.46,0,0
70655.7,53.7474,-1597.13,0,0
70916,52.6891,-1590.76,0,0
71176.3,52.218,-1584.77,0,0
71436.7,51.417,-1578.91,0,0
71697,50.7269,-1572.99,0,0
71957.3,49.5414,-1567.25,0,0
72217.6,48.2989,-1560.85,0,0
72478,47.3119,-1554.2,0,0
72738.3,46.4658,-1547.53,0,0
72998.6,45.8865,-1540.74,0,0
73258.9,45.6073,-1534.27,0,0
73519.3,44.9532,-1527.8,0,0
73779.6,44.5536,-1520.95,0,0
74039.9,44.3825,-1514.17,0,0
74300.225,44.4757,-1507.59,0,0
74560.55,44.4696,-1501.27,0,0
74820.875,44.5703,-1494.89,0,0
75081.2,44.7501,-1488.52,0,0
75341.525,44.9673,-1482.32,0,0
75601.85,45.2335,-1476.14,0,0
75862.175,45.5453,-1469.96,0,0
76122.5,46.0568,-1463.92,0,0
76382.825,46.5372,-1458.13,0,0
76643.15,46.9048,-1452.29,0,0
76903.475,47.398,-1446.55,0,0
77163.8,47.9029,-1440.81,0,0
77424.125,48.5972,-1435.18,0,0
77684.45,49.3252,-1429.8,0,0
77944.775,50.0071,-1424.58,0,0
78205.1,50.7265,-1419.42,0,0
78465.425,51.5999,-1414.59,0,0
78725.75,52.0875,-1409.99,0,0
78986.075,52.5149,-1405.48,0,0
79246.4,52.7058,-1401.14,0,0
79506.725,52.8397,-1396.79,0,0
79767.05,52.7764,-1392.62,0,0
80027.375,52.1722,-1388.41,0,0
80287.7,51.3123,-1383.81,0,0
80548.025,50.7881,-1378.93,0,0
80808.35,50.1055,-1374.02,0,0
81068.675,49.5171,-1368.99,0,0
81329.0,49.0718,-1363.87,0,0
81589.325,48.6913,-1358.75,0,0
81849.65,48.3377,-1353.69,0,0
82109.975,48.0149,-1348.44,0,0
82370.3,47.7513,-1343.35,0,0
82630.625,47.5188,-1338.11,0,0
82890.95,47.5338,-1332.84,0,0
83151.275,47.6237,-1327.76,0,0
83411.6,47.7556,-1322.68,0,0
83671.925,47.9187,-1317.74,0,0
83932.25,48.078,-1312.87,0,0
84192.575,48.3153,-1308.15,0,0
84452.9,48.4432,-1303.44,0,0
84713.225,48.4394,-1298.76,0,0
84973.55,48.5329,-1293.97,0,0
85233.875,48.6442,-1289.35,0,0
85494.2,48.7815,-1284.52,0,0
85754.525,49.1179,-1279.89,0,0
86014.85,49.3166,-1275.48,0,0
86275.175,49.5263,-1271.01,0,0
86535.5,49.6787,-1266.65,0,0
86795.825,49.7626,-1262.2,0,0
87056.15,49.963,-1257.77,0,0
87316.475,50.1969,-1253.53,0,0
87576.8,50.2605,-1249.37,0,0
87837.125,50.2501,-1245,0,0
88097.45,50.2395,-1240.73,0,0
88357.775,50.4605,-1236.26,0,0
88618.1,50.7037,-1232.21,0,0
88878.425,50.3954,-1228.04,0,0
89138.75,50.6648,-1223.44,0,0
89399.075,50.8897,-1219.53,0,0
89659.4,50.8039,-1215.27,0,0
89919.725,51.1365,-1210.92,0,0
90180,51.3984,-1207.21,0,0
90440.4,50.9157,-1203.32,0,0
90700.7,50.4803,-1198.89,0,0
90961,50.7127,-1193.86,0,0
91221.3,51.2682,-1189.58,0,0
91481.7,51.9075,-1185.62,0,0
91742,52.16,-1181.65,0,0
92002.3,52.3774,-1177.42,0,0
92262.6,53.0492,-1173.37,0,0
92523,53.6556,-1169.73,0,0
92783.3,54.1442,-1165.98,0,0
93043.6,54.525,-1162.4,0,0
93303.9,54.9346,-1158.87,0,0
93564.3,55.3555,-1155.36,0,0
93824.6,55.8013,-1152.26,0,0
94084.9,55.6925,-1149.35,0,0
94345.2,55.1894,-1146.1,0,0
94605.6,54.8501,-1142.34,0,0
94865.9,54.8404,-1138.8,0,0
95126.2,54.3174,-1135.43,0,0
95386.5,53.6374,-1131.44,0,0
95646.9,53.4817,-1126.98,0,0
95907.2,53.7934,-1122.58,0,0
96167.5,54.6303,-1118.48,0,0
96427.8,55.4856,-1115.13,0,0
96688.2,56.1142,-1111.81,0,0
96948.5,56.6193,-1108.66,0,0
97208.8,57.1746,-1105.63,0,0
97469.1,57.6045,-1103.15,0,0
97729.5,57.2062,-1100.61,0,0
97989.8,56.7615,-1097.54,0,0
98250.1,56.662,-1094.33,0,0
98510.4,56.5353,-1091.49,0,0
98770.8,56.1078,-1088.71,0,0
99031.1,55.5992,-1085.87,0,0
99291.4,54.731,-1083.07,0,0
99551.7,53.5722,-1079.81,0,0
99812.1,52.5671,-1075.99,0,0
100072,52.2741,-1072.19,0,0
100333,52.026,-1068.73,0,0
100593,51.6619,-1065.61,0,0
100853,50.8604,-1062.48,0,0
101114,49.9637,-1059,0,0
101374,48.9354,-1055.53,0,0
101634,47.7065,-1051.54,0,0
101895,46.9117,-1047.02,0,0
102155,46.786,-1042.65,0,0
102415,46.7034,-1038.77,0,0
102676,46.3082,-1034.97,0,0
102936,45.7061,-1030.82,0,0
103196,45.438,-1026.45,0,0
103457,45.384,-1021.99,0,0
103717,45.6824,-1017.62,0,0
103977,45.9196,-1013.38,0,0
104238,46.46,-1009.06,0,0
104498,47.2094,-1004.97,0,0
104758,48.1186,-1001.05,0,0
105019,49.0131,-997.556,0,0
105279,49.534,-994.045,0,0
105539,50.2874,-990.233,0,0
105800,51.3507,-986.726,0,0
106060,52.2664,-983.397,0,0
106320.175,53.4289,-980.054,0,0
106580.5,54.7429,-977.23,0,0
106840.825,55.7602,-974.739,0,0
107101.15,56.647,-972.325,0,0
107361.475,57.398,-970.35,0,0
107621.8,57.4597,-968.489,0,0
107882.125,57.3537,-966.131,0,0
108142.45,57.2706,-964.02,0,0
108402.775,56.733,-961.581,0,0
108663.1,56.3472,-958.977,0,0
108923.425,55.886,-956.486,0,0
109183.75,55.1418,-953.856,0,0
109444.075,54.361,-950.803,0,0
109704.4,53.8476,-947.834,0,0
109964.725,53.0344,-944.773,0,0
110225.05,52.2813,-941.437,0,0
110485.375,51.706,-937.771,0,0
110745.7,51.3508,-934.16,0,0
111006.025,51.147,-930.621,0,0
111266.35,50.9401,-926.997,0,0
111526.675,50.9526,-923.441,0,0
111787.0,50.8923,-919.932,0,0
112047.325,51.0102,-916.37,0,0
112307.65,51.0764,-912.972,0,0
112567.975,51.0978,-909.555,0,0
112828.3,51.1573,-906.02,0,0
113088.625,51.3056,-902.513,0,0
113348.95,51.5585,-898.926,0,0
113609.275,51.9239,-895.468,0,0
113869.6,52.2115,-892.167,0,0
114129.925,52.5381,-888.698,0,0
114390.25,52.964,-885.25,0,0
114650.575,53.3896,-881.907,0,0
114910.9,53.9118,-878.52,0,0
115171.225,54.4697,-875.205,0,0
115431.55,55.0892,-872.064,0,0
115691.875,55.6064,-868.899,0,0
115952.2,56.158,-865.677,0,0
116212.525,56.7428,-862.47,0,0
116472.85,57.3958,-859.282,0,0
116733.175,58.1169,-856.218,0,0
116993.5,58.8379,-853.156,0,0
117253.825,59.5526,-850.159,0,0
117514.15,60.295,-847.133,0,0
117774.475,61.1981,-844.201,0,0
118034.8,62.1218,-841.459,0,0
118295.125,62.858,-838.8,0,0
118555.45,63.583,-836.067,0,0
118815.775,64.4783,-833.326,0,0
119076.1,65.4463,-830.838,0,0
119336.425,66.1764,-828.497,0,0
119596.75,66.9328,-826.074,0,0
119857.075,67.7564,-823.788,0,0
120117.4,68.5156,-821.693,0,0
120377.725,68.9867,-819.751,0,0
120638.05,69.3567,-817.712,0,0
120898.375,69.6203,-815.803,0,0
121158.7,69.5398,-813.781,0,0
121419.025,69.5222,-811.482,0,0
121679.35,69.4729,-809.24,0,0
121939.675,69.3605,-806.86,0,0
122200.0,69.2804,-804.409,0,0
122460,69.163,-801.922,0,0
122721,69.0698,-799.305,0,0
122981,69.0217,-796.661,0,0
123241,69.0523,-793.963,0,0
123502,69.157,-791.328,0,0
123762,69.2614,-788.75,0,0
124022,69.3177,-786.189,0,0
124283,69.3039,-783.617,0,0
124543,69.2467,-781.004,0,0
124803,69.1333,-778.327,0,0
125064,69.0077,-775.585,0,0
125324,68.9905,-772.756,0,0
125584,68.9154,-769.829,0,0
125845,68.9709,-766.863,0,0
126105,69.0689,-763.908,0,0
126365,69.1626,-760.916,0,0
126626,69.2561,-757.858,0,0
126886,69.4889,-754.743,0,0
127146,69.8647,-751.577,0,0
127406,70.4387,-748.539,0,0
127667,70.8543,-745.556,0,0
127927,71.4094,-742.681,0,0
128187,71.9663,-739.73,0,0
128448,72.5667,-736.833,0,0
128708,73.1939,-733.943,0,0
128968,73.936,-731.098,0,0
129229,74.6332,-728.406,0,0
129489,75.3004,-725.776,0,0
129749,75.9132,-723.073,0,0
130010,76.6071,-720.335,0,0
130270,77.4936,-717.672,0,0
130530,78.3675,-715.228,0,0
130791,79.1796,-712.922,0,0
131051,79.8527,-710.737,0,0
131311,80.4077,-708.552,0,0
131572,80.8013,-706.353,0,0
131832,81.1483,-704.068,0,0
132092,81.4583,-701.74,0,0
132353,81.7365,-699.381,0,0
132613,82.0157,-696.952,0,0
132873,82.2663,-694.542,0,0
133134,82.5013,-692.046,0,0
133394,82.8062,-689.515,0,0
133654,83.1232,-687.087,0,0
133915,83.3319,-684.678,0,0
134175,83.4176,-682.205,0,0
134435,83.4749,-679.635,0,0
134696,83.533,-676.929,0,0
134956,83.614,-674.15,0,0
135216,83.7367,-671.288,0,0
135477,83.9648,-668.357,0,0
135737,84.2379,-665.425,0,0
135997,84.5699,-662.527,0,0
136258,84.9217,-659.534,0,0
136518,85.371,-656.591,0,0
136778,85.7654,-653.68,0,0
137039,86.1672,-650.662,0,0
137299,86.749,-647.616,0,0
137559,87.3893,-644.682,0,0
137819,87.9728,-641.817,0,0
138080,88.5291,-639.064,0,0
138340.125,88.939,-636.275,0,0
138600.45,89.2292,-633.344,0,0
138860.775,89.5962,-630.297,0,0
139121.1,89.9819,-627.186,0,0
139381.425,90.4052,-623.996,0,0
139641.75,90.7963,-620.794,0,0
139902.075,91.1448,-617.439,0,0
140162.4,91.5622,-613.784,0,0
140422.725,92.2377,-610.011,0,0
140683.05,93.1814,-606.234,0,0
140943.375,94.2437,-602.584,0,0
141203.7,95.3189,-598.848,0,0
141464.025,96.6395,-594.971,0,0
141724.35,98.2994,-591.222,0,0
141984.675,100.168,-587.768,0,0
142245.0,101.993,-584.578,0,0
142505.325,103.707,-581.534,0,0
142765.65,105.244,-578.53,0,0
143025.975,106.717,-575.437,0,0
143286.3,108.216,-572.234,0,0
143546.625,109.804,-568.915,0,0
143806.95,111.556,-565.647,0,0
144067.275,113.371,-562.498,0,0
144327.6,115.12,-559.372,0,0
144587.925,116.853,-556.118,0,0
144848.25,118.78,-552.779,0,0
145108.575,120.863,-549.54,0,0
145368.9,122.977,-546.385,0,0
145629.225,125.128,-543.293,0,0
145889.55,127.23,-540.231,0,0
146149.875,129.31,-537.072,0,0
146410.2,131.514,-533.815,0,0
146670.525,133.812,-530.529,0,0
146930.85,136.217,-527.194,0,0
147191.175,138.775,-523.799,0,0
147451.5,141.516,-520.379,0,0
147711.825,144.422,-517,0,0
147972.15,147.461,-513.592,0,0
148232.475,150.732,-510.094,0,0
148492.8,154.38,-506.576,0,0
148753.125,158.328,-503.21,0,0
149013.45,162.609,-499.851,0,0
149273.775,167.51,-496.794,0,0
149534.1,172.701,-494.329,0,0
149794.425,177.895,-492.291,0,0
150054.75,183.189,-490.505,0,0
150315.075,188.83,-488.978,0,0
150575.4,194.806,-488.116,0,0
150835.725,200.687,-488.18,0,0
151096.05,206.172,-488.796,0,0
151356.375,211.332,-489.696,0,0
151616.7,216.43,-490.958,0,0
151877.025,221.342,-492.797,0,0
152137.35,225.787,-495.314,0,0
152397.675,229.392,-498.192,0,0
152658.0,232.312,-501.012,0,0
152918.325,234.782,-503.692,0,0
153178.65,237.007,-506.334,0,0
153438.975,238.897,-509.148,0,0
153699.3,240.05,-511.946,0,0
153959.625,240.806,-514.393,0,0
154219.95,241.227,-516.497,0,0
154480,241.536,-518.364,0,0
154741,241.675,-519.801,0,0
155001,241.768,-521.063,0,0
155261,241.998,-521.999,0,0
155522,242.41,-523.066,0,0
155782,242.827,-524.403,0,0
156042,242.686,-525.785,0,0
156303,242.347,-526.929,0,0
156563,241.856,-527.87,0,0
156823,241.328,-528.655,0,0
157084,240.727,-529.242,0,0
157344,239.735,-529.784,0,0
157604,238.735,-529.873,0,0
157864,237.927,-529.445,0,0
158125,237.444,-529.328,0,0
158385,236.606,-529.268,0,0
158645,235.654,-528.94,0,0
158906,234.691,-528.15,0,0
159166,233.764,-527.118,0,0
159426,233.034,-525.813,0,0
159687,232.783,-524.176,0,0
159947,232.929,-522.549,0,0
160207,233.456,-521.274,0,0
160468,233.809,-520.398,0,0
160728,233.738,-519.333,0,0
160988,234.118,-517.472,0,0
161249,235.337,-515.677,0,0
161509,237.421,-514.533,0,0
161769,239.744,-514.363,0,0
162030,241.966,-515.187,0,0
162290,243.504,-517.197,0,0
162550,243.551,-519.548,0,0
162811,243.035,-521.291,0,0
163071,241.995,-523.031,0,0
163331,240.346,-524.698,0,0
163592,238.038,-525.702,0,0
163852,235.623,-526.11,0,0
164112,233.278,-526.338,0,0
164373,230.455,-526.227,0,0
164633,227.642,-525.816,0,0
164893,224.528,-525.067,0,0
165154,221.022,-523.675,0,0
165414,217.818,-521.515,0,0
165674,215.023,-518.863,0,0
165935,212.762,-515.916,0,0
166195,210.755,-513.101,0,0
166455,208.796,-510.334,0,0
166716,206.83,-507.523,0,0
166976,204.928,-504.257,0,0
167236,203.314,-501.181,0,0
167497,201.389,-498.102,0,0
167757,199.214,-494.396,0,0
168017,197.289,-490.079,0,0
168277,196.012,-485.353,0,0
168538,195.431,-480.614,0,0
168798,195.104,-476.242,0,0
169058,194.744,-471.936,0,0
169319,194.379,-467.575,0,0
169579,194.273,-462.913,0,0
169839,194.558,-458.192,0,0
170100,195.151,-453.785,0,0
170360.075,195.797,-449.533,0,0
170620.4,196.208,-445.314,0,0
170880.725,196.617,-440.85,0,0
171141.05,197.216,-436.1,0,0
171401.375,198.278,-431.412,0,0
171661.7,199.396,-426.742,0,0
171922.025,200.785,-421.949,0,0
172182.35,202.347,-417.356,0,0
172442.675,203.954,-412.86,0,0
172703.0,205.748,-408.227,0,0
172963.325,207.762,-403.78,0,0
173223.65,209.668,-399.47,0,0
173483.975,211.455,-394.984,0,0
173744.3,213.57,-390.113,0,0
174004.625,216.009,-385.416,0,0
174264.95,218.567,-380.671,0,0
174525.275,221.354,-375.93,0,0
174785.6,224.496,-371.065,0,0
175045.925,227.912,-366.408,0,0
175306.25,231.702,-361.744,0,0
175566.575,235.795,-357.368,0,0
175826.9,240.111,-353.422,0,0
176087.225,244.179,-349.666,0,0
176347.55,248.396,-345.583,0,0
176607.875,253.308,-341.698,0,0
176868.2,258.5,-338.183,0,0
177128.525,264.091,-335.096,0,0
177388.85,269.87,-332.782,0,0
177649.175,275.449,-331.283,0,0
177909.5,280.362,-330.292,0,0
178169.825,284.782,-329.152,0,0
178430.15,289.356,-327.745,0,0
178690.475,294.389,-326.777,0,0
178950.8,299.27,-326.797,0,0
179211.125,302.264,-326.113,0,0
179471.45,306.129,-326.473,0,0
179731.775,309.136,-327.282,0,0
179992.1,310.818,-327.853,0,0
180252.425,311.923,-327.319,0,0
180512.75,313.269,-326.193,0,0
180773.075,314.33,-324.964,0,0
181033.4,315.032,-323.031,0,0
181293.725,315.816,-320.243,0,0
181554.05,317.042,-316.688,0,0
181814.375,319.053,-312.922,0,0
182074.7,321.462,-309.147,0,0
182335.025,324.163,-305.561,0,0
182595.35,326.813,-301.999,0,0
182855.675,329.267,-298.174,0,0
183116.0,332.082,-293.504,0,0
183376.325,335.671,-288.752,0,0
183636.65,339.802,-283.947,0,0
183896.975,344.329,-279.37,0,0
184157.3,349.146,-274.736,0,0
184417.625,354.717,-270.174,0,0
184677.95,360.684,-266.298,0,0
184938.275,366.606,-262.796,0,0
185198.6,372.484,-259.378,0,0
185458.925,378.492,-256.052,0,0
185719.25,384.607,-252.853,0,0
185979.575,390.707,-249.657,0,0
186239.9,397.137,-246.259,0,0
186500,403.986,-243.281,0,0
186761,410.688,-240.44,0,0
187021,417.566,-237.238,0,0
187281,425.218,-234.168,0,0
187542,433.34,-231.74,0,0
187802,441.359,-229.763,0,0
188062,449.596,-228.073,0,0
188322,457.765,-226.958,0,0
188583,465.451,-226.195,0,0
188843,472.852,-225.427,0,0
189103,479.906,-224.486,0,0
189364,487.091,-222.98,0,0
189624,494.454,-221.302,0,0
189884,502.088,-219.207,0,0
190145,510.327,-216.882,0,0
190405,519.365,-214.609,0,0
190665,528.866,-212.686,0,0
190926,538.664,-210.755,0,0
191186,549.049,-208.89,0,0
191446,560.562,-207.3,0,0
191707,572.415,-206.85,0,0
191967,584.327,-206.632,0,0
192227,596.853,-206.683,0,0
192488,609.914,-207.438,0,0
192748,623.333,-208.735,0,0
193008,637.395,-210.692,0,0
193269,652.079,-213.765,0,0
193529,666.911,-218.184,0,0
193789,681.541,-223.876,0,0
194050,695.716,-230.761,0,0
194310,709.104,-238.264,0,0
194570,722.114,-246.062,0,0
194831,735.269,-254.501,0,0
195091,747.989,-263.988,0,0
195351,760.119,-274.394,0,0
195612,771.202,-285.237,0,0
195872,781.62,-295.9,0,0
196132,792.112,-306.655,0,0
196393,802.488,-318.015,0,0
196653,812.458,-330,0,0
196913,821.957,-342.218,0,0
197174,831.292,-354.742,0,0
197434,840.626,-367.935,0,0
197694,849.79,-382.006,0,0
197955,858.048,-397.27,0,0
198215,865.164,-412.963,0,0
198475,871.324,-428.962,0,0
198735,876.619,-444.935,0,0
198996,881.546,-460.977,0,0
199256,885.652,-477.579,0,0
199516,888.967,-494.093,0,0
199777,891.809,-510.94,0,0
200037,893.966,-528.008,0,0
200297,895.175,-545.325,0,0
200558,895.599,-562.801,0,0
200818,895.054,-580.429,0,0
201078,893.501,-598.207,0,0
201339,890.738,-616.166,0,0
201599,886.451,-633.527,0,0
201859,880.992,-649.907,0,0
202120,875.102,-665.211,0,0
202380.025,869.059,-679.85,0,0
202640.35,862.845,-694.426,0,0
202900.675,855.86,-708.851,0,0
203161.0,848.075,-722.745,0,0
203421.325,839.469,-735.818,0,0
203681.65,830.529,-747.823,0,0
203941.975,821.658,-758.749,0,0
204202.3,813.398,-769.231,0,0
204462.625,805.537,-780.004,0,0
204722.95,797.338,-791.228,0,0
204983.275,787.88,-802.902,0,0
205243.6,777.062,-814.075,0,0
205503.925,765.168,-823.745,0,0
205764.25,752.849,-831.94,0,0
206024.575,740.864,-838.642,0,0
206284.9,729.567,-844.652,0,0
206545.225,718.677,-850.593,0,0
206805.55,707.389,-856.258,0,0
207065.875,695.598,-860.989,0,0
207326.2,683.936,-864.456,0,0
207586.525,672.996,-866.666,0,0
207846.85,662.907,-868.173,0,0
208107.175,654.174,-869.41,0,0
208367.5,646.386,-871.008,0,0
208627.825,638.827,-873.027,0,0
208888.15,631.714,-874.956,0,0
209148.475,625.328,-877.485,0,0
209408.8,618.799,-881.093,0,0
209669.125,611.637,-885.294,0,0
209929.45,603.278,-889.668,0,0
210189.775,594.401,-893.295,0,0
210450.1,585.424,-896.298,0,0
210710.425,576.354,-899.323,0,0
210970.75,566.795,-902.248,0,0
211231.075,556.645,-904.664,0,0
211491.4,545.838,-906.173,0,0
211751.725,534.992,-906.439,0,0
212012.05,524.612,-905.582,0,0
212272.375,515.076,-903.99,0,0
212532.7,506.342,-902.293,0,0
212793.025,497.974,-900.431,0,0
213053.35,489.947,-898.544,0,0
213313.675,482.147,-896.459,0,0
213574.0,474.606,-894.181,0,0
213834.325,467.398,-891.688,0,0
214094.65,460.592,-889.126,0,0
214354.975,453.971,-886.541,0,0
214615.3,447.589,-883.962,0,0
214875.625,441.297,-881.131,0,0
215135.95,435.331,-878.267,0,0
215396.275,429.511,-875.201,0,0
215656.6,423.793,-872.06,0,0
215916.925,418.385,-868.531,0,0
216177.25,413.504,-864.986,0,0
216437.575,408.901,-861.479,0,0
216697.9,404.528,-858.026,0,0
216958.225,400.498,-854.505,0,0
217218.55,396.757,-850.938,0,0
217478.875,393.364,-847.539,0,0
217739.2,390.216,-844.381,0,0
217999.525,387.065,-841.361,0,0
218259.85,383.939,-838.347,0,0
218520,380.981,-835.215,0,0
218780,378.356,-832.041,0,0
219041,375.954,-829.065,0,0
219301,373.713,-826.177,0,0
219561,371.505,-823.523,0,0
219822,369.385,-820.876,0,0
220082,367.436,-818.27,0,0
220342,365.408,-815.772,0,0
220603,363.369,-813.136,0,0
220863,361.656,-810.304,0,0
221123,360.373,-807.488,0,0
221384,359.416,-805.019,0,0
221644,358.591,-802.809,0,0
221904,357.731,-800.904,0,0
222165,356.923,-799.038,0,0
222425,356.182,-797.412,0,0
222685,355.357,-795.946,0,0
222946,354.661,-794.61,0,0
223206,353.815,-793.398,0,0
223466,352.897,-792.31,0,0
223727,351.825,-791.129,0,0
223987,350.987,-789.77,0,0
224247,350.353,-788.567,0,0
224508,349.564,-787.551,0,0
224768,348.879,-786.585,0,0
225028,348.158,-785.656,0,0
225289,347.617,-784.811,0,0
225549,346.97,-784.07,0,0
225809,346.416,-783.237,0,0
226070,345.93,-782.495,0,0
226330,345.581,-781.933,0,0
226590,345.375,-781.476,0,0
226851,345.104,-781.121,0,0
227111,344.855,-780.955,0,0
227371,344.784,-780.831,0,0
227632,344.828,-780.882,0,0
227892,344.986,-781.265,0,0
228152,345.051,-782.062,0,0
228413,344.889,-783.195,0,0
228673,344.566,-784.563,0,0
228933,343.874,-786.11,0,0
229193,342.929,-787.807,0,0
229454,341.602,-789.456,0,0
229714,340.108,-791.138,0,0
229974,338.354,-792.62,0,0
230235,336.435,-794.217,0,0
230495,334.361,-795.524,0,0
230755,332.228,-796.874,0,0
231016,330.06,-798.177,0,0
231276,327.735,-799.457,0,0
231536,325.266,-800.638,0,0
231797,322.745,-801.874,0,0
232057,320.006,-803.069,0,0
232317,317.109,-804.176,0,0
232578,314.033,-805.119,0,0
232838,310.904,-805.946,0,0
233098,307.688,-806.63,0,0
233359,304.418,-807.093,0,0
233619,301.152,-807.501,0,0
233879,297.785,-807.791,0,0
234140,294.4,-807.93,0,0
234400,291.005,-807.887,0,0
234660.3,287.73,-807.803,0,0
234920.625,284.395,-807.636,0,0
235180.95,281.181,-807.354,0,0
235441.275,277.871,-807.033,0,0
235701.6,274.65,-806.542,0,0
235961.925,271.371,-806.057,0,0
236222.25,268.221,-805.615,0,0
236482.575,264.944,-805.043,0,0
236742.9,261.662,-804.472,0,0
237003.225,258.234,-803.797,0,0
237263.55,254.826,-802.939,0,0
237523.875,251.418,-801.875,0,0
237784.2,248.118,-800.639,0,0
238044.525,244.911,-799.247,0,0
238304.85,241.893,-797.92,0,0
238565.175,238.992,-796.6,0,0
238825.5,236.08,-795.255,0,0
239085.825,233.093,-793.917,0,0
239346.15,230.194,-792.52,0,0
239606.475,227.111,-790.984,0,0
239866.8,224.267,-789.411,0,0
240127.125,221.357,-787.708,0,0
240387.45,218.556,-785.855,0,0
240647.775,215.855,-783.951,0,0
240908.1,213.199,-782.067,0,0
241168.425,210.687,-780.064,0,0
241428.75,208.223,-777.912,0,0
241689.075,205.846,-775.789,0,0
241949.4,203.591,-773.586,0,0
242209.725,201.468,-771.271,0,0
242470.05,199.647,-769.044,0,0
242730.375,197.939,-766.786,0,0
242990.7,196.418,-764.702,0,0
243251.025,194.987,-762.759,0,0
243511.35,193.616,-760.889,0,0
243771.675,192.22,-759.172,0,0
244032.0,190.99,-757.498,0,0
244292.325,189.707,-756.016,0,0
244552.65,188.461,-754.518,0,0
244812.975,187.164,-753.273,0,0
245073.3,185.886,-752.331,0,0
245333.625,184.453,-751.34,0,0
245593.95,182.954,-750.508,0,0
245854.275,181.309,-749.735,0,0
246114.6,179.405,-749.156,0,0
246374.925,177.259,-748.56,0,0
246635.25,174.856,-747.889,0,0
246895.575,172.124,-746.986,0,0
247155.9,169.185,-745.909,0,0
247416.225,166.279,-744.517,0,0
247676.55,163.309,-742.866,0,0
247936.875,160.364,-740.99,0,0
248197.2,157.634,-738.94,0,0
248457.525,154.906,-736.928,0,0
248717.85,152.129,-734.711,0,0
248978.175,149.469,-732.339,0,0
249238.5,146.807,-729.878,0,0
249498.825,144.197,-727.272,0,0
249759.15,141.664,-724.492,0,0
250019.475,139.21,-721.558,0,0
250279.8,136.883,-718.445,0,0
250540,134.602,-715.265,0,0
250800,132.553,-711.935,0,0
251061,130.656,-708.521,0,0
251321,128.889,-704.94,0,0
251581,127.381,-701.331,0,0
251842,126.095,-697.702,0,0
252102,125.006,-694.11,0,0
252362,124.059,-690.523,0,0
252623,123.309,-687.02,0,0
252883,122.685,-683.647,0,0
253143,122.121,-680.326,0,0
253404,121.638,-677.062,0,0
253664,121.167,-673.836,0,0
253924,120.813,-670.668,0,0
254185,120.455,-667.518,0,0
254445,120.151,-664.312,0,0
254705,119.976,-661.119,0,0
254966,119.797,-657.913,0,0
255226,119.697,-654.701,0,0
255486,119.831,-651.466,0,0
255747,120.061,-648.264,0,0
256007,120.454,-645.108,0,0
256267,120.919,-642.021,0,0
256528,121.521,-639.034,0,0
256788,122.191,-636.105,0,0
257048,122.941,-633.28,0,0
257309,123.736,-630.522,0,0
257569,124.569,-627.826,0,0
257829,125.491,-625.185,0,0
258090,126.48,-622.624,0,0
258350,127.536,-620.15,0,0
258610,128.629,-617.711,0,0
258871,129.768,-615.321,0,0
259131,130.989,-612.993,0,0
259391,132.294,-610.776,0,0
259651,133.668,-608.633,0,0
259912,135.09,-606.59,0,0
260172,136.626,-604.632,0,0
260432,138.062,-602.837,0,0
260693,139.551,-601.098,0,0
260953,141.1,-599.482,0,0
261213,142.687,-597.906,0,0
261474,144.284,-596.492,0,0
261734,145.887,-595.184,0,0
261994,147.465,-593.985,0,0
262255,149.002,-592.895,0,0
262515,150.506,-591.862,0,0
262775,151.99,-590.897,0,0
263036,153.431,-589.999,0,0
263296,154.876,-589.152,0,0
263556,156.251,-588.378,0,0
263817,157.681,-587.664,0,0
264077,159.023,-586.99,0,0
264337,160.427,-586.337,0,0
264598,161.814,-585.768,0,0
264858,163.212,-585.313,0,0
265118,164.647,-584.963,0,0
265379,165.947,-584.712,0,0
265639,167.203,-584.583,0,0
265899,168.352,-584.515,0,0
266160,169.412,-584.469,0,0
266420,170.383,-584.422,0,0
266680.25,171.326,-584.364,0,0
266940.575,172.265,-584.303,0,0
267200.9,173.188,-584.307,0,0
267461.225,174.086,-584.355,0,0
267721.55,174.906,-584.505,0,0
267981.875,175.688,-584.717,0,0
268242.2,176.374,-584.967,0,0
268502.525,176.953,-585.307,0,0
268762.85,177.335,-585.717,0,0
269023.175,177.504,-586.058,0,0
269283.5,177.543,-586.233,0,0
269543.825,177.481,-586.276,0,0
269804.15,177.358,-586.131,0,0
270064.475,177.311,-585.868,0,0
270324.8,177.282,-585.401,0,0
270585.125,177.334,-584.876,0,0
270845.45,177.55,-584.252,0,0
271105.775,177.812,-583.67,0,0
271366.1,178.122,-583.073,0,0
271626.425,178.408,-582.449,0,0
271886.75,178.764,-581.717,0,0
272147.075,179.173,-580.865,0,0
272407.4,179.721,-579.915,0,0
272667.725,180.508,-578.858,0,0
272928.05,181.484,-577.816,0,0
273188.375,182.694,-576.812,0,0
273448.7,184.144,-575.861,0,0
273709.025,185.822,-575.009,0,0
273969.35,187.762,-574.355,0,0
274229.675,189.919,-573.911,0,0
274490.0,192.26,-573.725,0,0
274750.325,194.774,-573.953,0,0
275010.65,197.348,-574.424,0,0
275270.975,199.945,-575.392,0,0
275531.3,202.54,-576.713,0,0
275791.625,205.048,-578.498,0,0
276051.95,207.354,-580.722,0,0
276312.275,209.349,-583.345,0,0
276572.6,210.972,-586.323,0,0
276832.925,212.075,-589.494,0,0
277093.25,212.746,-592.73,0,0
277353.575,213.023,-595.995,0,0
277613.9,212.928,-599.236,0,0
277874.225,212.455,-602.446,0,0
278134.55,211.655,-605.514,0,0
278394.875,210.547,-608.435,0,0
278655.2,209.153,-611.176,0,0
278915.525,207.611,-613.685,0,0
279175.85,205.948,-616.028,0,0
279436.175,204.121,-618.284,0,0
279696.5,202.119,-620.365,0,0
279956.825,199.963,-622.265,0,0
280217.15,197.639,-623.903,0,0
280477.475,195.388,-625.282,0,0
280737.8,193.137,-626.512,0,0
280998.125,190.929,-627.647,0,0
281258.45,188.767,-628.744,0,0
281518.775,186.55,-629.853,0,0
281779.1,184.234,-630.976,0,0
282039.425,181.809,-632.056,0,0
282299.75,179.089,-633.087,0,0
282560,176.171,-633.912,0,0
282820,173.067,-634.446,0,0
283081,169.878,-634.646,0,0
283341,166.677,-634.472,0,0
283601,163.636,-633.929,0,0
283862,160.9,-633.131,0,0
284122,158.458,-632.301,0,0
284382,156.231,-631.541,0,0
284643,154.07,-631.014,0,0
284903,151.758,-630.55,0,0
285163,149.279,-630.142,0,0
285424,146.633,-629.583,0,0
285684,143.837,-628.782,0,0
285944,140.909,-627.784,0,0
286205,137.933,-626.533,0,0
286465,134.908,-625,0,0
286725,131.921,-623.138,0,0
286986,129.031,-620.957,0,0
287246,126.28,-618.452,0,0
287506,123.689,-615.63,0,0
287767,121.36,-612.504,0,0
288027,119.322,-609.106,0,0
288287,117.592,-605.421,0,0
288548,116.291,-601.513,0,0
288808,115.519,-597.46,0,0
289068,115.242,-593.352,0,0
289329,115.521,-589.278,0,0
289589,116.287,-585.434,0,0
289849,117.492,-581.815,0,0
290109,119.004,-578.546,0,0
290370,120.8,-575.562,0,0
290630,122.798,-572.822,0,0
290890,125.066,-570.346,0,0
291151,127.628,-568.199,0,0
291411,130.426,-566.445,0,0
291671,133.402,-565.168,0,0
291932,136.503,-564.392,0,0
292192,139.644,-564.177,0,0
292452,142.719,-564.594,0,0
292713,145.522,-565.675,0,0
292973,147.817,-567.275,0,0
293233,149.473,-569.229,0,0
293494,150.478,-571.267,0,0
293754,150.889,-573.24,0,0
294014,150.802,-574.952,0,0
294275,150.34,-576.297,0,0
294535,149.73,-577.259,0,0
294795,149.01,-577.835,0,0
295056,148.426,-577.964,0,0
295316,148.074,-577.768,0,0
295576,148.119,-577.407,0,0
295837,148.65,-577.027,0,0
296097,149.66,-576.886,0,0
296357,151.092,-577.228,0,0
296618,152.657,-578.285,0,0
296878,153.998,-580.087,0,0
297138,154.868,-582.479,0,0
297399,155.039,-585.189,0,0
297659,154.47,-587.982,0,0
297919,153.263,-590.583,0,0
298180,151.546,-592.818,0,0
298440,149.557,-594.629,0,0
298700.2,147.398,-596.052,0,0
298960.525,145.216,-597.161,0,0
299220.85,142.99,-598.034,0,0
299481.175,140.707,-598.673,0,0
299741.5,138.394,-599.046,0,0
300001.825,136.151,-599.134,0,0
300262.15,134.006,-598.97,0,0
300522.475,131.965,-598.629,0,0
300782.8,130.126,-598.108,0,0
301043.125,128.459,-597.533,0,0
301303.45,126.976,-596.917,0,0
301563.775,125.611,-596.278,0,0
301824.1,124.367,-595.653,0,0
302084.425,123.253,-595.053,0,0
302344.75,122.25,-594.534,0,0
302605.075,121.34,-594.102,0,0
302865.4,120.47,-593.797,0,0
303125.725,119.594,-593.61,0,0
303386.05,118.619,-593.549,0,0
303646.375,117.563,-593.515,0,0
303906.7,116.441,-593.473,0,0
304167.025,115.257,-593.467,0,0
304427.35,113.984,-593.444,0,0
304687.675,112.644,-593.44,0,0
304948.0,111.198,-593.439,0,0
305208.325,109.637,-593.361,0,0
305468.65,107.991,-593.188,0,0
305728.975,106.274,-592.932,0,0
305989.3,104.518,-592.486,0,0
306249.625,102.781,-591.953,0,0
306509.95,101.065,-591.312,0,0
306770.275,99.4125,-590.574,0,0
307030.6,97.78,-589.789,0,0
307290.925,96.2182,-588.933,0,0
307551.25,94.69,-588.041,0,0
307811.575,93.2051,-587.117,0,0
308071.9,91.7498,-586.181,0,0
308332.225,90.2987,-585.198,0,0
308592.55,88.8567,-584.156,0,0
308852.875,87.4374,-583.076,0,0
309113.2,86.0862,-581.936,0,0
309373.525,84.7688,-580.764,0,0
309633.85,83.5332,-579.572,0,0
309894.175,82.3155,-578.376,0,0
310154.5,81.1495,-577.145,0,0
310414.825,79.9944,-575.905,0,0
310675.15,78.8536,-574.638,0,0
310935.475,77.7952,-573.345,0,0
311195.8,76.7588,-572.043,0,0
311456.125,75.7688,-570.736,0,0
311716.45,74.8251,-569.418,0,0
311976.775,73.8985,-568.086,0,0
312237.1,72.9843,-566.765,0,0
312497.425,72.1466,-565.435,0,0
312757.75,71.3201,-564.086,0,0
313018.075,70.5407,-562.76,0,0
313278.4,69.777,-561.411,0,0
313538.725,69.0455,-560.06,0,0
313799.05,68.3265,-558.731,0,0
314059.375,67.6663,-557.375,0,0
314319.7,67.0416,-556.017,0,0
314580,66.4082,-554.706,0,0
314840,65.8319,-553.428,0,0
315101,65.2746,-552.074,0,0
315361,64.7711,-550.786,0,0
315621,64.2503,-549.506,0,0
315882,63.6775,-548.215,0,0
316142,63.1719,-546.939,0,0
316402,62.6612,-545.64,0,0
316663,62.2498,-544.315,0,0
316923,61.7602,-542.999,0,0
317183,61.3684,-541.699,0,0
317444,60.9624,-540.398,0,0
317704,60.687,-539.146,0,0
317964,60.3021,-537.779,0,0
318225,59.9452,-536.506,0,0
318485,59.7025,-535.287,0,0
318745,59.4475,-534.104,0,0
319006,59.2146,-532.893,0,0
319266,58.9501,-531.757,0,0
319526,58.633,-530.571,0,0
319787,58.401,-529.362,0,0
320047,58.1002,-528.227,0,0
320307,57.8644,-527.088,0,0
320567,57.5509,-525.899,0,0
320828,57.3261,-524.735,0,0
321088,57.1097,-523.54,0,0
321348,56.8602,-522.345,0,0
321609,56.6453,-521.091,0,0
321869,56.4501,-519.898,0,0
322129,56.2579,-518.649,0,0
322390,56.0422,-517.44,0,0
322650,55.8449,-516.206,0,0
322910,55.7445,-515.037,0,0
323171,55.5625,-513.767,0,0
323431,55.4662,-512.512,0,0
323691,55.3826,-511.221,0,0
323952,55.2332,-509.86,0,0
324212,55.2851,-508.566,0,0
324472,55.2629,-507.283,0,0
324733,55.3027,-505.807,0,0
324993,55.4279,-504.382,0,0
325253,55.6457,-503.044,0,0
325514,56.0424,-501.669,0,0
325774,56.4319,-500.322,0,0
326034,57.0145,-499.011,0,0
326295,57.591,-497.85,0,0
326555,58.2152,-496.75,0,0
326815,58.8993,-495.755,0,0
327076,59.6056,-494.909,0,0
327336,60.3038,-494.169,0,0
327596,60.9409,-493.566,0,0
327857,61.5308,-492.999,0,0
328117,61.9743,-492.47,0,0
328377,62.4286,-491.917,0,0
328638,62.7775,-491.427,0,0
328898,63.2476,-490.84,0,0
329158,63.6352,-490.373,0,0
329419,64.077,-489.889,0,0
329679,64.5817,-489.452,0,0
329939,64.9413,-489.105,0,0
330200,65.3723,-488.73,0,0
330460,65.7197,-488.517,0,0
330720.15,66.0689,-488.318,0,0
330980.475,66.3551,-488.151,0,0
331240.8,66.6179,-488.004,0,0
331501.125,66.8483,-487.931,0,0
331761.45,67.0022,-487.976,0,0
332021.775,67.0805,-487.994,0,0
332282.1,67.0241,-488.014,0,0
332542.425,66.8853,-488.079,0,0
332802.75,66.6511,-488.123,0,0
333063.075,66.3159,-488.065,0,0
333323.4,65.9449,-488.037,0,0
333583.725,65.4626,-487.876,0,0
333844.05,64.9098,-487.634,0,0
334104.375,64.4459,-487.265,0,0
334364.7,63.96,-486.945,0,0
334625.025,63.4292,-486.527,0,0
334885.35,62.856,-486.002,0,0
335145.675,62.4519,-485.548,0,0
335406.0,62.0123,-485.015,0,0
335666.325,61.5809,-484.414,0,0
335926.65,61.1327,-483.876,0,0
336186.975,60.6986,-483.293,0,0
336447.3,60.218,-482.623,0,0
336707.625,59.8122,-481.979,0,0
336967.95,59.3784,-481.295,0,0
337228.275,59.0273,-480.59,0,0
337488.6,58.6116,-479.871,0,0
337748.925,58.2825,-479.128,0,0
338009.25,57.913,-478.391,0,0
338269.575,57.592,-477.666,0,0
338529.9,57.2894,-476.912,0,0
338790.225,56.9738,-476.137,0,0
339050.55,56.6167,-475.374,0,0
339310.875,56.3797,-474.565,0,0
339571.2,56.0618,-473.873,0,0
339831.525,55.8276,-472.951,0,0
340091.85,55.5419,-472.135,0,0
340352.175,55.3125,-471.291,0,0
340612.5,55.1005,-470.47,0,0
340872.825,54.8709,-469.591,0,0
341133.15,54.6967,-468.727,0,0
341393.475,54.4735,-467.886,0,0
341653.8,54.3219,-467.041,0,0
341914.125,54.1129,-466.14,0,0
342174.45,53.9795,-465.279,0,0
342434.775,53.849,-464.442,0,0
342695.1,53.7466,-463.446,0,0
342955.425,53.6391,-462.605,0,0
343215.75,53.5418,-461.639,0,0
343476.075,53.4477,-460.714,0,0
343736.4,53.4688,-459.712,0,0
343996.725,53.4492,-458.822,0,0
344257.05,53.5193,-457.877,0,0
344517.375,53.5547,-456.969,0,0
344777.7,53.5908,-456.026,0,0
345038.025,53.6787,-455.11,0,0
345298.35,53.8095,-454.264,0,0
345558.675,53.9221,-453.345,0,0
345819.0,54.074,-452.435,0,0
346079.325,54.2379,-451.565,0,0
346339.65,54.4214,-450.768,0,0
346599.975,54.6949,-449.921,0,0
346860,54.8076,-449.063,0,0
347121,55.0718,-448.317,0,0
347381,55.3353,-447.475,0,0
347641,55.591,-446.699,0,0
347902,55.8236,-445.898,0,0
348162,56.0895,-445.108,0,0
348422,56.4121,-444.37,0,0
348683,56.7141,-443.661,0,0
348943,57.0979,-442.925,0,0
349203,57.4006,-442.22,0,0
349464,57.7571,-441.541,0,0
349724,58.1252,-440.924,0,0
349984,58.4836,-440.241,0,0
350245,58.8929,-439.694,0,0
350505,59.3035,-439.083,0,0
350765,59.7085,-438.518,0,0
351025,60.0891,-438.039,0,0
351286,60.5009,-437.602,0,0
351546,60.8827,-437.125,0,0
351806,61.2012,-436.727,0,0
352067,61.5307,-436.348,0,0
352327,61.7773,-435.998,0,0
352587,62.003,-435.634,0,0
352848,62.2283,-435.217,0,0
353108,62.4341,-434.814,0,0
353368,62.6235,-434.407,0,0
353629,62.8124,-433.964,0,0
353889,63.03,-433.505,0,0
354149,63.2673,-433.034,0,0
354410,63.5163,-432.55,0,0
354670,63.7546,-432.102,0,0
354930,64.0141,-431.601,0,0
355191,64.2661,-431.185,0,0
355451,64.4867,-430.801,0,0
355711,64.7766,-430.32,0,0
355972,65.1025,-429.874,0,0
356232,65.4145,-429.408,0,0
356492,65.7466,-428.997,0,0
356753,66.0957,-428.57,0,0
357013,66.4618,-428.185,0,0
357273,66.8533,-427.844,0,0
357534,67.2321,-427.546,0,0
357794,67.6105,-427.234,0,0
358054,67.9915,-426.965,0,0
358315,68.4525,-426.727,0,0
358575,68.809,-426.527,0,0
358835,69.157,-426.335,0,0
359096,69.5305,-426.212,0,0
359356,69.8771,-426.142,0,0
359616,70.232,-426.07,0,0
359877,70.5328,-425.986,0,0
360137,70.8273,-425.975,0,0
360397,71.0727,-425.995,0,0
360658,71.2927,-425.982,0,0
360918,71.4809,-425.981,0,0
361178,71.6239,-426.055,0,0
361438,71.7404,-426.097,0,0
361699,71.825,-426.17,0,0
361959,71.866,-426.166,0,0
362219,71.8528,-426.227,0,0
362480,71.8757,-426.192,0,0
362740.1,71.8533,-426.201,0,0
363000.425,71.8528,-426.19,0,0
363260.75,71.7402,-426.2,0,0
363521.075,71.6831,-426.16,0,0
363781.4,71.5813,-426.134,0,0
364041.725,71.5022,-426.065,0,0
364302.05,71.3367,-426,0,0
364562.375,71.2002,-425.921,0,0
364822.7,71.0606,-425.818,0,0
365083.025,70.8672,-425.639,0,0
365343.35,70.7462,-425.485,0,0
365603.675,70.5908,-425.314,0,0
365864.0,70.379,-425.102,0,0
366124.325,70.2758,-424.937,0,0
366384.65,70.1216,-424.731,0,0
366644.975,69.9662,-424.427,0,0
366905.3,69.8804,-424.169,0,0
367165.625,69.7689,-423.909,0,0
367425.95,69.7289,-423.641,0,0
367686.275,69.6967,-423.358,0,0
367946.6,69.6362,-423.059,0,0
368206.925,69.6822,-422.793,0,0
368467.25,69.7198,-422.572,0,0
368727.575,69.8507,-422.369,0,0
368987.9,69.9831,-422.255,0,0
369248.225,70.0311,-422.186,0,0
369508.55,70.0784,-422.235,0,0
369768.875,70.0413,-422.245,0,0
370029.2,70.0184,-422.241,0,0
370289.525,69.8434,-422.321,0,0
370549.85,69.6653,-422.371,0,0
370810.175,69.4391,-422.344,0,0
371070.5,69.1376,-422.31,0,0
371330.825,68.8838,-422.167,0,0
371591.15,68.5892,-422.046,0,0
371851.475,68.3549,-421.882,0,0
372111.8,68.1385,-421.68,0,0
372372.125,67.9646,-421.539,0,0
372632.45,67.8088,-421.325,0,0
372892.775,67.6281,-421.215,0,0
373153.1,67.431,-421.103,0,0
373413.425,67.2417,-421.041,0,0
373673.75,67.0038,-420.891,0,0
373934.075,66.747,-420.839,0,0
374194.4,66.484,-420.721,0,0
374454.725,66.1731,-420.634,0,0
374715.05,65.84,-420.487,0,0
374975.375,65.5464,-420.373,0,0
375235.7,65.2,-420.211,0,0
375496.025,64.8057,-420.04,0,0
375756.35,64.4788,-419.894,0,0
376016.675,64.0944,-419.638,0,0
376277.0,63.7803,-419.424,0,0
376537.325,63.4134,-419.172,0,0
376797.65,63.0987,-418.951,0,0
377057.975,62.7931,-418.715,0,0
377318.3,62.4558,-418.484,0,0
377578.625,62.2118,-418.3,0,0
377838.95,61.864,-418.146,0,0
378099.275,61.5276,-417.959,0,0
378359.6,61.1337,-417.801,0,0
378619.925,60.6529,-417.734,0,0
378880,60.1172,-417.568,0,0
379141,59.5311,-417.376,0,0
379401,58.8425,-417.095,0,0
379661,58.1518,-416.752,0,0
379922,57.4365,-416.259,0,0
380182,56.7413,-415.602,0,0
380442,56.1871,-414.841,0,0
380703,55.7462,-414.017,0,0
380963,55.4501,-413.213,0,0
381223,55.3712,-412.413,0,0
381483,55.355,-411.687,0,0
381744,55.3446,-411.192,0,0
382004,55.3858,-410.776,0,0
382264,55.384,-410.455,0,0
382525,55.3354,-410.224,0,0
382785,55.1773,-409.987,0,0
383045,54.9305,-409.778,0,0
383306,54.6291,-409.581,0,0
383566,54.2583,-409.344,0,0
383826,53.8681,-409.122,0,0
384087,53.4401,-408.774,0,0
384347,52.9505,-408.42,0,0
384607,52.4438,-408.026,0,0
384868,51.9899,-407.595,0,0
385128,51.4927,-407.115,0,0
385388,51.0379,-406.618,0,0
385649,50.5819,-406.078,0,0
385909,50.19,-405.495,0,0
386169,49.7456,-404.947,0,0
386430,49.3454,-404.292,0,0
386690,48.9901,-403.64,0,0
386950,48.5855,-402.994,0,0
387211,48.2907,-402.357,0,0
387471,47.9818,-401.698,0,0
387731,47.6954,-400.998,0,0
387992,47.3928,-400.297,0,0
388252,47.0968,-399.601,0,0
388512,46.8594,-398.903,0,0
388773,46.6093,-398.155,0,0
389033,46.4023,-397.361,0,0
389293,46.276,-396.624,0,0
389554,46.1611,-395.861,0,0
389814,46.129,-395.135,0,0
390074,46.1229,-394.426,0,0
390335,46.1986,-393.752,0,0
390595,46.2634,-393.157,0,0
390855,46.3053,-392.633,0,0
391116,46.4052,-392.151,0,0
391376,46.4258,-391.702,0,0
391636,46.4045,-391.356,0,0
391896,46.3507,-391.008,0,0
392157,46.2337,-390.706,0,0
392417,46.0129,-390.41,0,0
392677,45.7848,-390.074,0,0
392938,45.5077,-389.681,0,0
393198,45.1637,-389.266,0,0
393458,44.7862,-388.786,0,0
393719,44.4236,-388.278,0,0
393979,43.9788,-387.7,0,0
394239,43.5895,-387.109,0,0
394500,43.1942,-386.461,0,0
394760.05,42.8585,-385.751,0,0
395020.375,42.5136,-384.991,0,0
395280.7,42.1775,-384.165,0,0
395541.025,41.938,-383.338,0,0
395801.35,41.7164,-382.53,0,0
396061.675,41.5458,-381.668,0,0
396322.0,41.4153,-380.796,0,0
396582.325,41.2856,-379.942,0,0
396842.65,41.1988,-379.079,0,0
397102.975,41.1831,-378.226,0,0
397363.3,41.1548,-377.377,0,0
397623.625,41.1862,-376.55,0,0
397883.95,41.2465,-375.695,0,0
398144.275,41.2655,-374.889,0,0
398404.6,41.3971,-374.084,0,0
398664.925,41.5077,-373.324,0,0
398925.25,41.6086,-372.568,0,0
399185.575,41.7476,-371.867,0,0
399445.9,41.9356,-371.12,0,0
399706.225,42.0468,-370.416,0,0
399966.55,42.2398,-369.755,0,0
400006.6,42.2573,-369.613,0,0