File: Accelerated corrosion test data/2025-10-20_18-00-03/sample_1.csv
Frequency (Hz),Impedance (ohms),Phase (Radians),Temperature (C),Humidity (%)
10000.0,239.724,-12219.6,0,0
10260.325,243.423,-11904.5,0,0
10520.65,228.557,-11624.6,0,0
10780.975,225.925,-11339.6,0,0
11041.3,219.054,-11080.4,0,0
11301.625,213.247,-10823.1,0,0
11561.95,210.039,-10579.1,0,0
11822.275,208.186,-10338.8,0,0
12082.6,234.848,-10109.5,0,0
12342.925,208.718,-9937.1,0,0
12603.25,194.003,-9721.31,0,0
12863.575,190.375,-9519.29,0,0
13123.9,199.783,-9328.66,0,0
13384.225,184.809,-9156.94,0,0
13644.55,180.797,-8974.62,0,0
13904.875,182.259,-8795.72,0,0
14165.2,188.76,-8661.18,0,0
14425.525,213.404,-8504.51,0,0
14685.8,207.885,-8331.41,0,0
14946.175,175.489,-8225.57,0,0
15206.5,190.916,-8065.66,0,0
15466.825,171.496,-7949.07,0,0
15727.15,170.167,-7818.63,0,0
15987.5,159.761,-7687.95,0,0
16247.8,156.273,-7561.68,0,0
16508.125,154.315,-7438.91,0,0
16768.45,157.015,-7320.46,0,0
17028.775,162.66,-7211.63,0,0
17289.1,153.794,-7110.13,0,0
17549.425,150.759,-7005.32,0,0
17809.75,144.871,-6900.69,0,0
18070.075,148.462,-6802.61,0,0
18330.4,142.709,-6705.33,0,0
18590.725,137.241,-6611.31,0,0
18851.05,138.085,-6512.79,0,0
19111.375,134.499,-6431.94,0,0
19371.7,132.254,-6339.55,0,0
19632.025,131.598,-6250.56,0,0
19892.35,136.497,-6163.47,0,0
20152.675,135.518,-6076.48,0,0
20413.0,157.74,-5987.17,0,0
20673.3,169.651,-5947.91,0,0
20933.65,148.279,-5880.04,0,0
21193.975,161.677,-5816.12,0,0
21454.3,141.456,-5743.51,0,0
21714.625,136.298,-5671.06,0,0
21974.9,139.547,-5589.07,0,0
22235.275,175.594,-5548.7,0,0
22495.6,140.236,-5506.13,0,0
22755.925,126.39,-5435.87,0,0
23016.25,121.357,-5369.15,0,0
23276.6,118.306,-5307.38,0,0
23536.9,115.009,-5246.52,0,0
23797.225,111.73,-5185.15,0,0
24057.55,114.365,-5123.81,0,0
24317.875,112.594,-5076.23,0,0
24578.2,110.087,-5016.36,0,0
24838.525,110.053,-4965.74,0,0
25098.85,110.065,-4911.9,0,0
25359.175,105.314,-4862.25,0,0
25619.5,104.487,-4810.95,0,0
25879.8,102.719,-4759.49,0,0
26140.1,102.92,-4709.98,0,0
26400.5,102.433,-4660.39,0,0
26660.8,104.532,-4609.56,0,0
26921.1,114.649,-4560.62,0,0
27181.4,122.359,-4530.9,0,0
27441.8,110.137,-4494.66,0,0
27702.1,103.649,-4446.11,0,0
27962.4,111.128,-4396.24,0,0
28222.7,110.67,-4358.03,0,0
28483.1,120.094,-4314.06,0,0
28743.4,131.583,-4296.75,0,0
29003.7,118.015,-4259.3,0,0
29264,118.904,-4226.73,0,0
29524.4,107.164,-4193.13,0,0
29784.7,105.515,-4150.21,0,0
30045,101.215,-4118.62,0,0
30305.3,99.7486,-4079.49,0,0
30565.7,96.6473,-4040.53,0,0
30826,100.766,-4003.81,0,0
31086.3,104.803,-3978.37,0,0
31346.6,99.0941,-3947.93,0,0
31607,93.5971,-3909.89,0,0
31867.3,98.2312,-3877.73,0,0
32127.6,96.7755,-3847.93,0,0
32387.9,96.9574,-3819.79,0,0
32648.3,93.1617,-3788.19,0,0
32908.6,95.2107,-3760.38,0,0
33168.9,90.0902,-3731.6,0,0
33429.2,88.5044,-3702.28,0,0
33689.6,85.919,-3672.92,0,0
33949.9,84.8015,-3641.92,0,0
34210.2,86.8068,-3615.27,0,0
34470.5,83.714,-3588.9,0,0
34730.9,81.9865,-3560.59,0,0
34991.2,81.2321,-3533.61,0,0
35251.5,80.4022,-3506.82,0,0
35511.8,79.442,-3480.47,0,0
35772.2,78.9394,-3454.9,0,0
36032.5,77.5884,-3429.46,0,0
36292.8,77.0409,-3403.95,0,0
36553.1,76.0495,-3379.31,0,0
36813.5,76.0734,-3354.32,0,0
37073.8,75.7512,-3330.49,0,0
37334.1,75.2197,-3307.02,0,0
37594.4,74.9584,-3283.61,0,0
37854.8,73.8476,-3260.73,0,0
38115.1,73.2974,-3238,0,0
38375.4,72.8638,-3214.89,0,0
38635.7,72.5087,-3193.34,0,0
38896.1,71.9403,-3171.19,0,0
39156.4,72.4536,-3149.15,0,0
39416.7,71.8767,-3128.79,0,0
39677,70.6665,-3107.73,0,0
39937.4,70.9127,-3086.35,0,0
40197.7,71.0129,-3065.7,0,0
40458,70.7671,-3045.37,0,0
40718.3,70.5079,-3024.64,0,0
40978.7,72.2702,-3005.27,0,0
41239,72.2833,-2987.45,0,0
41499.3,71.4794,-2969.33,0,0
41759.6,70.6648,-2950.47,0,0
42020,70.4195,-2931.21,0,0
42280.275,69.9421,-2913.07,0,0
42540.6,70.6938,-2895.03,0,0
42800.925,69.74,-2878.46,0,0
43061.25,69.1113,-2860.05,0,0
43321.575,69.069,-2843.41,0,0
43581.9,68.233,-2825.83,0,0
43842.225,67.4902,-2808.13,0,0
44102.55,67.5936,-2790.56,0,0
44362.875,68.5155,-2773.6,0,0
44623.2,68.8369,-2758.46,0,0
44883.525,68.3031,-2742.28,0,0
45143.85,68.159,-2726.37,0,0
45404.175,68.2929,-2710.85,0,0
45664.5,67.2345,-2695.95,0,0
45924.825,66.3768,-2680.47,0,0
46185.15,65.9103,-2665.25,0,0
46445.475,64.8255,-2649.47,0,0
46705.8,65.1824,-2634.1,0,0
46966.125,64.606,-2620.11,0,0
47226.45,64.304,-2604.77,0,0
47486.775,64.2724,-2590.37,0,0
47747.1,64.0915,-2576.17,0,0
48007.425,63.5936,-2562.04,0,0
48267.75,63.2727,-2548,0,0
48528.075,62.3289,-2534.57,0,0
48788.4,61.4688,-2520.17,0,0
49048.725,61.4753,-2505.88,0,0
49309.05,61.3926,-2492.12,0,0
49569.375,61.0745,-2479.21,0,0
49829.7,60.8351,-2466.28,0,0
50090.025,59.9626,-2452.75,0,0
50350.35,59.3943,-2439.33,0,0
50610.675,59.2864,-2425.98,0,0
50871.0,59.1367,-2413.12,0,0
51131.325,58.8818,-2400.44,0,0
51391.65,59.1517,-2388.12,0,0
51651.975,58.341,-2375.84,0,0
51912.3,57.9651,-2363.38,0,0
52172.625,57.8424,-2350.86,0,0
52432.95,57.8743,-2338.65,0,0
52693.275,57.5462,-2326.74,0,0
52953.6,57.6182,-2314.7,0,0
53213.925,57.445,-2303.07,0,0
53474.25,57.1752,-2291.54,0,0
53734.575,57.0971,-2279.97,0,0
53994.9,57.1197,-2268.92,0,0
54255.225,56.412,-2257.68,0,0
54515.55,56.0499,-2246.38,0,0
54775.875,55.7509,-2235.19,0,0
55036.2,55.5615,-2223.79,0,0
55296.525,55.4272,-2212.88,0,0
55556.85,55.4511,-2202.21,0,0
55817.175,55.2137,-2191.68,0,0
56077.5,54.7654,-2180.76,0,0
56337.825,54.6501,-2169.95,0,0
56598.15,54.5442,-2159.4,0,0
56858.475,54.6718,-2149,0,0
57118.8,54.4385,-2138.76,0,0
57379.125,54.2628,-2128.31,0,0
57639.45,54.4472,-2118.44,0,0
57899.775,54.1962,-2108.41,0,0
58160.1,54.3153,-2098.49,0,0
58420.4,54.2587,-2088.73,0,0
58680.7,54.0171,-2078.95,0,0
58941.1,54.0134,-2069.13,0,0
59201.4,54.2192,-2059.48,0,0
59461.7,54.0717,-2050.48,0,0
59722,53.8791,-2040.96,0,0
59982.4,53.8726,-2031.53,0,0
60242.7,53.8114,-2022.29,0,0
60503,54.1258,-2012.99,0,0
60763.3,54.2056,-2004.46,0,0
61023.7,53.6776,-1995.88,0,0
61284,53.3028,-1986.83,0,0
61544.3,52.9504,-1977.71,0,0
61804.6,53.1572,-1968.83,0,0
62065,52.7244,-1960.42,0,0
62325.3,52.453,-1951.5,0,0
62585.6,52.3405,-1942.59,0,0
62845.9,52.1946,-1933.84,0,0
63106.3,52.3712,-1925.26,0,0
63366.6,52.262,-1916.77,0,0
63626.9,52.1835,-1908.25,0,0
63887.2,52.2557,-1899.75,0,0
64147.6,52.3576,-1891.39,0,0
64407.9,52.4339,-1882.98,0,0
64668.2,52.7802,-1874.65,0,0
64928.5,53.2532,-1866.44,0,0
65188.9,53.8435,-1858.5,0,0
65449.2,54.4717,-1850.96,0,0
65709.5,55.0372,-1843.87,0,0
65969.8,54.8021,-1836.93,0,0
66230.2,54.5725,-1829.55,0,0
66490.5,54.6753,-1822.24,0,0
66750.8,54.4162,-1815.31,0,0
67011.1,53.8644,-1808.03,0,0
67271.5,53.3625,-1800.35,0,0
67531.8,53.7504,-1792.42,0,0
67792.1,54.267,-1785.69,0,0
68052.4,53.8523,-1779.53,0,0
68312.8,52.8216,-1772.23,0,0
68573.1,52.7677,-1764.53,0,0
68833.4,52.9385,-1757.5,0,0
69093.7,52.7143,-1750.78,0,0
69354.1,52.5398,-1743.62,0,0
69614.4,52.4691,-1737.04,0,0
69874.7,51.98,-1730.34,0,0
70135,51.5222,-1723.72,0,0
70395.4,50.8545,-1716.91,0,0
70655.7,50.5672,-1709.85,0,0
70916,50.2524,-1702.89,0,0
71176.3,50.0249,-1696,0,0
71436.7,50.0256,-1689.27,0,0
71697,49.5401,-1682.92,0,0
71957.3,49.0089,-1676.12,0,0
72217.6,48.4558,-1669.17,0,0
72478,48.232,-1662.16,0,0
72738.3,48.0793,-1655.32,0,0
72998.6,48.0774,-1648.48,0,0
73258.9,48.1758,-1641.92,0,0
73519.3,48.0002,-1635.41,0,0
73779.6,47.9171,-1628.83,0,0
74039.9,47.8633,-1622.16,0,0
74300.225,47.8456,-1615.68,0,0
74560.55,47.9031,-1609.15,0,0
74820.875,48.115,-1602.68,0,0
75081.2,48.2366,-1596.56,0,0
75341.525,48.2514,-1590.3,0,0
75601.85,48.3015,-1584.02,0,0
75862.175,48.4551,-1577.72,0,0
76122.5,48.6531,-1571.6,0,0
76382.825,48.9565,-1565.47,0,0
76643.15,49.182,-1559.44,0,0
76903.475,49.3031,-1553.56,0,0
77163.8,49.5445,-1547.64,0,0
77424.125,49.8319,-1541.8,0,0
77684.45,50.0235,-1536.04,0,0
77944.775,50.1495,-1530.21,0,0
78205.1,50.5044,-1524.3,0,0
78465.425,51.1821,-1518.73,0,0
78725.75,51.5559,-1513.62,0,0
78986.075,51.6374,-1508.42,0,0
79246.4,51.6844,-1503.38,0,0
79506.725,51.4017,-1498.18,0,0
79767.05,51.1001,-1492.85,0,0
80027.375,51.0348,-1487.39,0,0
80287.7,50.738,-1482.03,0,0
80548.025,50.4363,-1476.52,0,0
80808.35,50.2977,-1471.03,0,0
81068.675,50.0808,-1465.35,0,0
81329.0,50.1604,-1459.74,0,0
81589.325,50.2352,-1454.12,0,0
81849.65,50.3862,-1448.7,0,0
82109.975,50.5788,-1443.37,0,0
82370.3,50.7547,-1437.99,0,0
82630.625,50.8353,-1432.74,0,0
82890.95,50.7593,-1427.36,0,0
83151.275,51.0237,-1421.89,0,0
83411.6,51.3314,-1416.73,0,0
83671.925,51.5091,-1411.47,0,0
83932.25,51.8771,-1406.17,0,0
84192.575,52.1982,-1401.05,0,0
84452.9,52.6012,-1396.01,0,0
84713.225,52.9402,-1390.98,0,0
84973.55,53.3319,-1385.88,0,0
85233.875,53.8125,-1380.98,0,0
85494.2,54.3642,-1376.35,0,0
85754.525,54.6021,-1371.7,0,0
86014.85,54.8362,-1367.06,0,0
86275.175,54.9614,-1362.44,0,0
86535.5,55.1601,-1357.75,0,0
86795.825,55.2984,-1353.15,0,0
87056.15,55.3336,-1348.27,0,0
87316.475,55.8521,-1343.62,0,0
87576.8,55.9092,-1339.24,0,0
87837.125,55.7086,-1334.5,0,0
88097.45,55.7853,-1329.63,0,0
88357.775,55.9309,-1324.67,0,0
88618.1,56.119,-1319.51,0,0
88878.425,56.7122,-1314.77,0,0
89138.75,57.0821,-1309.94,0,0
89399.075,57.5671,-1305.05,0,0
89659.4,58.2514,-1300.3,0,0
89919.725,58.8721,-1295.71,0,0
90180,59.4471,-1291.19,0,0
90440.4,60.1508,-1286.44,0,0
90700.7,60.9084,-1281.78,0,0
90961,61.5921,-1276.96,0,0
91221.3,63.0001,-1272.15,0,0
91481.7,64.5134,-1268.2,0,0
91742,65.8634,-1264.14,0,0
92002.3,66.905,-1260.32,0,0
92262.6,68.0985,-1256.22,0,0
92523,69.6112,-1252.47,0,0
92783.3,71.4276,-1248.72,0,0
93043.6,73.2438,-1245.99,0,0
93303.9,74.3983,-1243.17,0,0
93564.3,76.413,-1240.27,0,0
93824.6,78.8137,-1239.28,0,0
94084.9,78.8936,-1240.15,0,0
94345.2,76.1941,-1239.53,0,0
94605.6,73.6177,-1236.23,0,0
94865.9,72.3137,-1232.98,0,0
95126.2,70.6185,-1229.44,0,0
95386.5,69.4122,-1225.66,0,0
95646.9,68.1826,-1221.76,0,0
95907.2,66.9132,-1217.51,0,0
96167.5,66.3359,-1212.74,0,0
96427.8,66.5107,-1208.52,0,0
96688.2,66.2215,-1205.13,0,0
96948.5,65.4918,-1201.3,0,0
97208.8,64.9615,-1197.13,0,0
97469.1,64.6023,-1193.01,0,0
97729.5,64.3628,-1188.77,0,0
97989.8,64.1742,-1184.64,0,0
98250.1,64.3281,-1180.47,0,0
98510.4,64.4788,-1176.81,0,0
98770.8,64.1859,-1173.19,0,0
99031.1,63.8547,-1169.24,0,0
99291.4,63.6815,-1165.21,0,0
99551.7,63.5879,-1161.26,0,0
99812.1,63.3925,-1157.31,0,0
100072,63.309,-1153.36,0,0
100333,63.1509,-1149.4,0,0
100593,63.0418,-1145.29,0,0
100853,63.0368,-1141.25,0,0
101114,62.9588,-1137.13,0,0
101374,63.012,-1133.11,0,0
101634,62.9504,-1129.01,0,0
101895,62.7714,-1124.69,0,0
102155,62.9355,-1120.05,0,0
102415,63.3674,-1115.45,0,0
102676,64.0777,-1110.83,0,0
102936,65.1345,-1106.53,0,0
103196,65.9958,-1102.46,0,0
103457,67.0046,-1098.4,0,0
103717,67.9206,-1094.33,0,0
103977,69.1175,-1090.08,0,0
104238,70.9487,-1086.21,0,0
104498,72.5751,-1083.18,0,0
104758,73.6896,-1080.15,0,0
105019,74.5937,-1077.06,0,0
105279,75.3449,-1073.71,0,0
105539,76.3763,-1070.14,0,0
105800,77.7708,-1066.84,0,0
106060,79.1423,-1063.61,0,0
106320.175,80.5865,-1060.71,0,0
106580.5,81.9043,-1057.98,0,0
106840.825,83.0447,-1055.38,0,0
107101.15,84.1046,-1052.56,0,0
107361.475,85.54,-1049.9,0,0
107621.8,86.8543,-1047.77,0,0
107882.125,87.6805,-1045.63,0,0
108142.45,88.4956,-1043.28,0,0
108402.775,89.2805,-1040.86,0,0
108663.1,90.1984,-1038.55,0,0
108923.425,91.1159,-1036.39,0,0
109183.75,92.1011,-1034.18,0,0
109444.075,93.1303,-1032.43,0,0
109704.4,93.7358,-1030.89,0,0
109964.725,93.9249,-1029.42,0,0
110225.05,93.7915,-1027.8,0,0
110485.375,93.359,-1025.63,0,0
110745.7,93.1363,-1023.15,0,0
111006.025,93.2663,-1020.39,0,0
111266.35,93.4971,-1017.55,0,0
111526.675,93.9362,-1014.97,0,0
111787.0,94.8864,-1012.85,0,0
112047.325,95.533,-1010.7,0,0
112307.65,96.3254,-1008.81,0,0
112567.975,96.7943,-1006.94,0,0
112828.3,97.395,-1005.41,0,0
113088.625,97.6166,-1004,0,0
113348.95,97.7748,-1002.59,0,0
113609.275,97.6776,-1001.28,0,0
113869.6,97.1316,-999.835,0,0
114129.925,96.6955,-998.038,0,0
114390.25,96.1653,-996.322,0,0
114650.575,95.7117,-994.515,0,0
114910.9,95.2445,-992.86,0,0
115171.225,94.4941,-991.281,0,0
115431.55,93.5201,-989.451,0,0
115691.875,92.4644,-987.413,0,0
115952.2,91.4464,-985.194,0,0
116212.525,90.4857,-982.864,0,0
116472.85,89.5519,-980.452,0,0
116733.175,88.7182,-978.106,0,0
116993.5,87.6527,-975.78,0,0
117253.825,86.4217,-973.139,0,0
117514.15,85.3903,-970.184,0,0
117774.475,84.5183,-967.237,0,0
118034.8,83.6217,-964.162,0,0
118295.125,83.0332,-960.912,0,0
118555.45,82.5998,-957.796,0,0
118815.775,82.1676,-954.703,0,0
119076.1,81.8222,-951.582,0,0
119336.425,81.5705,-948.533,0,0
119596.75,81.3699,-945.339,0,0
119857.075,81.4682,-942.231,0,0
120117.4,81.6839,-939.365,0,0
120377.725,81.801,-936.709,0,0
120638.05,81.8333,-934.158,0,0
120898.375,81.7546,-931.742,0,0
121158.7,81.4896,-929.312,0,0
121419.025,81.0843,-926.728,0,0
121679.35,80.6708,-924.158,0,0
121939.675,80.1496,-921.386,0,0
122200.0,79.7494,-918.493,0,0
122460,79.3755,-915.601,0,0
122721,79.0187,-912.591,0,0
122981,78.8683,-909.575,0,0
123241,78.6533,-906.595,0,0
123502,78.5076,-903.517,0,0
123762,78.5022,-900.44,0,0
124022,78.5432,-897.397,0,0
124283,78.6114,-894.505,0,0
124543,78.6378,-891.604,0,0
124803,78.6645,-888.586,0,0
125064,78.7204,-885.702,0,0
125324,78.7637,-882.757,0,0
125584,78.9293,-879.714,0,0
125845,79.2397,-876.748,0,0
126105,79.4526,-873.904,0,0
126365,79.6111,-870.989,0,0
126626,79.8797,-868.155,0,0
126886,80.0707,-865.216,0,0
127146,80.4248,-862.281,0,0
127406,80.7339,-859.424,0,0
127667,80.9262,-856.429,0,0
127927,81.2615,-853.431,0,0
128187,81.7682,-850.442,0,0
128448,82.4174,-847.604,0,0
128708,82.9748,-844.881,0,0
128968,83.4057,-842.206,0,0
129229,83.776,-839.365,0,0
129489,84.2765,-836.416,0,0
129749,84.8954,-833.428,0,0
130010,85.7119,-830.462,0,0
130270,86.7486,-827.739,0,0
130530,87.6521,-825.154,0,0
130791,88.5748,-822.599,0,0
131051,89.4799,-820.117,0,0
131311,90.4858,-817.652,0,0
131572,91.5329,-815.464,0,0
131832,92.3749,-813.319,0,0
132092,93.1493,-811.212,0,0
132353,93.8196,-809.149,0,0
132613,94.3986,-806.998,0,0
132873,95.083,-804.73,0,0
133134,95.8233,-802.593,0,0
133394,96.4355,-800.536,0,0
133654,96.9684,-798.339,0,0
133915,97.5638,-796.12,0,0
134175,98.2851,-793.859,0,0
134435,99.0726,-791.777,0,0
134696,99.766,-789.703,0,0
134956,100.486,-787.68,0,0
135216,101.139,-785.707,0,0
135477,101.787,-783.722,0,0
135737,102.251,-781.632,0,0
135997,102.822,-779.52,0,0
136258,103.459,-777.278,0,0
136518,104.329,-775.008,0,0
136778,105.399,-772.947,0,0
137039,106.43,-771.092,0,0
137299,107.457,-769.243,0,0
137559,108.735,-767.64,0,0
137819,109.774,-766.558,0,0
138080,110.323,-765.591,0,0
138340.125,110.622,-764.347,0,0
138600.45,110.952,-763.011,0,0
138860.775,111.187,-761.804,0,0
139121.1,111.193,-760.523,0,0
139381.425,111.158,-759,0,0
139641.75,111.083,-757.475,0,0
139902.075,111.012,-755.923,0,0
140162.4,110.81,-754.273,0,0
140422.725,110.577,-752.55,0,0
140683.05,110.308,-750.632,0,0
140943.375,110.065,-748.575,0,0
141203.7,109.97,-746.45,0,0
141464.025,109.977,-744.301,0,0
141724.35,110.013,-742.233,0,0
141984.675,109.863,-740.193,0,0
142245.0,109.737,-737.784,0,0
142505.325,109.954,-735.36,0,0
142765.65,110.273,-733.112,0,0
143025.975,110.364,-730.858,0,0
143286.3,110.614,-728.647,0,0
143546.625,110.924,-726.158,0,0
143806.95,111.474,-723.84,0,0
144067.275,112.004,-721.746,0,0
144327.6,112.456,-719.805,0,0
144587.925,112.63,-717.736,0,0
144848.25,112.884,-715.403,0,0
145108.575,113.389,-713.046,0,0
145368.9,113.938,-710.809,0,0
145629.225,114.555,-708.622,0,0
145889.55,115.172,-706.414,0,0
146149.875,115.982,-704.324,0,0
146410.2,116.701,-702.424,0,0
146670.525,117.331,-700.528,0,0
146930.85,118.063,-698.645,0,0
147191.175,118.722,-697.071,0,0
147451.5,119.1,-695.466,0,0
147711.825,119.376,-693.826,0,0
147972.15,119.507,-692.128,0,0
148232.475,119.539,-690.158,0,0
148492.8,119.778,-688.042,0,0
148753.125,120.057,-686.022,0,0
149013.45,120.27,-683.82,0,0
149273.775,120.848,-681.531,0,0
149534.1,121.671,-679.57,0,0
149794.425,122.305,-678.057,0,0
150054.75,122.531,-676.492,0,0
150315.075,122.705,-674.845,0,0
150575.4,122.793,-673.235,0,0
150835.725,122.531,-671.627,0,0
151096.05,122.01,-669.652,0,0
151356.375,121.609,-667.271,0,0
151616.7,121.458,-664.799,0,0
151877.025,121.319,-662.426,0,0
152137.35,121.036,-659.981,0,0
152397.675,120.629,-657.227,0,0
152658.0,120.349,-654.131,0,0
152918.325,120.424,-650.784,0,0
153178.65,120.788,-647.468,0,0
153438.975,121.321,-644.209,0,0
153699.3,121.921,-641.027,0,0
153959.625,122.553,-637.743,0,0
154219.95,123.402,-634.39,0,0
154480,124.322,-631.147,0,0
154741,125.353,-627.76,0,0
155001,126.628,-624.4,0,0
155261,127.936,-621.172,0,0
155522,129.232,-617.803,0,0
155782,130.854,-614.212,0,0
156042,132.887,-610.701,0,0
156303,135.177,-607.46,0,0
156563,137.593,-604.571,0,0
156823,140.001,-601.845,0,0
157084,142.518,-599.105,0,0
157344,145.273,-596.644,0,0
157604,148.039,-594.646,0,0
157864,150.566,-592.919,0,0
158125,152.705,-591.206,0,0
158385,154.917,-589.429,0,0
158645,156.913,-587.902,0,0
158906,158.321,-586.339,0,0
159166,159.477,-583.947,0,0
159426,161.091,-580.925,0,0
159687,163.466,-577.656,0,0
159947,166.422,-574.475,0,0
160207,170.026,-571.667,0,0
160468,173.913,-569.495,0,0
160728,177.827,-567.655,0,0
160988,181.887,-566.202,0,0
161249,186.017,-565.281,0,0
161509,189.966,-564.88,0,0
161769,193.579,-564.68,0,0
162030,197.107,-564.715,0,0
162290,200.32,-565.159,0,0
162550,203.116,-565.646,0,0
162811,205.619,-566.217,0,0
163071,207.604,-566.652,0,0
163331,209.481,-566.546,0,0
163592,211.542,-566.152,0,0
163852,213.937,-565.705,0,0
164112,216.613,-565.365,0,0
164373,219.525,-565.234,0,0
164633,222.433,-565.504,0,0
164893,225.135,-565.879,0,0
165154,228.138,-566.245,0,0
165414,231.181,-567.155,0,0
165674,234.036,-568.274,0,0
165935,236.947,-569.672,0,0
166195,239.632,-571.614,0,0
166455,241.687,-573.881,0,0
166716,243.296,-575.964,0,0
166976,244.816,-577.842,0,0
167236,246.506,-579.772,0,0
167497,248.149,-582.269,0,0
167757,249.193,-585.136,0,0
168017,249.623,-587.987,0,0
168277,249.616,-590.66,0,0
168538,249.322,-593.163,0,0
168798,248.705,-595.507,0,0
169058,247.835,-597.711,0,0
169319,246.715,-599.782,0,0
169579,245.179,-601.754,0,0
169839,243.084,-603.367,0,0
170100,240.806,-604.288,0,0
170360.075,238.558,-604.388,0,0
170620.4,236.892,-604.214,0,0
170880.725,235.226,-604.1,0,0
171141.05,233.494,-603.654,0,0
171401.375,232.022,-602.728,0,0
171661.7,231.081,-601.686,0,0
171922.025,230.396,-600.839,0,0
172182.35,229.755,-599.997,0,0
172442.675,229.41,-599.131,0,0
172703.0,229.29,-598.622,0,0
172963.325,228.918,-598.5,0,0
173223.65,228.111,-598.282,0,0
173483.975,227.205,-597.739,0,0
173744.3,226.4,-596.864,0,0
174004.625,226.048,-595.883,0,0
174264.95,225.846,-595.173,0,0
174525.275,225.481,-594.679,0,0
174785.6,224.965,-594.039,0,0
175045.925,224.569,-593.374,0,0
175306.25,224.294,-592.647,0,0
175566.575,224.215,-592.022,0,0
175826.9,224.125,-591.754,0,0
176087.225,223.771,-591.728,0,0
176347.55,223.043,-591.599,0,0
176607.875,222.171,-591.194,0,0
176868.2,221.334,-590.618,0,0
177128.525,220.579,-589.981,0,0
177388.85,219.827,-589.282,0,0
177649.175,219.219,-588.471,0,0
177909.5,218.812,-587.828,0,0
178169.825,218.279,-587.464,0,0
178430.15,217.49,-587.172,0,0
178690.475,216.464,-586.78,0,0
178950.8,215.28,-586.266,0,0
179211.125,214.046,-585.554,0,0
179471.45,212.966,-584.729,0,0
179731.775,211.862,-584.123,0,0
179992.1,210.346,-583.603,0,0
180252.425,208.454,-582.556,0,0
180512.75,206.761,-581.084,0,0
180773.075,205.335,-579.548,0,0
181033.4,204.004,-577.991,0,0
181293.725,202.618,-576.387,0,0
181554.05,201.306,-574.719,0,0
181814.375,199.954,-573.076,0,0
182074.7,198.342,-571.308,0,0
182335.025,196.731,-569.107,0,0
182595.35,195.371,-566.652,0,0
182855.675,194.305,-564.111,0,0
183116.0,193.361,-561.672,0,0
183376.325,192.525,-559.251,0,0
183636.65,191.682,-556.91,0,0
183896.975,190.74,-554.467,0,0
184157.3,189.754,-551.917,0,0
184417.625,188.853,-549.1,0,0
184677.95,188.091,-546.142,0,0
184938.275,187.576,-543.137,0,0
185198.6,187.152,-540.153,0,0
185458.925,186.86,-537.156,0,0
185719.25,186.603,-534.164,0,0
185979.575,186.443,-531.095,0,0
186239.9,186.461,-527.928,0,0
186500,186.52,-524.987,0,0
186761,186.562,-521.99,0,0
187021,186.561,-518.83,0,0
187281,186.7,-515.416,0,0
187542,187.293,-511.875,0,0
187802,188.224,-508.647,0,0
188062,189.09,-505.769,0,0
188322,189.916,-502.977,0,0
188583,190.584,-500.225,0,0
188843,191.277,-497.43,0,0
189103,192.081,-494.556,0,0
189364,192.865,-491.867,0,0
189624,193.593,-489.161,0,0
189884,194.148,-486.329,0,0
190145,194.728,-483.415,0,0
190405,195.436,-480.469,0,0
190665,196.141,-477.415,0,0
190926,196.791,-474.135,0,0
191186,197.582,-470.794,0,0
191446,198.512,-467.446,0,0
191707,199.483,-464.008,0,0
191967,200.731,-460.361,0,0
192227,202.128,-456.761,0,0
192488,203.694,-453.204,0,0
192748,205.366,-449.706,0,0
193008,207.061,-446.188,0,0
193269,208.974,-442.637,0,0
193529,211.051,-439.198,0,0
193789,213.205,-435.885,0,0
194050,215.389,-432.556,0,0
194310,217.628,-429.373,0,0
194570,219.72,-426.195,0,0
194831,221.906,-422.912,0,0
195091,224.252,-419.502,0,0
195351,226.697,-415.967,0,0
195612,229.318,-412.453,0,0
195872,232.201,-409.091,0,0
196132,235.165,-405.731,0,0
196393,238.3,-402.481,0,0
196653,241.47,-399.296,0,0
196913,244.72,-396.395,0,0
197174,247.913,-393.405,0,0
197434,251.233,-390.352,0,0
197694,254.66,-387.445,0,0
197955,258.116,-384.702,0,0
198215,261.474,-381.9,0,0
198475,264.773,-379.1,0,0
198735,268.158,-376.138,0,0
198996,271.639,-373.104,0,0
199256,275.16,-370.087,0,0
199516,278.707,-366.76,0,0
199777,282.568,-363.269,0,0
200037,286.756,-359.632,0,0
200297,291.435,-356.141,0,0
200558,296.254,-352.935,0,0
200818,301.102,-349.752,0,0
201078,306.047,-346.63,0,0
201339,311.052,-343.232,0,0
201599,316.424,-339.582,0,0
201859,322.367,-335.943,0,0
202120,328.856,-332.305,0,0
202380.025,335.772,-328.905,0,0
202640.35,343.289,-325.747,0,0
202900.675,351.307,-322.976,0,0
203161.0,359.641,-320.758,0,0
203421.325,368.139,-318.933,0,0
203681.65,377.068,-317.317,0,0
203941.975,386.55,-316.056,0,0
204202.3,396.514,-315.628,0,0
204462.625,406.64,-315.996,0,0
204722.95,416.968,-317.082,0,0
204983.275,427.308,-319.023,0,0
205243.6,437.476,-322.029,0,0
205503.925,447.325,-325.673,0,0
205764.25,456.824,-329.995,0,0
206024.575,465.975,-334.805,0,0
206284.9,474.839,-340.178,0,0
206545.225,483.3,-346.356,0,0
206805.55,491.015,-353.126,0,0
207065.875,497.934,-360.406,0,0
207326.2,504.099,-367.71,0,0
207586.525,509.736,-374.973,0,0
207846.85,514.98,-382.297,0,0
208107.175,519.925,-389.855,0,0
208367.5,524.248,-397.652,0,0
208627.825,528.133,-405.53,0,0
208888.15,531.503,-413.601,0,0
209148.475,534.353,-421.827,0,0
209408.8,536.513,-430.263,0,0
209669.125,537.895,-438.871,0,0
209929.45,538.216,-447.569,0,0
210189.775,537.196,-455.885,0,0
210450.1,534.996,-463.356,0,0
210710.425,532.166,-469.357,0,0
210970.75,529.323,-474.181,0,0
211231.075,526.773,-478.234,0,0
211491.4,524.116,-481.755,0,0
211751.725,521.318,-484.327,0,0
212012.05,518.679,-485.756,0,0
212272.375,516.868,-486.002,0,0
212532.7,516.26,-485.736,0,0
212793.025,516.696,-485.365,0,0
213053.35,518.066,-485.079,0,0
213313.675,520.279,-485.189,0,0
213574.0,523.271,-485.857,0,0
213834.325,526.657,-487.308,0,0
214094.65,530.071,-489.759,0,0
214354.975,533.171,-492.613,0,0
214615.3,535.972,-495.872,0,0
214875.625,537.953,-499.609,0,0
215135.95,539.827,-502.766,0,0
215396.275,541.866,-505.917,0,0
215656.6,544.002,-509.199,0,0
215916.925,545.801,-512.634,0,0
216177.25,547.501,-515.703,0,0
216437.575,549.328,-518.804,0,0
216697.9,551.271,-521.997,0,0
216958.225,553.079,-525.237,0,0
217218.55,554.89,-528.383,0,0
217478.875,556.85,-531.566,0,0
217739.2,558.786,-534.899,0,0
217999.525,560.638,-538.199,0,0
218259.85,562.371,-541.329,0,0
218520,564.293,-544.085,0,0
218780,566.677,-546.784,0,0
219041,569.535,-549.617,0,0
219301,572.734,-552.822,0,0
219561,576.167,-556.337,0,0
219822,579.848,-560.121,0,0
220082,583.758,-564.283,0,0
220342,587.737,-569.092,0,0
220603,591.655,-574.559,0,0
220863,595.33,-580.275,0,0
221123,598.986,-586.337,0,0
221384,602.584,-592.807,0,0
221644,606.131,-599.802,0,0
221904,609.581,-607.441,0,0
222165,612.728,-615.742,0,0
222425,615.052,-624.831,0,0
222685,616.526,-633.893,0,0
222946,617.699,-643.117,0,0
223206,618.265,-652.532,0,0
223466,618.24,-661.932,0,0
223727,617.817,-671.443,0,0
223987,616.919,-680.933,0,0
224247,615.745,-690.55,0,0
224508,613.928,-700.28,0,0
224768,611.458,-710.046,0,0
225028,608.365,-719.721,0,0
225289,604.949,-728.918,0,0
225549,601.12,-738.166,0,0
225809,596.688,-746.975,0,0
226070,592.279,-755.647,0,0
226330,587.356,-764.415,0,0
226590,581.827,-773.187,0,0
226851,575.671,-781.374,0,0
227111,569.152,-789.261,0,0
227371,562.524,-796.719,0,0
227632,555.522,-803.957,0,0
227892,548.152,-810.914,0,0
228152,540.27,-817.44,0,0
228413,532.068,-823.505,0,0
228673,523.558,-829.061,0,0
228933,514.815,-833.932,0,0
229193,506.085,-838.424,0,0
229454,497.371,-842.331,0,0
229714,488.311,-845.832,0,0
229974,479.307,-848.625,0,0
230235,470.343,-850.963,0,0
230495,461.509,-852.738,0,0
230755,452.848,-854.125,0,0
231016,444.383,-854.931,0,0
231276,436.167,-855.368,0,0
231536,428.103,-855.487,0,0
231797,420.318,-855.135,0,0
232057,412.961,-854.461,0,0
232317,405.858,-853.55,0,0
232578,399.136,-852.343,0,0
232838,392.916,-850.96,0,0
233098,387.13,-849.651,0,0
233359,381.797,-848.247,0,0
233619,376.565,-847.071,0,0
233879,371.705,-845.97,0,0
234140,366.938,-844.955,0,0
234400,362.307,-844.117,0,0
234660.3,357.836,-843.604,0,0
234920.625,353.158,-843.18,0,0
235180.95,348.462,-842.879,0,0
235441.275,343.58,-842.381,0,0
235701.6,338.5,-841.639,0,0
235961.925,333.525,-840.751,0,0
236222.25,328.765,-839.873,0,0
236482.575,324.174,-839,0,0
236742.9,319.61,-837.998,0,0
237003.225,314.951,-837.088,0,0
237263.55,310.327,-836.21,0,0
237523.875,305.466,-835.237,0,0
237784.2,300.572,-834.14,0,0
238044.525,295.7,-832.762,0,0
238304.85,290.783,-831.257,0,0
238565.175,286.053,-829.468,0,0
238825.5,281.392,-827.393,0,0
239085.825,277.069,-825.24,0,0
239346.15,272.894,-823.021,0,0
239606.475,268.964,-820.902,0,0
239866.8,265.14,-818.684,0,0
240127.125,261.022,-816.49,0,0
240387.45,257.411,-814.208,0,0
240647.775,253.821,-811.848,0,0
240908.1,250.39,-809.517,0,0
241168.425,247.128,-807.149,0,0
241428.75,243.817,-804.895,0,0
241689.075,240.573,-802.585,0,0
241949.4,237.355,-800.28,0,0
242209.725,234.247,-797.819,0,0
242470.05,231.25,-795.38,0,0
242730.375,228.527,-792.911,0,0
242990.7,225.792,-790.423,0,0
243251.025,223.214,-787.95,0,0
243511.35,220.777,-785.607,0,0
243771.675,218.427,-783.287,0,0
244032.0,216.145,-781.083,0,0
244292.325,213.984,-778.971,0,0
244552.65,211.689,-777.006,0,0
244812.975,209.205,-775.177,0,0
245073.3,206.85,-773.216,0,0
245333.625,204.22,-771.148,0,0
245593.95,201.707,-769.089,0,0
245854.275,199.383,-766.948,0,0
246114.6,196.915,-764.81,0,0
246374.925,194.568,-762.594,0,0
246635.25,192.124,-760.329,0,0
246895.575,189.729,-757.888,0,0
247155.9,187.504,-755.488,0,0
247416.225,185.339,-753.015,0,0
247676.55,183.183,-750.488,0,0
247936.875,181.225,-748.016,0,0
248197.2,179.186,-745.483,0,0
248457.525,177.311,-742.944,0,0
248717.85,175.545,-740.421,0,0
248978.175,173.769,-737.848,0,0
249238.5,172.089,-735.329,0,0
249498.825,170.449,-732.785,0,0
249759.15,168.902,-730.187,0,0
250019.475,167.433,-727.644,0,0
250279.8,166.128,-725.17,0,0
250540,164.753,-722.745,0,0
250800,163.423,-720.307,0,0
251061,162.134,-717.84,0,0
251321,160.923,-715.404,0,0
251581,159.773,-713.163,0,0
251842,158.599,-710.765,0,0
252102,157.391,-708.425,0,0
252362,156.215,-706.109,0,0
252623,155.02,-703.793,0,0
252883,153.856,-701.423,0,0
253143,152.633,-698.949,0,0
253404,151.557,-696.436,0,0
253664,150.477,-693.818,0,0
253924,149.65,-691.257,0,0
254185,148.816,-688.658,0,0
254445,148.179,-686.084,0,0
254705,147.554,-683.524,0,0
254966,147.054,-681.128,0,0
255226,146.511,-678.626,0,0
255486,146.093,-676.377,0,0
255747,145.663,-674.031,0,0
256007,145.218,-671.787,0,0
256267,144.787,-669.503,0,0
256528,144.325,-667.236,0,0
256788,143.95,-664.912,0,0
257048,143.659,-662.605,0,0
257309,143.375,-660.329,0,0
257569,143.078,-658.083,0,0
257829,142.817,-655.759,0,0
258090,142.617,-653.396,0,0
258350,142.496,-651.013,0,0
258610,142.458,-648.611,0,0
258871,142.535,-646.185,0,0
259131,142.739,-643.777,0,0
259391,143.04,-641.376,0,0
259651,143.437,-639.016,0,0
259912,144.086,-636.773,0,0
260172,144.774,-634.69,0,0
260432,145.485,-632.591,0,0
260693,146.3,-630.672,0,0
260953,147.142,-628.831,0,0
261213,148.001,-627.103,0,0
261474,148.918,-625.441,0,0
261734,149.829,-623.915,0,0
261994,150.743,-622.473,0,0
262255,151.625,-621.043,0,0
262515,152.562,-619.715,0,0
262775,153.508,-618.426,0,0
263036,154.479,-617.193,0,0
263296,155.489,-615.998,0,0
263556,156.541,-614.93,0,0
263817,157.588,-613.91,0,0
264077,158.712,-612.939,0,0
264337,159.815,-612.073,0,0
264598,160.985,-611.334,0,0
264858,162.223,-610.628,0,0
265118,163.519,-610.038,0,0
265379,164.937,-609.701,0,0
265639,166.186,-609.502,0,0
265899,167.545,-609.436,0,0
266160,168.835,-609.636,0,0
266420,170.1,-610.013,0,0
266680.25,171.307,-610.585,0,0
266940.575,172.354,-611.405,0,0
267200.9,173.247,-612.523,0,0
267461.225,173.887,-613.823,0,0
267721.55,174.197,-615.261,0,0
267981.875,174.208,-616.782,0,0
268242.2,173.907,-618.316,0,0
268502.525,173.275,-619.889,0,0
268762.85,172.353,-621.411,0,0
269023.175,171.028,-622.83,0,0
269283.5,169.397,-624.001,0,0
269543.825,167.515,-624.994,0,0
269804.15,165.477,-625.631,0,0
270064.475,163.251,-625.952,0,0
270324.8,160.986,-626.014,0,0
270585.125,158.739,-625.753,0,0
270845.45,156.444,-625.259,0,0
271105.775,154.26,-624.483,0,0
271366.1,152.113,-623.503,0,0
271626.425,150.116,-622.242,0,0
271886.75,148.251,-620.824,0,0
272147.075,146.643,-619.219,0,0
272407.4,145.113,-617.508,0,0
272667.725,143.821,-615.764,0,0
272928.05,142.698,-613.956,0,0
273188.375,141.755,-612.169,0,0
273448.7,140.918,-610.4,0,0
273709.025,140.157,-608.647,0,0
273969.35,139.516,-606.85,0,0
274229.675,138.991,-605.047,0,0
274490.0,138.608,-603.313,0,0
274750.325,138.256,-601.607,0,0
275010.65,138.12,-599.945,0,0
275270.975,137.938,-598.329,0,0
275531.3,137.881,-596.752,0,0
275791.625,137.866,-595.246,0,0
276051.95,137.923,-593.731,0,0
276312.275,138.081,-592.283,0,0
276572.6,138.304,-590.938,0,0
276832.925,138.629,-589.658,0,0
277093.25,138.939,-588.49,0,0
277353.575,139.308,-587.435,0,0
277613.9,139.621,-586.423,0,0
277874.225,139.987,-585.577,0,0
278134.55,140.293,-584.83,0,0
278394.875,140.55,-584.149,0,0
278655.2,140.757,-583.549,0,0
278915.525,140.847,-583.007,0,0
279175.85,140.842,-582.422,0,0
279436.175,140.77,-581.818,0,0
279696.5,140.667,-581.189,0,0
279956.825,140.526,-580.413,0,0
280217.15,140.424,-579.743,0,0
280477.475,140.421,-578.971,0,0
280737.8,140.437,-578.236,0,0
280998.125,140.485,-577.543,0,0
281258.45,140.573,-576.93,0,0
281518.775,140.642,-576.406,0,0
281779.1,140.697,-575.994,0,0
282039.425,140.61,-575.681,0,0
282299.75,140.365,-575.391,0,0
282560,139.959,-575.055,0,0
282820,139.527,-574.458,0,0
283081,138.984,-573.768,0,0
283341,138.731,-573.044,0,0
283601,138.478,-572.257,0,0
283862,138.307,-571.563,0,0
284122,138.095,-570.958,0,0
284382,137.782,-570.338,0,0
284643,137.509,-569.824,0,0
284903,137.241,-569.183,0,0
285163,136.795,-568.633,0,0
285424,136.448,-568.045,0,0
285684,135.936,-567.44,0,0
285944,135.465,-566.795,0,0
286205,134.748,-566.084,0,0
286465,134.1,-565.234,0,0
286725,133.45,-564.342,0,0
286986,132.785,-563.419,0,0
287246,132.186,-562.276,0,0
287506,131.521,-560.99,0,0
287767,131.026,-559.711,0,0
288027,130.532,-558.152,0,0
288287,130.249,-556.566,0,0
288548,130.069,-554.975,0,0
288808,130.196,-553.254,0,0
289068,130.472,-551.605,0,0
289329,130.991,-550.122,0,0
289589,131.696,-548.723,0,0
289849,132.503,-547.648,0,0
290109,133.339,-546.833,0,0
290370,133.98,-546.122,0,0
290630,134.477,-545.601,0,0
290890,134.966,-545.13,0,0
291151,135.211,-544.649,0,0
291411,135.372,-544.275,0,0
291671,135.473,-543.797,0,0
291932,135.556,-543.272,0,0
292192,135.474,-542.714,0,0
292452,135.456,-542.096,0,0
292713,135.366,-541.449,0,0
292973,135.256,-540.761,0,0
293233,135.06,-540.037,0,0
293494,134.918,-539.215,0,0
293754,134.779,-538.313,0,0
294014,134.71,-537.28,0,0
294275,134.621,-536.235,0,0
294535,134.632,-535.124,0,0
294795,134.638,-534.039,0,0
295056,134.769,-532.867,0,0
295316,134.965,-531.632,0,0
295576,135.235,-530.468,0,0
295837,135.636,-529.256,0,0
296097,135.981,-527.979,0,0
296357,136.483,-526.778,0,0
296618,137.063,-525.567,0,0
296878,137.762,-524.365,0,0
297138,138.514,-523.158,0,0
297399,139.409,-522.066,0,0
297659,140.317,-521.001,0,0
297919,141.312,-520.033,0,0
298180,142.317,-519.162,0,0
298440,143.4,-518.307,0,0
298700.2,144.407,-517.512,0,0
298960.525,145.605,-516.823,0,0
299220.85,146.843,-516.243,0,0
299481.175,147.979,-515.705,0,0
299741.5,149.195,-515.314,0,0
300001.825,150.418,-515.007,0,0
300262.15,151.579,-514.709,0,0
300522.475,152.715,-514.487,0,0
300782.8,153.814,-514.304,0,0
301043.125,154.927,-514.147,0,0
301303.45,156.156,-513.9,0,0
301563.775,157.422,-513.84,0,0
301824.1,158.685,-513.821,0,0
302084.425,159.989,-513.937,0,0
302344.75,161.265,-514.175,0,0
302605.075,162.545,-514.6,0,0
302865.4,163.634,-515.115,0,0
303125.725,164.745,-515.662,0,0
303386.05,165.649,-516.368,0,0
303646.375,166.441,-516.914,0,0
303906.7,167.277,-517.421,0,0
304167.025,168.144,-517.923,0,0
304427.35,168.968,-518.516,0,0
304687.675,169.864,-519.167,0,0
304948.0,170.626,-519.86,0,0
305208.325,171.428,-520.517,0,0
305468.65,172.268,-521.356,0,0
305728.975,172.998,-522.068,0,0
305989.3,173.808,-522.902,0,0
306249.625,174.677,-523.86,0,0
306509.95,175.48,-524.922,0,0
306770.275,176.201,-526.181,0,0
307030.6,176.782,-527.642,0,0
307290.925,177.206,-529.045,0,0
307551.25,177.576,-530.532,0,0
307811.575,177.609,-532.076,0,0
308071.9,177.608,-533.513,0,0
308332.225,177.599,-534.848,0,0
308592.55,177.354,-536.198,0,0
308852.875,177.13,-537.671,0,0
309113.2,176.847,-538.972,0,0
309373.525,176.283,-540.255,0,0
309633.85,175.804,-541.45,0,0
309894.175,175.377,-542.57,0,0
310154.5,174.917,-543.738,0,0
310414.825,174.384,-544.891,0,0
310675.15,173.922,-546.15,0,0
310935.475,173.291,-547.33,0,0
311195.8,172.595,-548.665,0,0
311456.125,171.838,-549.86,0,0
311716.45,170.948,-551.076,0,0
311976.775,169.886,-552.36,0,0
312237.1,168.759,-553.489,0,0
312497.425,167.557,-554.494,0,0
312757.75,166.186,-555.505,0,0
313018.075,164.875,-556.355,0,0
313278.4,163.559,-556.96,0,0
313538.725,162.278,-557.641,0,0
313799.05,161.055,-558.09,0,0
314059.375,159.702,-558.577,0,0
314319.7,158.562,-559.097,0,0
314580,157.393,-559.496,0,0
314840,156.278,-559.981,0,0
315101,155.199,-560.468,0,0
315361,153.978,-561.053,0,0
315621,152.671,-561.651,0,0
315882,151.319,-562.248,0,0
316142,149.945,-562.707,0,0
316402,148.466,-563.132,0,0
316663,146.966,-563.656,0,0
316923,145.369,-564.007,0,0
317183,143.621,-564.294,0,0
317444,141.977,-564.407,0,0
317704,140.386,-564.475,0,0
317964,138.68,-564.572,0,0
318225,137.007,-564.571,0,0
318485,135.324,-564.481,0,0
318745,133.751,-564.305,0,0
319006,131.972,-564.033,0,0
319266,130.154,-563.71,0,0
319526,128.618,-563.301,0,0
319787,126.968,-562.88,0,0
320047,125.404,-562.391,0,0
320307,123.769,-561.788,0,0
320567,122.235,-561.249,0,0
320828,120.6,-560.546,0,0
321088,118.998,-559.755,0,0
321348,117.426,-558.911,0,0
321609,116.02,-558.027,0,0
321869,114.572,-557.018,0,0
322129,113.232,-555.973,0,0
322390,111.91,-554.888,0,0
322650,110.664,-553.656,0,0
322910,109.575,-552.436,0,0
323171,108.557,-551.107,0,0
323431,107.684,-549.857,0,0
323691,106.877,-548.631,0,0
323952,106.193,-547.344,0,0
324212,105.599,-546.172,0,0
324472,105.078,-544.946,0,0
324733,104.588,-543.909,0,0
324993,104.133,-542.835,0,0
325253,103.734,-541.801,0,0
325514,103.449,-540.88,0,0
325774,103.092,-539.84,0,0
326034,102.862,-538.934,0,0
326295,102.61,-538.026,0,0
326555,102.441,-537.356,0,0
326815,102.254,-536.646,0,0
327076,102.05,-536.009,0,0
327336,101.866,-535.401,0,0
327596,101.655,-534.82,0,0
327857,101.356,-534.397,0,0
328117,101.105,-533.903,0,0
328377,100.778,-533.492,0,0
328638,100.478,-533.072,0,0
328898,100.156,-532.651,0,0
329158,99.7727,-532.321,0,0
329419,99.4227,-532.025,0,0
329679,98.9831,-531.686,0,0
329939,98.5398,-531.326,0,0
330200,98.0077,-530.99,0,0
330460,97.606,-530.654,0,0
330720.15,97.0222,-530.327,0,0
330980.475,96.4305,-530.021,0,0
331240.8,95.8141,-529.687,0,0
331501.125,95.252,-529.262,0,0
331761.45,94.6583,-528.881,0,0
332021.775,93.961,-528.577,0,0
332282.1,93.3508,-528.172,0,0
332542.425,92.7512,-527.868,0,0
332802.75,92.076,-527.44,0,0
333063.075,91.3332,-527.089,0,0
333323.4,90.5944,-526.752,0,0
333583.725,89.8659,-526.246,0,0
333844.05,89.047,-525.872,0,0
334104.375,88.1868,-525.401,0,0
334364.7,87.3297,-524.815,0,0
334625.025,86.5559,-524.289,0,0
334885.35,85.7133,-523.569,0,0
335145.675,84.9012,-522.908,0,0
335406.0,84.0894,-522.296,0,0
335666.325,83.4006,-521.611,0,0
335926.65,82.6054,-520.86,0,0
336186.975,81.8503,-520.088,0,0
336447.3,81.0841,-519.335,0,0
336707.625,80.4844,-518.624,0,0
336967.95,79.7403,-517.808,0,0
337228.275,79.1003,-517.008,0,0
337488.6,78.4853,-516.132,0,0
337748.925,77.9106,-515.348,0,0
338009.25,77.2827,-514.522,0,0
338269.575,76.6765,-513.682,0,0
338529.9,76.1153,-512.864,0,0
338790.225,75.5694,-512.025,0,0
339050.55,75.0355,-511.127,0,0
339310.875,74.5431,-510.386,0,0
339571.2,74.0684,-509.549,0,0
339831.525,73.5952,-508.693,0,0
340091.85,73.1346,-507.901,0,0
340352.175,72.6439,-507.143,0,0
340612.5,72.2567,-506.302,0,0
340872.825,71.7783,-505.539,0,0
341133.15,71.3144,-504.781,0,0
341393.475,70.8788,-504.044,0,0
341653.8,70.4254,-503.239,0,0
341914.125,69.9547,-502.455,0,0
342174.45,69.5053,-501.713,0,0
342434.775,69.0225,-500.893,0,0
342695.1,68.6189,-500.033,0,0
342955.425,68.137,-499.345,0,0
343215.75,67.7281,-498.493,0,0
343476.075,67.2743,-497.728,0,0
343736.4,66.8101,-496.866,0,0
343996.725,66.395,-496.095,0,0
344257.05,65.9823,-495.318,0,0
344517.375,65.5933,-494.451,0,0
344777.7,65.1764,-493.664,0,0
345038.025,64.6838,-492.846,0,0
345298.35,64.3552,-491.997,0,0
345558.675,63.8964,-491.2,0,0
345819.0,63.4984,-490.33,0,0
346079.325,63.0318,-489.494,0,0
346339.65,62.7095,-488.645,0,0
346599.975,62.2192,-487.714,0,0
346860,61.853,-486.815,0,0
347121,61.4584,-485.902,0,0
347381,61.1059,-484.921,0,0
347641,60.7808,-483.979,0,0
347902,60.5035,-482.993,0,0
348162,60.2204,-482.098,0,0
348422,60.0333,-481.164,0,0
348683,59.7845,-480.187,0,0
348943,59.5854,-479.262,0,0
349203,59.4006,-478.395,0,0
349464,59.1795,-477.478,0,0
349724,59.0072,-476.614,0,0
349984,58.8121,-475.739,0,0
350245,58.6266,-474.885,0,0
350505,58.4716,-474.018,0,0
350765,58.2621,-473.052,0,0
351025,58.098,-472.187,0,0
351286,57.9109,-471.317,0,0
351546,57.8222,-470.403,0,0
351806,57.7287,-469.529,0,0
352067,57.5972,-468.619,0,0
352327,57.5779,-467.808,0,0
352587,57.4525,-466.945,0,0
352848,57.3688,-466.145,0,0
353108,57.2554,-465.314,0,0
353368,57.1829,-464.547,0,0
353629,57.1145,-463.721,0,0
353889,57.0127,-462.922,0,0
354149,56.9338,-462.077,0,0
354410,56.8684,-461.28,0,0
354670,56.8299,-460.427,0,0
354930,56.7302,-459.684,0,0
355191,56.706,-458.875,0,0
355451,56.6627,-458.071,0,0
355711,56.6155,-457.332,0,0
355972,56.5606,-456.556,0,0
356232,56.518,-455.752,0,0
356492,56.4552,-454.968,0,0
356753,56.4673,-454.246,0,0
357013,56.3882,-453.463,0,0
357273,56.2944,-452.734,0,0
357534,56.2936,-451.961,0,0
357794,56.2317,-451.164,0,0
358054,56.2168,-450.429,0,0
358315,56.1431,-449.624,0,0
358575,56.1103,-448.836,0,0
358835,56.0515,-448.047,0,0
359096,56.092,-447.22,0,0
359356,56.0975,-446.438,0,0
359616,56.1196,-445.635,0,0
359877,56.1993,-444.848,0,0
360137,56.2059,-444.111,0,0
360397,56.2817,-443.346,0,0
360658,56.3178,-442.579,0,0
360918,56.3731,-441.888,0,0
361178,56.405,-441.201,0,0
361438,56.4573,-440.464,0,0
361699,56.4914,-439.719,0,0
361959,56.5276,-439.014,0,0
362219,56.5973,-438.279,0,0
362480,56.6179,-437.562,0,0
362740.1,56.6505,-436.835,0,0
363000.425,56.7204,-436.084,0,0
363260.75,56.7255,-435.364,0,0
363521.075,56.8269,-434.628,0,0
363781.4,56.8727,-433.843,0,0
364041.725,56.9919,-433.074,0,0
364302.05,57.0607,-432.313,0,0
364562.375,57.2173,-431.551,0,0
364822.7,57.3104,-430.855,0,0
365083.025,57.4777,-430.095,0,0
365343.35,57.5932,-429.454,0,0
365603.675,57.7371,-428.743,0,0
365864.0,57.8741,-428.101,0,0
366124.325,58.0257,-427.406,0,0
366384.65,58.1133,-426.795,0,0
366644.975,58.2056,-426.13,0,0
366905.3,58.2428,-425.463,0,0
367165.625,58.3082,-424.756,0,0
367425.95,58.327,-424.055,0,0
367686.275,58.36,-423.234,0,0
367946.6,58.449,-422.423,0,0
368206.925,58.5199,-421.603,0,0
368467.25,58.6382,-420.737,0,0
368727.575,58.8054,-419.885,0,0
368987.9,58.9813,-418.967,0,0
369248.225,59.2742,-418.107,0,0
369508.55,59.5625,-417.227,0,0
369768.875,59.9127,-416.372,0,0
370029.2,60.2578,-415.516,0,0
370289.525,60.6648,-414.653,0,0
370549.85,61.0509,-413.854,0,0
370810.175,61.5221,-413.042,0,0
371070.5,62.0128,-412.237,0,0
371330.825,62.5389,-411.457,0,0
371591.15,63.1101,-410.702,0,0
371851.475,63.7403,-409.99,0,0
372111.8,64.4323,-409.386,0,0
372372.125,65.0634,-408.791,0,0
372632.45,65.7449,-408.251,0,0
372892.775,66.4133,-407.801,0,0
373153.1,67.0696,-407.334,0,0
373413.425,67.6832,-406.954,0,0
373673.75,68.2983,-406.583,0,0
373934.075,68.9209,-406.233,0,0
374194.4,69.5481,-405.963,0,0
374454.725,70.1646,-405.672,0,0
374715.05,70.756,-405.438,0,0
374975.375,71.2776,-405.269,0,0
375235.7,71.8782,-405.017,0,0
375496.025,72.359,-404.866,0,0
375756.35,72.8403,-404.711,0,0
376016.675,73.3421,-404.564,0,0
376277.0,73.8481,-404.443,0,0
376537.325,74.2564,-404.342,0,0
376797.65,74.6916,-404.217,0,0
377057.975,75.1293,-404.139,0,0
377318.3,75.5394,-404.045,0,0
377578.625,75.9606,-404,0,0
377838.95,76.3411,-403.959,0,0
378099.275,76.7406,-403.919,0,0
378359.6,77.0627,-403.903,0,0
378619.925,77.4223,-403.864,0,0
378880,77.7388,-403.904,0,0
379141,77.9877,-403.832,0,0
379401,78.2473,-403.862,0,0
379661,78.5017,-403.779,0,0
379922,78.7753,-403.689,0,0
380182,79.1066,-403.573,0,0
380442,79.4284,-403.536,0,0
380703,79.8132,-403.453,0,0
380963,80.2527,-403.431,0,0
381223,80.6918,-403.46,0,0
381483,81.1133,-403.619,0,0
381744,81.5194,-403.819,0,0
382004,81.9075,-404.074,0,0
382264,82.2204,-404.391,0,0
382525,82.5369,-404.708,0,0
382785,82.7873,-405.092,0,0
383045,82.9104,-405.491,0,0
383306,83.0686,-405.902,0,0
383566,83.1476,-406.385,0,0
383826,83.0885,-406.802,0,0
384087,82.9973,-407.351,0,0
384347,82.8526,-407.828,0,0
384607,82.6221,-408.253,0,0
384868,82.2713,-408.622,0,0
385128,81.9611,-409.017,0,0
385388,81.5839,-409.349,0,0
385649,81.1589,-409.631,0,0
385909,80.6471,-409.876,0,0
386169,80.1256,-410.071,0,0
386430,79.6066,-410.179,0,0
386690,79.1006,-410.282,0,0
386950,78.5278,-410.351,0,0
387211,77.9939,-410.329,0,0
387471,77.373,-410.363,0,0
387731,76.7789,-410.266,0,0
387992,76.2116,-410.146,0,0
388252,75.6115,-409.967,0,0
388512,75.0319,-409.727,0,0
388773,74.512,-409.468,0,0
389033,74.0133,-409.099,0,0
389293,73.5743,-408.78,0,0
389554,73.1321,-408.414,0,0
389814,72.794,-408.076,0,0
390074,72.4264,-407.724,0,0
390335,72.0838,-407.331,0,0
390595,71.8179,-407.083,0,0
390855,71.5316,-406.788,0,0
391116,71.2413,-406.518,0,0
391376,70.9024,-406.239,0,0
391636,70.6221,-406.04,0,0
391896,70.2812,-405.807,0,0
392157,69.8755,-405.59,0,0
392417,69.5241,-405.394,0,0
392677,69.0888,-405.156,0,0
392938,68.6517,-404.943,0,0
393198,68.1629,-404.626,0,0
393458,67.7093,-404.353,0,0
393719,67.2383,-403.986,0,0
393979,66.6973,-403.656,0,0
394239,66.2418,-403.23,0,0
394500,65.682,-402.86,0,0
394760.05,65.2084,-402.356,0,0
395020.375,64.714,-401.895,0,0
395280.7,64.2356,-401.412,0,0
395541.025,63.7569,-400.879,0,0
395801.35,63.2588,-400.354,0,0
396061.675,62.8097,-399.765,0,0
396322.0,62.351,-399.095,0,0
396582.325,61.8995,-398.477,0,0
396842.65,61.5129,-397.81,0,0
397102.975,61.1229,-397.108,0,0
397363.3,60.7897,-396.393,0,0
397623.625,60.4763,-395.697,0,0
397883.95,60.2113,-394.937,0,0
398144.275,59.9228,-394.215,0,0
398404.6,59.7109,-393.478,0,0
398664.925,59.514,-392.721,0,0
398925.25,59.3613,-391.993,0,0
399185.575,59.2169,-391.261,0,0
399445.9,59.0983,-390.581,0,0
399706.225,59.0059,-389.887,0,0
399966.55,58.8875,-389.21,0,0
400006.6,58.888,-389.127,0,0