File: Accelerated corrosion test data/2025-10-20_18-00-03/sample_4.csv
Frequency (Hz),Impedance (ohms),Phase (Radians),Temperature (C),Humidity (%)
10000.0,261.604,-11930.2,0,0
10260.325,258.221,-11631.9,0,0
10520.65,248.595,-11345,0,0
10780.975,243.163,-11073.4,0,0
11041.3,238.603,-10813,0,0
11301.625,232.96,-10568.8,0,0
11561.95,227.211,-10332.2,0,0
11822.275,222.684,-10105.7,0,0
12082.6,218.245,-9889.43,0,0
12342.925,213.9,-9681.75,0,0
12603.25,212.28,-9481.81,0,0
12863.575,206.855,-9294.05,0,0
13123.9,205.245,-9115.81,0,0
13384.225,198.02,-8934.39,0,0
13644.55,194.871,-8762.53,0,0
13904.875,192.509,-8595.41,0,0
14165.2,196.304,-8430.26,0,0
14425.525,200.191,-8281.12,0,0
14685.8,194.142,-8170.81,0,0
14946.175,180.418,-8013.05,0,0
15206.5,179.334,-7866.05,0,0
15466.825,202.472,-7728.38,0,0
15727.15,187.125,-7623.56,0,0
15987.5,183.643,-7509.13,0,0
16247.8,169.701,-7377.45,0,0
16508.125,196.086,-7258.76,0,0
16768.45,180.794,-7152.73,0,0
17028.775,165.853,-7059.21,0,0
17289.1,158.836,-6946.27,0,0
17549.425,157.135,-6842.23,0,0
17809.75,154.326,-6741.23,0,0
18070.075,152.22,-6641.5,0,0
18330.4,153.142,-6546.06,0,0
18590.725,151.439,-6456.79,0,0
18851.05,148.323,-6371.36,0,0
19111.375,144.311,-6282.06,0,0
19371.7,141.806,-6196.37,0,0
19632.025,140.748,-6111.78,0,0
19892.35,143.556,-6031.41,0,0
20152.675,142.404,-5954.01,0,0
20413.0,139.625,-5879.32,0,0
20673.3,140.379,-5804.35,0,0
20933.65,136.721,-5730.53,0,0
21193.975,140.727,-5655.78,0,0
21454.3,152.683,-5589.35,0,0
21714.625,146.593,-5534.29,0,0
21974.9,151.272,-5463.98,0,0
22235.275,145.723,-5418.17,0,0
22495.6,134.174,-5358.56,0,0
22755.925,127.478,-5294.16,0,0
23016.25,124.111,-5231.8,0,0
23276.6,121.723,-5171.49,0,0
23536.9,119.867,-5113.6,0,0
23797.225,117.667,-5056.58,0,0
24057.55,116.178,-5000.45,0,0
24317.875,115.185,-4946.04,0,0
24578.2,113.688,-4891.98,0,0
24838.525,113.502,-4839.26,0,0
25098.85,114.718,-4788.69,0,0
25359.175,112.778,-4740.75,0,0
25619.5,111.449,-4691.14,0,0
25879.8,109.534,-4646.87,0,0
26140.1,107.386,-4598.1,0,0
26400.5,106.55,-4551.32,0,0
26660.8,105.814,-4504.87,0,0
26921.1,105.805,-4460.39,0,0
27181.4,105.059,-4415.47,0,0
27441.8,105.558,-4370.31,0,0
27702.1,110.168,-4325.75,0,0
27962.4,117.889,-4286.55,0,0
28222.7,118.204,-4257.57,0,0
28483.1,112.952,-4221.75,0,0
28743.4,109.273,-4181.06,0,0
29003.7,111.598,-4139.05,0,0
29264,118.231,-4107.98,0,0
29524.4,113.449,-4079.55,0,0
29784.7,106.672,-4044.22,0,0
30045,106.796,-4008.91,0,0
30305.3,100.398,-3974.84,0,0
30565.7,99.8704,-3938.29,0,0
30826,98.3612,-3904.68,0,0
31086.3,97.1938,-3869.69,0,0
31346.6,98.6446,-3836.61,0,0
31607,97.925,-3804.74,0,0
31867.3,96.9011,-3774.1,0,0
32127.6,100.094,-3743.2,0,0
32387.9,97.8535,-3717.44,0,0
32648.3,96.3231,-3687.32,0,0
32908.6,94.0321,-3660.12,0,0
33168.9,91.3131,-3630.51,0,0
33429.2,89.2094,-3601.96,0,0
33689.6,88.2678,-3572.4,0,0
33949.9,86.8745,-3543.69,0,0
34210.2,86.6614,-3516.18,0,0
34470.5,85.72,-3489.47,0,0
34730.9,84.1853,-3462.46,0,0
34991.2,83.8455,-3435.76,0,0
35251.5,83.4841,-3409.79,0,0
35511.8,82.742,-3384.58,0,0
35772.2,82.3051,-3359.24,0,0
36032.5,81.1198,-3334.53,0,0
36292.8,80.1837,-3309.53,0,0
36553.1,80.1778,-3284.9,0,0
36813.5,80.0609,-3260.53,0,0
37073.8,80.2319,-3238.21,0,0
37334.1,78.9477,-3215.07,0,0
37594.4,78.5576,-3191.86,0,0
37854.8,78.385,-3169.39,0,0
38115.1,77.4555,-3147.58,0,0
38375.4,76.6997,-3124.96,0,0
38635.7,76.5858,-3102.66,0,0
38896.1,77.0683,-3080.93,0,0
39156.4,76.2283,-3059.85,0,0
39416.7,75.9416,-3038.76,0,0
39677,75.8233,-3017.15,0,0
39937.4,76.7285,-2996.17,0,0
40197.7,78.6159,-2975.9,0,0
40458,80.4057,-2957.96,0,0
40718.3,78.3239,-2940.12,0,0
40978.7,78.4304,-2919.81,0,0
41239,80.0029,-2901.39,0,0
41499.3,81.4507,-2885.13,0,0
41759.6,78.6568,-2868.59,0,0
42020,77.0086,-2850.43,0,0
42280.275,75.898,-2830.75,0,0
42540.6,78.3499,-2813.53,0,0
42800.925,76.9815,-2798.73,0,0
43061.25,74.8833,-2780.49,0,0
43321.575,75.2313,-2763.42,0,0
43581.9,73.6982,-2746.9,0,0
43842.225,73.0167,-2729.2,0,0
44102.55,73.1674,-2713.58,0,0
44362.875,71.7303,-2696.34,0,0
44623.2,71.9387,-2679.33,0,0
44883.525,71.6728,-2663.82,0,0
45143.85,70.9692,-2647.96,0,0
45404.175,70.586,-2631.39,0,0
45664.5,71.4175,-2615.07,0,0
45924.825,72.0564,-2600.77,0,0
46185.15,70.5346,-2586.71,0,0
46445.475,69.9375,-2570.08,0,0
46705.8,70.798,-2555.36,0,0
46966.125,70.8499,-2541.29,0,0
47226.45,71.7237,-2526.96,0,0
47486.775,70.6967,-2514.36,0,0
47747.1,69.6012,-2500.28,0,0
48007.425,69.0004,-2486.28,0,0
48267.75,67.9256,-2472.27,0,0
48528.075,67.429,-2458.48,0,0
48788.4,66.4347,-2444.86,0,0
49048.725,65.5222,-2430.74,0,0
49309.05,65.6427,-2416.87,0,0
49569.375,64.8594,-2403.5,0,0
49829.7,64.6183,-2389.51,0,0
50090.025,64.2451,-2376.46,0,0
50350.35,63.9104,-2363.04,0,0
50610.675,63.7756,-2349.81,0,0
50871.0,63.8213,-2336.89,0,0
51131.325,63.2825,-2323.88,0,0
51391.65,63.2248,-2310.99,0,0
51651.975,63.3217,-2298.18,0,0
51912.3,63.1454,-2285.27,0,0
52172.625,63.7748,-2272.77,0,0
52432.95,63.859,-2260.47,0,0
52693.275,63.9898,-2247.54,0,0
52953.6,65.1276,-2234.96,0,0
53213.925,66.1535,-2223.21,0,0
53474.25,66.9099,-2211.11,0,0
53734.575,68.239,-2199.1,0,0
53994.9,71.0402,-2187.81,0,0
54255.225,73.1992,-2178,0,0
54515.55,75.578,-2169.52,0,0
54775.875,75.5317,-2162.23,0,0
55036.2,73.8281,-2153.86,0,0
55296.525,72.7384,-2143.99,0,0
55556.85,71.2379,-2135,0,0
55817.175,69.2167,-2124.61,0,0
56077.5,67.6796,-2113.94,0,0
56337.825,66.448,-2103.24,0,0
56598.15,65.4836,-2091.77,0,0
56858.475,65.1979,-2080.48,0,0
57118.8,65.4819,-2069.65,0,0
57379.125,65.583,-2059.14,0,0
57639.45,65.644,-2048.78,0,0
57899.775,65.795,-2038.57,0,0
58160.1,66.148,-2028.05,0,0
58420.4,67.221,-2017.7,0,0
58680.7,67.4995,-2009.15,0,0
58941.1,67.0604,-1998.4,0,0
59201.4,68.0848,-1987.78,0,0
59461.7,70.189,-1977.55,0,0
59722,72.6082,-1968.32,0,0
59982.4,75.4515,-1961.08,0,0
60242.7,75.5887,-1953.79,0,0
60503,77.1113,-1945.47,0,0
60763.3,80.1631,-1938.92,0,0
61023.7,80.3938,-1935.18,0,0
61284,78.2533,-1930.95,0,0
61544.3,73.8458,-1924.49,0,0
61804.6,70.7007,-1914.86,0,0
62065,69.2979,-1905.9,0,0
62325.3,68.1097,-1897.85,0,0
62585.6,65.2022,-1889.12,0,0
62845.9,64.1956,-1878.58,0,0
63106.3,63.74,-1869.22,0,0
63366.6,63.7133,-1860.1,0,0
63626.9,63.7607,-1851.05,0,0
63887.2,63.6929,-1843.02,0,0
64147.6,62.5052,-1834.1,0,0
64407.9,63.17,-1824.57,0,0
64668.2,63.9703,-1816.55,0,0
64928.5,64.1082,-1808.69,0,0
65188.9,64.0074,-1800.41,0,0
65449.2,64.3928,-1792.08,0,0
65709.5,64.645,-1783.64,0,0
65969.8,66.0265,-1775.35,0,0
66230.2,66.9635,-1768.24,0,0
66490.5,67.7395,-1761.08,0,0
66750.8,68.121,-1754.09,0,0
67011.1,68.2743,-1746.52,0,0
67271.5,69.6011,-1739.12,0,0
67531.8,70.6921,-1732.48,0,0
67792.1,71.7587,-1726.16,0,0
68052.4,72.6114,-1720.26,0,0
68312.8,73.3605,-1714.84,0,0
68573.1,73.8425,-1709.85,0,0
68833.4,73.2441,-1705.41,0,0
69093.7,71.5409,-1700.56,0,0
69354.1,69.308,-1694.62,0,0
69614.4,67.1633,-1687.63,0,0
69874.7,66.1236,-1680.47,0,0
70135,65.0171,-1673.38,0,0
70395.4,63.7448,-1665.92,0,0
70655.7,63.9458,-1657.7,0,0
70916,65.191,-1651.89,0,0
71176.3,64.3432,-1646.04,0,0
71436.7,63.9699,-1639.92,0,0
71697,63.287,-1634.36,0,0
71957.3,61.4504,-1628.37,0,0
72217.6,59.6334,-1621.43,0,0
72478,58.5809,-1613.86,0,0
72738.3,58.1347,-1606.93,0,0
72998.6,56.995,-1599.78,0,0
73258.9,56.5464,-1591.74,0,0
73519.3,56.9298,-1584.58,0,0
73779.6,57.241,-1577.63,0,0
74039.9,57.6527,-1570.9,0,0
74300.225,57.5084,-1564.27,0,0
74560.55,57.9303,-1557.35,0,0
74820.875,58.4487,-1550.74,0,0
75081.2,59.315,-1544.27,0,0
75341.525,60.0653,-1538.46,0,0
75601.85,60.4,-1532.63,0,0
75862.175,60.6929,-1526.66,0,0
76122.5,61.3218,-1520.8,0,0
76382.825,61.693,-1515.29,0,0
76643.15,61.772,-1509.73,0,0
76903.475,61.5911,-1503.62,0,0
77163.8,62.7442,-1497.13,0,0
77424.125,64.1258,-1491.98,0,0
77684.45,65.1463,-1487.34,0,0
77944.775,65.6768,-1483.1,0,0
78205.1,65.4843,-1478.77,0,0
78465.425,65.2968,-1474.27,0,0
78725.75,64.745,-1469.83,0,0
78986.075,63.8008,-1465.07,0,0
79246.4,62.9285,-1459.95,0,0
79506.725,62.2266,-1454.49,0,0
79767.05,61.5962,-1449.03,0,0
80027.375,61.2309,-1443.64,0,0
80287.7,60.8601,-1438.08,0,0
80548.025,60.6913,-1432.56,0,0
80808.35,60.7312,-1427.15,0,0
81068.675,60.7035,-1422.09,0,0
81329.0,60.6527,-1417.06,0,0
81589.325,60.5096,-1412.03,0,0
81849.65,60.2701,-1407.14,0,0
82109.975,59.9794,-1402.1,0,0
82370.3,59.7354,-1397.1,0,0
82630.625,59.5543,-1392.15,0,0
82890.95,59.2348,-1387.15,0,0
83151.275,58.924,-1382.26,0,0
83411.6,58.6074,-1377.26,0,0
83671.925,58.3292,-1372.27,0,0
83932.25,58.1268,-1367.26,0,0
84192.575,57.9185,-1362.28,0,0
84452.9,57.7134,-1357.35,0,0
84713.225,57.4922,-1352.5,0,0
84973.55,57.347,-1347.68,0,0
85233.875,57.1394,-1342.85,0,0
85494.2,56.9358,-1338.04,0,0
85754.525,56.6656,-1333.26,0,0
86014.85,56.4051,-1328.37,0,0
86275.175,56.2533,-1323.53,0,0
86535.5,56.2336,-1318.81,0,0
86795.825,56.0077,-1314.18,0,0
87056.15,55.8143,-1309.59,0,0
87316.475,55.6014,-1304.92,0,0
87576.8,55.3556,-1300.3,0,0
87837.125,55.1172,-1295.93,0,0
88097.45,54.4646,-1291.34,0,0
88357.775,53.8751,-1286.4,0,0
88618.1,53.7684,-1281.29,0,0
88878.425,53.71,-1276.62,0,0
89138.75,53.552,-1271.88,0,0
89399.075,53.1435,-1266.91,0,0
89659.4,53.3036,-1262.15,0,0
89919.725,53.375,-1257.53,0,0
90180,53.3569,-1252.86,0,0
90440.4,53.3174,-1248.35,0,0
90700.7,53.2068,-1243.81,0,0
90961,53.1858,-1239.1,0,0
91221.3,53.0664,-1234.52,0,0
91481.7,53.1704,-1229.77,0,0
91742,53.2857,-1225.12,0,0
92002.3,53.5552,-1220.57,0,0
92262.6,53.8353,-1216.16,0,0
92523,54.1781,-1211.82,0,0
92783.3,54.5056,-1207.57,0,0
93043.6,54.8074,-1203.54,0,0
93303.9,54.9318,-1199.6,0,0
93564.3,55.0168,-1195.69,0,0
93824.6,54.8762,-1191.89,0,0
94084.9,54.5858,-1188.01,0,0
94345.2,54.0006,-1183.94,0,0
94605.6,53.5364,-1179.59,0,0
94865.9,53.1789,-1175.2,0,0
95126.2,52.9767,-1170.66,0,0
95386.5,52.7988,-1166.14,0,0
95646.9,52.8073,-1161.61,0,0
95907.2,52.7923,-1157.15,0,0
96167.5,52.869,-1152.66,0,0
96427.8,53.0321,-1148.34,0,0
96688.2,53.162,-1144.08,0,0
96948.5,53.2034,-1139.71,0,0
97208.8,53.349,-1135.37,0,0
97469.1,53.5638,-1131.07,0,0
97729.5,53.6516,-1126.73,0,0
97989.8,53.8852,-1122.38,0,0
98250.1,54.2324,-1118.04,0,0
98510.4,54.5183,-1113.78,0,0
98770.8,54.9207,-1109.45,0,0
99031.1,55.4215,-1105.21,0,0
99291.4,55.9702,-1101.04,0,0
99551.7,56.5374,-1097.05,0,0
99812.1,56.8617,-1093.02,0,0
100072,57.4916,-1088.8,0,0
100333,58.3115,-1084.68,0,0
100593,59.4083,-1080.92,0,0
100853,60.3011,-1077.69,0,0
101114,60.6822,-1074.4,0,0
101374,61.3307,-1070.97,0,0
101634,61.9885,-1068.14,0,0
101895,61.8205,-1065.7,0,0
102155,60.9349,-1062.81,0,0
102415,59.8553,-1059.2,0,0
102676,58.9759,-1055.1,0,0
102936,58.2656,-1050.8,0,0
103196,57.7393,-1046.25,0,0
103457,57.3863,-1041.41,0,0
103717,57.571,-1036.51,0,0
103977,57.9048,-1031.8,0,0
104238,58.2875,-1027.09,0,0
104498,58.9145,-1022.29,0,0
104758,59.7993,-1017.59,0,0
105019,60.8933,-1013.04,0,0
105279,62.0084,-1008.71,0,0
105539,63.127,-1004.4,0,0
105800,64.4412,-1000.18,0,0
106060,65.8449,-996.144,0,0
106320.175,67.2005,-992.245,0,0
106580.5,68.6503,-988.463,0,0
106840.825,70.0498,-984.807,0,0
107101.15,71.3576,-981.258,0,0
107361.475,72.5905,-977.7,0,0
107621.8,73.7943,-973.99,0,0
107882.125,75.2754,-970.287,0,0
108142.45,76.9009,-966.668,0,0
108402.775,78.5755,-963.3,0,0
108663.1,80.2872,-959.962,0,0
108923.425,82.0487,-956.751,0,0
109183.75,83.9633,-953.741,0,0
109444.075,85.8919,-951.063,0,0
109704.4,87.5051,-948.614,0,0
109964.725,88.9562,-946.042,0,0
110225.05,90.5554,-943.525,0,0
110485.375,92.0978,-941.158,0,0
110745.7,93.5215,-939.006,0,0
111006.025,94.7414,-936.886,0,0
111266.35,95.8856,-934.7,0,0
111526.675,97.1282,-932.371,0,0
111787.0,98.1981,-930.251,0,0
112047.325,99.3896,-928.046,0,0
112307.65,100.516,-926.115,0,0
112567.975,101.643,-924.028,0,0
112828.3,102.584,-922.176,0,0
113088.625,103.544,-920.372,0,0
113348.95,104.367,-918.554,0,0
113609.275,105.21,-916.834,0,0
113869.6,105.899,-915.1,0,0
114129.925,106.516,-913.349,0,0
114390.25,107.173,-911.541,0,0
114650.575,107.782,-909.881,0,0
114910.9,108.373,-908.337,0,0
115171.225,108.748,-906.825,0,0
115431.55,109.002,-905.239,0,0
115691.875,109.117,-903.648,0,0
115952.2,109.171,-901.983,0,0
116212.525,109.231,-900.251,0,0
116472.85,109.229,-898.576,0,0
116733.175,109.125,-896.853,0,0
116993.5,108.939,-895.054,0,0
117253.825,108.649,-893.192,0,0
117514.15,108.31,-891.174,0,0
117774.475,107.942,-888.988,0,0
118034.8,107.671,-886.572,0,0
118295.125,107.588,-884.168,0,0
118555.45,107.487,-881.739,0,0
118815.775,107.419,-879.025,0,0
119076.1,107.841,-876.098,0,0
119336.425,108.79,-873.265,0,0
119596.75,110.304,-871.076,0,0
119857.075,111.74,-869.419,0,0
120117.4,113.366,-868.627,0,0
120377.725,114.142,-868.695,0,0
120638.05,114.021,-868.903,0,0
120898.375,112.868,-868.866,0,0
121158.7,111.236,-868.068,0,0
121419.025,109.562,-866.695,0,0
121679.35,107.954,-864.883,0,0
121939.675,106.441,-862.708,0,0
122200.0,105.206,-860.421,0,0
122460,104.096,-857.903,0,0
122721,103.178,-855.369,0,0
122981,102.374,-852.919,0,0
123241,101.545,-850.419,0,0
123502,100.79,-847.853,0,0
123762,100.136,-845.228,0,0
124022,99.5226,-842.559,0,0
124283,99.0579,-839.949,0,0
124543,98.6496,-837.38,0,0
124803,98.235,-834.785,0,0
125064,98.0045,-832.224,0,0
125324,97.8881,-829.824,0,0
125584,97.7175,-827.594,0,0
125845,97.4959,-825.466,0,0
126105,97.167,-823.479,0,0
126365,96.553,-821.536,0,0
126626,95.9517,-819.491,0,0
126886,95.2706,-817.432,0,0
127146,94.4906,-815.327,0,0
127406,93.6904,-813.108,0,0
127667,92.9555,-811.08,0,0
127927,91.996,-809.264,0,0
128187,90.6599,-807.271,0,0
128448,89.2585,-805.015,0,0
128708,87.6848,-802.553,0,0
128968,86.0564,-799.988,0,0
129229,84.3547,-797.137,0,0
129489,82.734,-793.962,0,0
129749,81.3349,-790.599,0,0
130010,80.0013,-787.164,0,0
130270,78.8526,-783.614,0,0
130530,77.7881,-780.096,0,0
130791,76.758,-776.488,0,0
131051,75.8714,-772.764,0,0
131311,75.0782,-768.978,0,0
131572,74.4484,-765.226,0,0
131832,73.8472,-761.495,0,0
132092,73.3188,-757.659,0,0
132353,72.8825,-753.863,0,0
132613,72.5302,-750.056,0,0
132873,72.2676,-746.28,0,0
133134,72.0323,-742.521,0,0
133394,71.8174,-738.738,0,0
133654,71.6737,-734.878,0,0
133915,71.6557,-731.031,0,0
134175,71.6952,-727.271,0,0
134435,71.7745,-723.503,0,0
134696,71.8491,-719.781,0,0
134956,71.9743,-715.967,0,0
135216,72.2094,-712.16,0,0
135477,72.5486,-708.418,0,0
135737,72.8967,-704.803,0,0
135997,73.1965,-701.154,0,0
136258,73.5026,-697.428,0,0
136518,73.9589,-693.734,0,0
136778,74.4561,-690.087,0,0
137039,75.014,-686.645,0,0
137299,75.3626,-683.272,0,0
137559,75.6767,-679.773,0,0
137819,75.9516,-676.186,0,0
138080,76.2531,-672.495,0,0
138340.125,76.6493,-668.772,0,0
138600.45,77.1084,-665.024,0,0
138860.775,77.5505,-661.246,0,0
139121.1,78.1115,-657.389,0,0
139381.425,78.8116,-653.548,0,0
139641.75,79.5387,-649.783,0,0
139902.075,80.2437,-646.026,0,0
140162.4,80.9468,-642.164,0,0
140422.725,81.801,-638.254,0,0
140683.05,82.7917,-634.374,0,0
140943.375,83.8576,-630.559,0,0
141203.7,84.9713,-626.799,0,0
141464.025,86.1111,-623.098,0,0
141724.35,87.3087,-619.427,0,0
141984.675,88.4939,-615.882,0,0
142245.0,89.5784,-612.3,0,0
142505.325,90.6834,-608.622,0,0
142765.65,91.9281,-604.943,0,0
143025.975,93.1984,-601.327,0,0
143286.3,94.5001,-597.716,0,0
143546.625,95.7148,-594.138,0,0
143806.95,96.9868,-590.467,0,0
144067.275,98.3211,-586.766,0,0
144327.6,99.7296,-583.091,0,0
144587.925,101.16,-579.457,0,0
144848.25,102.587,-575.75,0,0
145108.575,104.097,-572.009,0,0
145368.9,105.655,-568.255,0,0
145629.225,107.307,-564.51,0,0
145889.55,109.001,-560.773,0,0
146149.875,110.783,-557.015,0,0
146410.2,112.637,-553.311,0,0
146670.525,114.568,-549.604,0,0
146930.85,116.522,-545.956,0,0
147191.175,118.47,-542.302,0,0
147451.5,120.525,-538.587,0,0
147711.825,122.684,-534.906,0,0
147972.15,124.891,-531.279,0,0
148232.475,127.101,-527.69,0,0
148492.8,129.354,-524.075,0,0
148753.125,131.693,-520.417,0,0
149013.45,134.113,-516.835,0,0
149273.775,136.423,-513.245,0,0
149534.1,138.787,-509.381,0,0
149794.425,141.504,-505.402,0,0
150054.75,144.491,-501.528,0,0
150315.075,147.62,-497.807,0,0
150575.4,150.808,-494.16,0,0
150835.725,154.144,-490.552,0,0
151096.05,157.623,-487.017,0,0
151356.375,161.22,-483.523,0,0
151616.7,165.051,-480.084,0,0
151877.025,169.01,-476.794,0,0
152137.35,173.215,-473.578,0,0
152397.675,177.733,-470.644,0,0
152658.0,182.351,-468.139,0,0
152918.325,186.855,-465.823,0,0
153178.65,191.474,-463.68,0,0
153438.975,196.251,-461.903,0,0
153699.3,200.893,-460.573,0,0
153959.625,205.311,-459.496,0,0
154219.95,209.526,-458.608,0,0
154480,213.582,-457.865,0,0
154741,217.329,-457.327,0,0
155001,220.688,-456.575,0,0
155261,224.017,-455.687,0,0
155522,227.655,-454.583,0,0
155782,231.492,-454.031,0,0
156042,234.731,-453.76,0,0
156303,237.804,-453.195,0,0
156563,240.777,-452.476,0,0
156823,243.936,-451.743,0,0
157084,247.161,-450.968,0,0
157344,250.222,-450.482,0,0
157604,252.984,-449.914,0,0
157864,255.759,-448.864,0,0
158125,258.873,-447.559,0,0
158385,262.411,-446.402,0,0
158645,266.304,-445.429,0,0
158906,270.327,-444.786,0,0
159166,274.631,-444.589,0,0
159426,278.784,-445.206,0,0
159687,282.149,-446.041,0,0
159947,285.139,-446.603,0,0
160207,288.269,-446.733,0,0
160468,291.884,-447.315,0,0
160728,295.08,-448.557,0,0
160988,297.806,-449.65,0,0
161249,300.405,-450.908,0,0
161509,302.554,-452.178,0,0
161769,304.722,-453.531,0,0
162030,306.15,-454.783,0,0
162290,307.536,-455.774,0,0
162550,308.714,-456.658,0,0
162811,309.573,-457.385,0,0
163071,310.006,-457.85,0,0
163331,310.474,-457.724,0,0
163592,310.813,-457.158,0,0
163852,311.348,-456.042,0,0
164112,312.086,-454.616,0,0
164373,313.314,-452.69,0,0
164633,315.17,-450.681,0,0
164893,317.273,-448.955,0,0
165154,319.406,-447.088,0,0
165414,321.694,-444.714,0,0
165674,324.778,-442.111,0,0
165935,328.816,-439.629,0,0
166195,333.322,-437.693,0,0
166455,338.234,-436.086,0,0
166716,343.597,-434.87,0,0
166976,349.646,-434.356,0,0
167236,355.671,-434.699,0,0
167497,361.625,-435.76,0,0
167757,367.625,-437.131,0,0
168017,373.467,-439.272,0,0
168277,379.074,-441.961,0,0
168538,384.34,-444.777,0,0
168798,390.037,-448.036,0,0
169058,395.732,-452.192,0,0
169319,400.916,-457.378,0,0
169579,405.512,-462.968,0,0
169839,409.841,-469.275,0,0
170100,413.475,-476.48,0,0
170360.075,415.999,-484.341,0,0
170620.4,417.262,-492.568,0,0
170880.725,417.217,-500.838,0,0
171141.05,416.107,-508.625,0,0
171401.375,414.288,-515.989,0,0
171661.7,411.881,-523.319,0,0
171922.025,408.289,-530.558,0,0
172182.35,403.639,-536.996,0,0
172442.675,398.283,-542.712,0,0
172703.0,392.156,-547.476,0,0
172963.325,385.786,-551.189,0,0
173223.65,379.296,-554.22,0,0
173483.975,372.364,-556.452,0,0
173744.3,365.361,-557.529,0,0
174004.625,358.678,-557.775,0,0
174264.95,352.194,-557.457,0,0
174525.275,345.987,-556.45,0,0
174785.6,340.08,-555.166,0,0
175045.925,334.022,-553.482,0,0
175306.25,327.882,-550.863,0,0
175566.575,322.324,-547.355,0,0
175826.9,317.461,-543.339,0,0
176087.225,313.205,-539.01,0,0
176347.55,309.49,-534.396,0,0
176607.875,306.374,-529.651,0,0
176868.2,303.723,-524.828,0,0
177128.525,301.568,-519.995,0,0
177388.85,299.784,-515.225,0,0
177649.175,298.374,-510.438,0,0
177909.5,297.286,-505.792,0,0
178169.825,296.368,-501.161,0,0
178430.15,295.747,-496.518,0,0
178690.475,295.383,-491.931,0,0
178950.8,295.34,-487.379,0,0
179211.125,295.613,-482.898,0,0
179471.45,296.186,-478.621,0,0
179731.775,296.921,-474.632,0,0
179992.1,297.731,-470.892,0,0
180252.425,298.572,-467.31,0,0
180512.75,299.356,-463.892,0,0
180773.075,300.12,-460.497,0,0
181033.4,300.966,-457.154,0,0
181293.725,301.775,-453.926,0,0
181554.05,302.578,-450.745,0,0
181814.375,303.342,-447.605,0,0
182074.7,304.035,-444.477,0,0
182335.025,304.665,-441.4,0,0
182595.35,305.111,-438.262,0,0
182855.675,305.481,-434.947,0,0
183116.0,305.791,-431.386,0,0
183376.325,306.258,-427.591,0,0
183636.65,306.844,-423.691,0,0
183896.975,307.53,-419.646,0,0
184157.3,308.376,-415.471,0,0
184417.625,309.393,-411.222,0,0
184677.95,310.542,-406.93,0,0
184938.275,311.856,-402.608,0,0
185198.6,313.29,-398.277,0,0
185458.925,314.766,-393.944,0,0
185719.25,316.259,-389.569,0,0
185979.575,317.767,-385.045,0,0
186239.9,319.392,-380.33,0,0
186500,321.172,-375.475,0,0
186761,323.1,-370.58,0,0
187021,325.163,-365.436,0,0
187281,327.413,-360.113,0,0
187542,329.976,-354.616,0,0
187802,332.781,-349.13,0,0
188062,335.878,-343.62,0,0
188322,339.148,-338.023,0,0
188583,342.595,-332.36,0,0
188843,346.332,-326.539,0,0
189103,350.381,-320.791,0,0
189364,354.602,-314.826,0,0
189624,359.23,-308.85,0,0
189884,364.236,-302.776,0,0
190145,369.598,-296.761,0,0
190405,375.309,-290.837,0,0
190665,381.258,-284.863,0,0
190926,387.632,-278.91,0,0
191186,394.379,-273.018,0,0
191446,401.596,-267.117,0,0
191707,409.235,-261.411,0,0
191967,417.384,-255.86,0,0
192227,425.868,-250.669,0,0
192488,434.649,-245.568,0,0
192748,443.96,-240.765,0,0
193008,453.553,-236.231,0,0
193269,463.43,-231.947,0,0
193529,473.638,-228.025,0,0
193789,484.222,-224.382,0,0
194050,495.051,-221.131,0,0
194310,505.996,-218.299,0,0
194570,517.199,-215.587,0,0
194831,528.625,-213.039,0,0
195091,540.447,-210.917,0,0
195351,552.459,-208.876,0,0
195612,564.909,-207.166,0,0
195872,577.779,-205.717,0,0
196132,591.085,-204.66,0,0
196393,604.801,-204.049,0,0
196653,618.919,-203.907,0,0
196913,633.472,-204.282,0,0
197174,648.452,-205.206,0,0
197434,663.752,-206.702,0,0
197694,679.53,-208.824,0,0
197955,695.728,-211.628,0,0
198215,712.327,-215.085,0,0
198475,729.537,-219.315,0,0
198735,747.604,-224.566,0,0
198996,766.233,-231.459,0,0
199256,784.902,-240.096,0,0
199516,803.247,-250.679,0,0
199777,820.886,-262.716,0,0
200037,837.712,-275.761,0,0
200297,854.094,-290.027,0,0
200558,869.887,-305.77,0,0
200818,884.335,-322.817,0,0
201078,897.815,-340.758,0,0
201339,910.09,-359.734,0,0
201599,920.73,-379.62,0,0
201859,929.699,-399.85,0,0
202120,937.51,-419.948,0,0
202380.025,944.412,-440.297,0,0
202640.35,949.984,-460.754,0,0
202900.675,954.684,-481.07,0,0
203161.0,958.917,-501.733,0,0
203421.325,962.099,-523.192,0,0
203681.65,963.543,-545.233,0,0
203941.975,962.973,-566.926,0,0
204202.3,960.924,-587.382,0,0
204462.625,958.635,-606.78,0,0
204722.95,955.831,-626.221,0,0
204983.275,952.56,-645.915,0,0
205243.6,947.767,-665.41,0,0
205503.925,941.924,-684.288,0,0
205764.25,935.67,-702.475,0,0
206024.575,928.635,-720.174,0,0
206284.9,921.172,-737.476,0,0
206545.225,912.882,-754.922,0,0
206805.55,903.454,-772.082,0,0
207065.875,892.664,-788.504,0,0
207326.2,881.165,-803.969,0,0
207586.525,868.733,-818.373,0,0
207846.85,855.85,-831.852,0,0
208107.175,842.408,-844.295,0,0
208367.5,828.411,-855.917,0,0
208627.825,813.793,-866.475,0,0
208888.15,798.656,-875.628,0,0
209148.475,783.357,-883.256,0,0
209408.8,768.486,-889.224,0,0
209669.125,754.398,-894.399,0,0
209929.45,740.66,-898.776,0,0
210189.775,727.281,-902.723,0,0
210450.1,714.175,-905.85,0,0
210710.425,701.404,-908.252,0,0
210970.75,689.249,-909.877,0,0
211231.075,677.744,-911.063,0,0
211491.4,666.849,-912.141,0,0
211751.725,656.07,-913.043,0,0
212012.05,645.542,-913.47,0,0
212272.375,635.254,-913.557,0,0
212532.7,625.34,-913.271,0,0
212793.025,615.581,-912.778,0,0
213053.35,605.938,-911.464,0,0
213313.675,597.088,-909.37,0,0
213574.0,588.989,-907.031,0,0
213834.325,581.927,-904.314,0,0
214094.65,575.822,-901.673,0,0
214354.975,570.69,-899.345,0,0
214615.3,566.229,-897.856,0,0
214875.625,561.837,-896.95,0,0
215135.95,557.595,-896.57,0,0
215396.275,553.275,-896.627,0,0
215656.6,548.895,-896.967,0,0
215916.925,544.135,-897.592,0,0
216177.25,539.093,-898.126,0,0
216437.575,533.825,-898.591,0,0
216697.9,528.738,-898.628,0,0
216958.225,523.93,-898.766,0,0
217218.55,519.148,-899.142,0,0
217478.875,514.151,-899.497,0,0
217739.2,509.151,-899.732,0,0
217999.525,504.171,-899.874,0,0
218259.85,499.311,-899.96,0,0
218520,494.552,-900.09,0,0
218780,489.813,-900.298,0,0
219041,485.051,-900.565,0,0
219301,480.116,-900.76,0,0
219561,475.256,-901.017,0,0
219822,470.287,-901.222,0,0
220082,465.117,-901.197,0,0
220342,459.918,-901.062,0,0
220603,454.646,-900.717,0,0
220863,449.594,-900.015,0,0
221123,444.794,-899.151,0,0
221384,440.182,-898.408,0,0
221644,435.683,-897.679,0,0
221904,431.139,-896.972,0,0
222165,426.689,-896.113,0,0
222425,422.242,-895.152,0,0
222685,418.177,-893.963,0,0
222946,414.311,-893.035,0,0
223206,410.642,-892.082,0,0
223466,407.04,-891.439,0,0
223727,403.599,-890.803,0,0
223987,400.075,-890.574,0,0
224247,396.474,-890.63,0,0
224508,392.575,-890.594,0,0
224768,388.614,-890.706,0,0
225028,384.43,-890.643,0,0
225289,380.071,-890.739,0,0
225549,375.52,-890.703,0,0
225809,371.047,-890.489,0,0
226070,366.385,-890.287,0,0
226330,361.642,-890.01,0,0
226590,356.674,-889.553,0,0
226851,351.727,-889.137,0,0
227111,346.473,-888.492,0,0
227371,341.201,-887.551,0,0
227632,335.901,-886.444,0,0
227892,330.509,-884.999,0,0
228152,325.128,-883.418,0,0
228413,319.756,-881.47,0,0
228673,314.437,-879.227,0,0
228933,309.405,-876.72,0,0
229193,304.558,-874.001,0,0
229454,299.87,-871.244,0,0
229714,295.473,-868.335,0,0
229974,291.212,-865.353,0,0
230235,287.015,-862.455,0,0
230495,282.877,-859.503,0,0
230755,278.721,-856.298,0,0
231016,274.845,-852.875,0,0
231276,271.259,-849.287,0,0
231536,267.958,-845.814,0,0
231797,264.857,-842.36,0,0
232057,261.952,-839.018,0,0
232317,259.062,-835.829,0,0
232578,256.074,-832.607,0,0
232838,253.22,-829.3,0,0
233098,250.472,-825.961,0,0
233359,247.684,-822.523,0,0
233619,245.157,-818.855,0,0
233879,242.935,-815.238,0,0
234140,240.914,-811.712,0,0
234400,239.055,-808.325,0,0
234660.3,237.234,-805.101,0,0
234920.625,235.453,-801.864,0,0
235180.95,233.81,-798.76,0,0
235441.275,232.168,-795.74,0,0
235701.6,230.482,-792.755,0,0
235961.925,228.818,-789.698,0,0
236222.25,227.205,-786.591,0,0
236482.575,225.682,-783.544,0,0
236742.9,224.159,-780.433,0,0
237003.225,222.75,-777.23,0,0
237263.55,221.577,-773.991,0,0
237523.875,220.574,-770.86,0,0
237784.2,219.633,-767.801,0,0
238044.525,218.784,-764.809,0,0
238304.85,218.03,-761.889,0,0
238565.175,217.332,-759.047,0,0
238825.5,216.757,-756.233,0,0
239085.825,216.218,-753.627,0,0
239346.15,215.749,-751.019,0,0
239606.475,215.356,-748.572,0,0
239866.8,214.892,-746.093,0,0
240127.125,214.517,-743.698,0,0
240387.45,214.236,-741.384,0,0
240647.775,213.98,-739.148,0,0
240908.1,213.729,-737.052,0,0
241168.425,213.552,-735.059,0,0
241428.75,213.254,-733.202,0,0
241689.075,212.986,-731.419,0,0
241949.4,212.712,-729.73,0,0
242209.725,212.412,-728.109,0,0
242470.05,211.999,-726.532,0,0
242730.375,211.615,-725.039,0,0
242990.7,211.187,-723.625,0,0
243251.025,210.646,-722.323,0,0
243511.35,209.981,-721.053,0,0
243771.675,209.24,-719.78,0,0
244032.0,208.376,-718.539,0,0
244292.325,207.322,-717.258,0,0
244552.65,206.187,-715.878,0,0
244812.975,205.041,-714.357,0,0
245073.3,203.837,-712.719,0,0
245333.625,202.59,-711.046,0,0
245593.95,201.446,-709.292,0,0
245854.275,200.268,-707.395,0,0
246114.6,199.162,-705.48,0,0
246374.925,198.023,-703.529,0,0
246635.25,196.894,-701.437,0,0
246895.575,195.825,-699.22,0,0
247155.9,194.987,-697.005,0,0
247416.225,194.174,-694.72,0,0
247676.55,193.426,-692.55,0,0
247936.875,192.665,-690.336,0,0
248197.2,192.044,-688.06,0,0
248457.525,191.474,-685.726,0,0
248717.85,191.077,-683.379,0,0
248978.175,190.772,-681.092,0,0
249238.5,190.518,-678.933,0,0
249498.825,190.38,-676.889,0,0
249759.15,190.304,-674.878,0,0
250019.475,190.216,-672.991,0,0
250279.8,190.152,-671.262,0,0
250540,189.993,-669.657,0,0
250800,189.7,-668.13,0,0
251061,189.254,-666.648,0,0
251321,188.648,-665.064,0,0
251581,187.931,-663.413,0,0
251842,187.21,-661.627,0,0
252102,186.42,-659.723,0,0
252362,185.681,-657.715,0,0
252623,185.001,-655.554,0,0
252883,184.427,-653.347,0,0
253143,183.949,-651.137,0,0
253404,183.471,-648.964,0,0
253664,183.038,-646.857,0,0
253924,182.534,-644.769,0,0
254185,181.847,-642.661,0,0
254445,181.018,-640.36,0,0
254705,180.147,-637.796,0,0
254966,179.373,-634.944,0,0
255226,178.756,-631.866,0,0
255486,178.401,-628.653,0,0
255747,178.159,-625.425,0,0
256007,178.087,-622.109,0,0
256267,178.154,-618.611,0,0
256528,178.403,-615.074,0,0
256788,178.869,-611.46,0,0
257048,179.543,-607.782,0,0
257309,180.456,-604.035,0,0
257569,181.683,-600.325,0,0
257829,183.13,-596.63,0,0
258090,184.801,-592.995,0,0
258350,186.73,-589.379,0,0
258610,188.923,-585.845,0,0
258871,191.481,-582.604,0,0
259131,194.166,-579.473,0,0
259391,197.004,-576.573,0,0
259651,199.947,-573.836,0,0
259912,202.95,-571.183,0,0
260172,206.164,-568.625,0,0
260432,209.589,-566.215,0,0
260693,213.153,-564.05,0,0
260953,216.892,-562.124,0,0
261213,220.69,-560.326,0,0
261474,224.618,-558.867,0,0
261734,228.661,-557.389,0,0
261994,233.027,-556.097,0,0
262255,237.655,-555.2,0,0
262515,242.462,-554.763,0,0
262775,247.44,-554.894,0,0
263036,252.275,-555.66,0,0
263296,256.732,-557.014,0,0
263556,260.697,-558.625,0,0
263817,264.324,-560.26,0,0
264077,267.74,-561.979,0,0
264337,270.913,-563.693,0,0
264598,273.946,-565.387,0,0
264858,277.006,-566.95,0,0
265118,280.18,-568.562,0,0
265379,283.49,-570.368,0,0
265639,286.813,-572.393,0,0
265899,290.194,-574.676,0,0
266160,293.782,-577.228,0,0
266420,297.273,-580.363,0,0
266680.25,300.62,-583.952,0,0
266940.575,303.708,-588.047,0,0
267200.9,306.411,-592.539,0,0
267461.225,308.652,-597.437,0,0
267721.55,310.299,-602.657,0,0
267981.875,311.333,-608.112,0,0
268242.2,311.657,-613.674,0,0
268502.525,311.246,-619.073,0,0
268762.85,310.299,-624.104,0,0
269023.175,308.972,-628.774,0,0
269283.5,307.328,-633.267,0,0
269543.825,305.265,-637.455,0,0
269804.15,302.914,-641.18,0,0
270064.475,300.381,-644.456,0,0
270324.8,297.931,-647.268,0,0
270585.125,295.581,-649.816,0,0
270845.45,293.393,-652.161,0,0
271105.775,291.345,-654.483,0,0
271366.1,289.299,-656.905,0,0
271626.425,287.097,-659.31,0,0
271886.75,284.706,-661.703,0,0
272147.075,282.019,-663.925,0,0
272407.4,279.246,-665.789,0,0
272667.725,276.499,-667.321,0,0
272928.05,274.017,-668.64,0,0
273188.375,271.763,-669.928,0,0
273448.7,269.632,-671.364,0,0
273709.025,267.485,-673.069,0,0
273969.35,265.138,-674.907,0,0
274229.675,262.595,-676.756,0,0
274490.0,259.705,-678.695,0,0
274750.325,256.519,-680.446,0,0
275010.65,253.166,-682.039,0,0
275270.975,249.659,-683.392,0,0
275531.3,245.942,-684.645,0,0
275791.625,241.956,-685.726,0,0
276051.95,237.706,-686.489,0,0
276312.275,233.235,-686.826,0,0
276572.6,228.643,-686.668,0,0
276832.925,224.074,-686.017,0,0
277093.25,219.634,-684.863,0,0
277353.575,215.367,-683.26,0,0
277613.9,211.349,-681.26,0,0
277874.225,207.689,-678.846,0,0
278134.55,204.465,-676.118,0,0
278394.875,201.735,-673.261,0,0
278655.2,199.44,-670.35,0,0
278915.525,197.576,-667.388,0,0
279175.85,196.183,-664.521,0,0
279436.175,195.237,-661.936,0,0
279696.5,194.565,-659.659,0,0
279956.825,193.898,-657.862,0,0
280217.15,193.157,-656.213,0,0
280477.475,192.161,-654.659,0,0
280737.8,191.166,-653.004,0,0
280998.125,190.186,-651.244,0,0
281258.45,189.295,-649.376,0,0
281518.775,188.633,-647.415,0,0
281779.1,188.271,-645.505,0,0
282039.425,188.141,-643.763,0,0
282299.75,188.109,-642.191,0,0
282560,188.27,-640.771,0,0
282820,188.52,-639.635,0,0
283081,188.76,-638.777,0,0
283341,188.929,-638.185,0,0
283601,188.957,-637.759,0,0
283862,188.813,-637.459,0,0
284122,188.587,-637.268,0,0
284382,188.217,-637.195,0,0
284643,187.646,-637.205,0,0
284903,186.85,-637.28,0,0
285163,185.754,-637.314,0,0
285424,184.416,-637.23,0,0
285684,182.847,-637.014,0,0
285944,181.132,-636.468,0,0
286205,179.314,-635.582,0,0
286465,177.662,-634.44,0,0
286725,176.107,-633.139,0,0
286986,174.681,-631.739,0,0
287246,173.219,-630.238,0,0
287506,171.782,-628.554,0,0
287767,170.438,-626.631,0,0
288027,169.282,-624.475,0,0
288287,168.358,-622.151,0,0
288548,167.682,-619.69,0,0
288808,167.337,-617.149,0,0
289068,167.27,-614.656,0,0
289329,167.443,-612.209,0,0
289589,167.836,-609.808,0,0
289849,168.447,-607.413,0,0
290109,169.314,-605.122,0,0
290370,170.508,-602.851,0,0
290630,171.975,-600.782,0,0
290890,173.704,-598.998,0,0
291151,175.649,-597.458,0,0
291411,177.776,-596.224,0,0
291671,180.033,-595.339,0,0
291932,182.365,-594.811,0,0
292192,184.704,-594.655,0,0
292452,187.005,-594.856,0,0
292713,189.234,-595.396,0,0
292973,191.347,-596.224,0,0
293233,193.327,-597.37,0,0
293494,195.163,-598.803,0,0
293754,196.79,-600.576,0,0
294014,198.145,-602.69,0,0
294275,199.147,-605.033,0,0
294535,199.691,-607.605,0,0
294795,199.767,-610.184,0,0
295056,199.409,-612.787,0,0
295316,198.706,-615.238,0,0
295576,197.628,-617.588,0,0
295837,196.243,-619.741,0,0
296097,194.601,-621.624,0,0
296357,192.805,-623.257,0,0
296618,190.852,-624.651,0,0
296878,188.834,-625.771,0,0
297138,186.77,-626.653,0,0
297399,184.715,-627.302,0,0
297659,182.755,-627.795,0,0
297919,180.851,-628.151,0,0
298180,178.988,-628.443,0,0
298440,177.167,-628.676,0,0
298700.2,175.329,-628.864,0,0
298960.525,173.494,-628.967,0,0
299220.85,171.681,-628.996,0,0
299481.175,169.817,-628.994,0,0
299741.5,167.963,-628.87,0,0
300001.825,166.131,-628.64,0,0
300262.15,164.294,-628.34,0,0
300522.475,162.478,-627.962,0,0
300782.8,160.722,-627.481,0,0
301043.125,159.007,-626.962,0,0
301303.45,157.344,-626.346,0,0
301563.775,155.759,-625.711,0,0
301824.1,154.188,-625.048,0,0
302084.425,152.679,-624.358,0,0
302344.75,151.213,-623.688,0,0
302605.075,149.727,-623.01,0,0
302865.4,148.242,-622.292,0,0
303125.725,146.709,-621.549,0,0
303386.05,145.2,-620.728,0,0
303646.375,143.691,-619.806,0,0
303906.7,142.242,-618.797,0,0
304167.025,140.881,-617.741,0,0
304427.35,139.577,-616.655,0,0
304687.675,138.34,-615.543,0,0
304948.0,137.168,-614.425,0,0
305208.325,135.999,-613.284,0,0
305468.65,134.904,-612.118,0,0
305728.975,133.836,-610.932,0,0
305989.3,132.843,-609.726,0,0
306249.625,131.898,-608.494,0,0
306509.95,130.996,-607.261,0,0
306770.275,130.197,-605.991,0,0
307030.6,129.487,-604.732,0,0
307290.925,128.859,-603.521,0,0
307551.25,128.298,-602.33,0,0
307811.575,127.8,-601.228,0,0
308071.9,127.353,-600.209,0,0
308332.225,126.919,-599.249,0,0
308592.55,126.455,-598.374,0,0
308852.875,125.982,-597.567,0,0
309113.2,125.439,-596.787,0,0
309373.525,124.844,-596.063,0,0
309633.85,124.217,-595.286,0,0
309894.175,123.523,-594.481,0,0
310154.5,122.818,-593.625,0,0
310414.825,122.142,-592.751,0,0
310675.15,121.493,-591.821,0,0
310935.475,120.874,-590.878,0,0
311195.8,120.281,-589.945,0,0
311456.125,119.691,-589.029,0,0
311716.45,119.136,-588.086,0,0
311976.775,118.57,-587.137,0,0
312237.1,118.02,-586.137,0,0
312497.425,117.532,-585.135,0,0
312757.75,117.095,-584.116,0,0
313018.075,116.716,-583.098,0,0
313278.4,116.431,-582.154,0,0
313538.725,116.174,-581.234,0,0
313799.05,115.908,-580.408,0,0
314059.375,115.659,-579.624,0,0
314319.7,115.379,-578.897,0,0
314580,115.134,-578.143,0,0
314840,114.843,-577.456,0,0
315101,114.408,-576.725,0,0
315361,114.073,-576.08,0,0
315621,113.751,-575.315,0,0
315882,113.438,-574.667,0,0
316142,113.175,-573.93,0,0
316402,112.856,-573.241,0,0
316663,112.601,-572.602,0,0
316923,112.415,-571.986,0,0
317183,112.165,-571.357,0,0
317444,111.843,-570.738,0,0
317704,111.583,-570.181,0,0
317964,111.435,-569.645,0,0
318225,111.166,-569.153,0,0
318485,111.037,-568.792,0,0
318745,110.852,-568.541,0,0
319006,110.585,-568.279,0,0
319266,110.25,-568.092,0,0
319526,109.941,-567.86,0,0
319787,109.359,-567.732,0,0
320047,108.887,-567.75,0,0
320307,108.252,-567.604,0,0
320567,107.514,-567.528,0,0
320828,106.829,-567.421,0,0
321088,105.857,-567.292,0,0
321348,104.826,-567.153,0,0
321609,103.808,-567.039,0,0
321869,102.714,-566.639,0,0
322129,101.528,-566.31,0,0
322390,100.309,-565.937,0,0
322650,98.9479,-565.419,0,0
322910,97.6061,-564.706,0,0
323171,96.2141,-563.947,0,0
323431,94.8755,-562.968,0,0
323691,93.5572,-561.947,0,0
323952,92.4015,-560.814,0,0
324212,91.2587,-559.643,0,0
324472,90.3078,-558.46,0,0
324733,89.2957,-557.22,0,0
324993,88.3277,-555.82,0,0
325253,87.5028,-554.595,0,0
325514,86.6453,-553.306,0,0
325774,85.9056,-551.857,0,0
326034,85.2645,-550.606,0,0
326295,84.6946,-549.291,0,0
326555,84.0197,-547.976,0,0
326815,83.4211,-546.662,0,0
327076,82.8767,-545.434,0,0
327336,82.2702,-544.068,0,0
327596,81.7876,-542.823,0,0
327857,81.2523,-541.442,0,0
328117,80.737,-540.149,0,0
328377,80.2215,-538.74,0,0
328638,79.7896,-537.3,0,0
328898,79.3838,-535.884,0,0
329158,79.066,-534.312,0,0
329419,78.8604,-532.847,0,0
329679,78.7215,-531.306,0,0
329939,78.553,-529.819,0,0
330200,78.587,-528.388,0,0
330460,78.7096,-526.957,0,0
330720.15,78.8272,-525.576,0,0
330980.475,79.0174,-524.212,0,0
331240.8,79.3887,-522.929,0,0
331501.125,79.759,-521.761,0,0
331761.45,80.245,-520.767,0,0
332021.775,80.6343,-519.922,0,0
332282.1,81.0627,-519.13,0,0
332542.425,81.3176,-518.533,0,0
332802.75,81.5172,-517.939,0,0
333063.075,81.6737,-517.422,0,0
333323.4,81.6797,-516.891,0,0
333583.725,81.6343,-516.405,0,0
333844.05,81.5668,-515.855,0,0
334104.375,81.367,-515.319,0,0
334364.7,81.1808,-514.757,0,0
334625.025,80.8784,-514.11,0,0
334885.35,80.6052,-513.511,0,0
335145.675,80.2515,-512.8,0,0
335406.0,79.9583,-512.111,0,0
335666.325,79.5818,-511.339,0,0
335926.65,79.225,-510.557,0,0
336186.975,78.8483,-509.741,0,0
336447.3,78.4819,-508.884,0,0
336707.625,78.1,-507.989,0,0
336967.95,77.7462,-506.98,0,0
337228.275,77.3852,-506.044,0,0
337488.6,77.0217,-505.049,0,0
337748.925,76.7012,-504.014,0,0
338009.25,76.3432,-502.902,0,0
338269.575,76.008,-501.795,0,0
338529.9,75.7074,-500.607,0,0
338790.225,75.5173,-499.236,0,0
339050.55,75.3708,-497.964,0,0
339310.875,75.2204,-496.628,0,0
339571.2,75.2132,-495.285,0,0
339831.525,75.3036,-493.893,0,0
340091.85,75.4582,-492.465,0,0
340352.175,75.6975,-491.086,0,0
340612.5,75.9817,-489.781,0,0
340872.825,76.3413,-488.449,0,0
341133.15,76.8812,-487.186,0,0
341393.475,77.3889,-485.942,0,0
341653.8,78.0185,-484.774,0,0
341914.125,78.7119,-483.594,0,0
342174.45,79.474,-482.595,0,0
342434.775,80.334,-481.686,0,0
342695.1,81.1472,-480.92,0,0
342955.425,82.0255,-480.157,0,0
343215.75,82.8167,-479.574,0,0
343476.075,83.7186,-479.084,0,0
343736.4,84.4506,-478.628,0,0
343996.725,85.2213,-478.336,0,0
344257.05,85.9639,-478.115,0,0
344517.375,86.6405,-477.9,0,0
344777.7,87.2071,-477.741,0,0
345038.025,87.7337,-477.701,0,0
345298.35,88.218,-477.65,0,0
345558.675,88.6405,-477.643,0,0
345819.0,88.9768,-477.682,0,0
346079.325,89.2553,-477.788,0,0
346339.65,89.443,-477.832,0,0
346599.975,89.5638,-477.906,0,0
346860,89.517,-477.956,0,0
347121,89.5196,-478.03,0,0
347381,89.4447,-478.008,0,0
347641,89.3212,-478.012,0,0
347902,89.1555,-477.907,0,0
348162,88.9919,-477.831,0,0
348422,88.7482,-477.704,0,0
348683,88.5731,-477.534,0,0
348943,88.3233,-477.401,0,0
349203,88.0605,-477.268,0,0
349464,87.7976,-477.097,0,0
349724,87.4779,-476.857,0,0
349984,87.103,-476.699,0,0
350245,86.6767,-476.48,0,0
350505,86.2341,-476.163,0,0
350765,85.6872,-475.831,0,0
351025,85.1633,-475.376,0,0
351286,84.7225,-474.811,0,0
351546,84.2423,-474.257,0,0
351806,83.7971,-473.59,0,0
352067,83.4925,-472.91,0,0
352327,83.1824,-472.194,0,0
352587,82.9295,-471.53,0,0
352848,82.7339,-470.815,0,0
353108,82.6329,-470.104,0,0
353368,82.4401,-469.427,0,0
353629,82.3985,-468.89,0,0
353889,82.2311,-468.277,0,0
354149,82.0642,-467.678,0,0
354410,81.8792,-467.083,0,0
354670,81.7124,-466.487,0,0
354930,81.5429,-465.873,0,0
355191,81.3558,-465.219,0,0
355451,81.2321,-464.562,0,0
355711,81.1958,-463.905,0,0
355972,81.0231,-463.214,0,0
356232,80.9671,-462.511,0,0
356492,80.9329,-461.871,0,0
356753,80.8749,-461.285,0,0
357013,80.8911,-460.688,0,0
357273,80.9252,-460.104,0,0
357534,80.8851,-459.573,0,0
357794,80.8515,-459.071,0,0
358054,80.7825,-458.57,0,0
358315,80.7204,-458.107,0,0
358575,80.6072,-457.565,0,0
358835,80.4368,-457.155,0,0
359096,80.2372,-456.615,0,0
359356,80.0142,-456.058,0,0
359616,79.7892,-455.501,0,0
359877,79.4602,-454.923,0,0
360137,79.2452,-454.171,0,0
360397,78.9583,-453.455,0,0
360658,78.765,-452.611,0,0
360918,78.6238,-451.856,0,0
361178,78.5224,-450.971,0,0
361438,78.5389,-450.193,0,0
361699,78.5871,-449.412,0,0
361959,78.5964,-448.648,0,0
362219,78.5926,-447.966,0,0
362480,78.6476,-447.259,0,0
362740.1,78.6069,-446.502,0,0
363000.425,78.6241,-445.793,0,0
363260.75,78.658,-445.054,0,0
363521.075,78.5968,-444.375,0,0
363781.4,78.6848,-443.587,0,0
364041.725,78.7172,-442.888,0,0
364302.05,78.7007,-442.124,0,0
364562.375,78.6882,-441.445,0,0
364822.7,78.6786,-440.652,0,0
365083.025,78.7235,-439.871,0,0
365343.35,78.7342,-439.055,0,0
365603.675,78.7464,-438.225,0,0
365864.0,78.8732,-437.345,0,0
366124.325,78.9527,-436.425,0,0
366384.65,79.0468,-435.592,0,0
366644.975,79.2555,-434.676,0,0
366905.3,79.3963,-433.702,0,0
367165.625,79.6126,-432.773,0,0
367425.95,79.8688,-431.782,0,0
367686.275,80.1918,-430.781,0,0
367946.6,80.5533,-429.779,0,0
368206.925,81.0476,-428.789,0,0
368467.25,81.5982,-427.864,0,0
368727.575,82.1242,-426.951,0,0
368987.9,82.7067,-425.976,0,0
369248.225,83.3669,-425.091,0,0
369508.55,84.0665,-424.194,0,0
369768.875,84.8342,-423.304,0,0
370029.2,85.7085,-422.474,0,0
370289.525,86.6155,-421.682,0,0
370549.85,87.6643,-420.982,0,0
370810.175,88.7445,-420.272,0,0
371070.5,89.9493,-419.737,0,0
371330.825,91.2008,-419.313,0,0
371591.15,92.5021,-419.075,0,0
371851.475,93.7447,-419,0,0
372111.8,95.0205,-419.07,0,0
372372.125,96.1807,-419.224,0,0
372632.45,97.2999,-419.536,0,0
372892.775,98.2982,-419.988,0,0
373153.1,99.2309,-420.523,0,0
373413.425,100.024,-421.139,0,0
373673.75,100.683,-421.738,0,0
373934.075,101.276,-422.363,0,0
374194.4,101.733,-423.119,0,0
374454.725,101.979,-423.846,0,0
374715.05,102.205,-424.463,0,0
374975.375,102.307,-425.028,0,0
375235.7,102.365,-425.579,0,0
375496.025,102.386,-426.136,0,0
375756.35,102.374,-426.636,0,0
376016.675,102.246,-427.063,0,0
376277.0,102.051,-427.474,0,0
376537.325,101.847,-427.798,0,0
376797.65,101.572,-428.075,0,0
377057.975,101.378,-428.191,0,0
377318.3,101.205,-428.272,0,0
377578.625,101.062,-428.311,0,0
377838.95,100.989,-428.404,0,0
378099.275,100.922,-428.54,0,0
378359.6,100.86,-428.644,0,0
378619.925,100.861,-428.838,0,0
378880,100.804,-429.016,0,0
379141,100.733,-429.262,0,0
379401,100.58,-429.476,0,0
379661,100.39,-429.733,0,0
379922,100.087,-430.028,0,0
380182,99.7873,-430.158,0,0
380442,99.4007,-430.237,0,0
380703,99.1592,-430.254,0,0
380963,98.782,-430.32,0,0
381223,98.5163,-430.184,0,0
381483,98.2923,-430.076,0,0
381744,98.1742,-430.013,0,0
382004,98.1396,-429.907,0,0
382264,98.0773,-429.909,0,0
382525,98.0291,-429.903,0,0
382785,97.9995,-430.064,0,0
383045,97.9874,-430.22,0,0
383306,97.9633,-430.418,0,0
383566,97.8953,-430.725,0,0
383826,97.7402,-431.06,0,0
384087,97.5505,-431.476,0,0
384347,97.2917,-431.921,0,0
384607,96.9621,-432.365,0,0
384868,96.5045,-432.868,0,0
385128,95.8701,-433.349,0,0
385388,95.2306,-433.814,0,0
385649,94.4444,-434.223,0,0
385909,93.5603,-434.549,0,0
386169,92.5984,-434.825,0,0
386430,91.5126,-434.925,0,0
386690,90.3778,-434.865,0,0
386950,89.3135,-434.742,0,0
387211,88.1949,-434.38,0,0
387471,87.1107,-433.985,0,0
387731,86.15,-433.421,0,0
387992,85.2735,-432.779,0,0
388252,84.5189,-432.105,0,0
388512,83.8016,-431.275,0,0
388773,83.2476,-430.469,0,0
389033,82.8668,-429.677,0,0
389293,82.5372,-428.918,0,0
389554,82.32,-428.261,0,0
389814,82.1623,-427.629,0,0
390074,82.1126,-427.09,0,0
390335,82.0671,-426.643,0,0
390595,81.9642,-426.394,0,0
390855,81.8603,-426.188,0,0
391116,81.6776,-426.039,0,0
391376,81.4797,-425.929,0,0
391636,81.1485,-425.852,0,0
391896,80.7526,-425.745,0,0
392157,80.3679,-425.693,0,0
392417,79.9045,-425.613,0,0
392677,79.38,-425.479,0,0
392938,78.7888,-425.392,0,0
393198,78.1974,-425.244,0,0
393458,77.5218,-425.07,0,0
393719,76.7979,-424.879,0,0
393979,76.035,-424.595,0,0
394239,75.2356,-424.255,0,0
394500,74.467,-423.87,0,0
394760.05,73.6956,-423.472,0,0
395020.375,72.9431,-423.009,0,0
395280.7,72.1365,-422.488,0,0
395541.025,71.2969,-421.946,0,0
395801.35,70.5212,-421.325,0,0
396061.675,69.7749,-420.662,0,0
396322.0,68.9857,-419.982,0,0
396582.325,68.2683,-419.237,0,0
396842.65,67.5137,-418.42,0,0
397102.975,66.8603,-417.565,0,0
397363.3,66.2256,-416.751,0,0
397623.625,65.648,-415.882,0,0
397883.95,64.9916,-414.883,0,0
398144.275,64.3712,-413.987,0,0
398404.6,63.8653,-412.977,0,0
398664.925,63.3938,-411.977,0,0
398925.25,62.9247,-410.912,0,0
399185.575,62.48,-409.885,0,0
399445.9,62.0879,-408.79,0,0
399706.225,61.7385,-407.673,0,0
399966.55,61.5347,-406.619,0,0
400006.6,61.4652,-406.397,0,0