File: Accelerated corrosion test data/2025-09-30_08-18-27/sample_8.csv
Frequency (Hz),Impedance (ohms),Phase (Radians),Temperature (C),Humidity (%)
10000.0,319.101,-10923.2,0,0
10260.325,310.495,-10649.8,0,0
10520.65,303.179,-10388.9,0,0
10780.975,295.432,-10142,0,0
11041.3,288.716,-9905.34,0,0
11301.625,282.499,-9680.98,0,0
11561.95,276.134,-9464.98,0,0
11822.275,270.372,-9259.52,0,0
12082.6,266.997,-9060.04,0,0
12342.925,264.962,-8874.09,0,0
12603.25,258.812,-8694.17,0,0
12863.575,254.711,-8522.72,0,0
13123.9,247.368,-8359.94,0,0
13384.225,240.941,-8198.22,0,0
13644.55,237.392,-8042.39,0,0
13904.875,230.662,-7896.71,0,0
14165.2,225.867,-7752.63,0,0
14425.525,221.284,-7612.88,0,0
14685.8,216.854,-7479.95,0,0
14946.175,213.332,-7350.76,0,0
15206.5,209.884,-7225.38,0,0
15466.825,206.354,-7105.58,0,0
15727.15,203.002,-6989.16,0,0
15987.5,199.551,-6876.47,0,0
16247.8,196.245,-6767.44,0,0
16508.125,193.439,-6661.7,0,0
16768.45,190.214,-6559.36,0,0
17028.775,187.698,-6460.03,0,0
17289.1,184.869,-6363.04,0,0
17549.425,181.765,-6269.38,0,0
17809.75,180.219,-6177.92,0,0
18070.075,178.023,-6089.87,0,0
18330.4,174.48,-6003.5,0,0
18590.725,172.316,-5918.9,0,0
18851.05,172.339,-5836.09,0,0
19111.375,170.123,-5757.62,0,0
19371.7,172.729,-5680.12,0,0
19632.025,169.315,-5609.25,0,0
19892.35,166.924,-5539.16,0,0
20152.675,163.217,-5466.67,0,0
20413.0,162.261,-5396.58,0,0
20673.3,161.412,-5329.86,0,0
20933.65,160.509,-5265.88,0,0
21193.975,157.929,-5203.03,0,0
21454.3,155.045,-5138.91,0,0
21714.625,153.425,-5077.16,0,0
21974.9,153.28,-5017.45,0,0
22235.275,153.131,-4959.59,0,0
22495.6,151.385,-4903.52,0,0
22755.925,149.66,-4850.05,0,0
23016.25,146.35,-4796.15,0,0
23276.6,144.128,-4743.4,0,0
23536.9,142.226,-4690.89,0,0
23797.225,140.417,-4639.52,0,0
24057.55,137.873,-4589.18,0,0
24317.875,136.553,-4540.48,0,0
24578.2,134.811,-4492.11,0,0
24838.525,133.212,-4444.03,0,0
25098.85,131.966,-4398.04,0,0
25359.175,130.062,-4353.03,0,0
25619.5,129.508,-4308.74,0,0
25879.8,127.996,-4264.52,0,0
26140.1,127.299,-4222.95,0,0
26400.5,125.996,-4180.94,0,0
26660.8,124.367,-4139.89,0,0
26921.1,124.108,-4099.01,0,0
27181.4,123.854,-4059.37,0,0
27441.8,122.628,-4021.13,0,0
27702.1,122.121,-3983.61,0,0
27962.4,120.394,-3946.86,0,0
28222.7,120.424,-3909.01,0,0
28483.1,119.585,-3873.58,0,0
28743.4,119.163,-3838.16,0,0
29003.7,119.092,-3804.26,0,0
29264,118.094,-3769.41,0,0
29524.4,117.507,-3736.56,0,0
29784.7,117.534,-3703.45,0,0
30045,117.463,-3672.12,0,0
30305.3,117.22,-3640.75,0,0
30565.7,116.088,-3610.47,0,0
30826,115.212,-3580.08,0,0
31086.3,114.522,-3550.39,0,0
31346.6,113.705,-3520.42,0,0
31607,112.972,-3491.23,0,0
31867.3,112.56,-3462.49,0,0
32127.6,112.304,-3434.59,0,0
32387.9,111.58,-3406.45,0,0
32648.3,111.456,-3378.92,0,0
32908.6,111.41,-3351.39,0,0
33168.9,111.436,-3325.51,0,0
33429.2,112.552,-3299.56,0,0
33689.6,113.609,-3274.62,0,0
33949.9,113.229,-3251.11,0,0
34210.2,112.505,-3227.26,0,0
34470.5,111.8,-3203.79,0,0
34730.9,111.309,-3179.94,0,0
34991.2,111.434,-3157.01,0,0
35251.5,111.047,-3134.92,0,0
35511.8,110.173,-3113.19,0,0
35772.2,109.164,-3091.85,0,0
36032.5,107.997,-3070.18,0,0
36292.8,106.656,-3049.22,0,0
36553.1,105.096,-3027.83,0,0
36813.5,103.845,-3006.8,0,0
37073.8,102.715,-2985.93,0,0
37334.1,101.743,-2965.44,0,0
37594.4,100.074,-2945.23,0,0
37854.8,98.6351,-2925.08,0,0
38115.1,97.5575,-2905.37,0,0
38375.4,96.1727,-2885.54,0,0
38635.7,94.6039,-2865.81,0,0
38896.1,93.4059,-2846.12,0,0
39156.4,92.1125,-2827.14,0,0
39416.7,90.8277,-2807.62,0,0
39677,89.8249,-2788.78,0,0
39937.4,88.9502,-2770.13,0,0
40197.7,87.6895,-2751,0,0
40458,87.5466,-2732.47,0,0
40718.3,87.3668,-2714.31,0,0
40978.7,86.9508,-2697.05,0,0
41239,86.1773,-2679.76,0,0
41499.3,85.751,-2662.22,0,0
41759.6,85.1214,-2645.13,0,0
42020,84.5938,-2628.56,0,0
42280.275,84.0364,-2611.83,0,0
42540.6,83.5631,-2595.2,0,0
42800.925,83.4261,-2578.7,0,0
43061.25,83.1925,-2562.6,0,0
43321.575,83.2759,-2546.66,0,0
43581.9,83.3848,-2531.46,0,0
43842.225,82.9392,-2516.68,0,0
44102.55,82.5411,-2502.04,0,0
44362.875,81.6057,-2487.25,0,0
44623.2,80.8913,-2472.51,0,0
44883.525,80.1756,-2457.99,0,0
45143.85,79.6559,-2443.23,0,0
45404.175,79.1311,-2428.8,0,0
45664.5,78.571,-2414.57,0,0
45924.825,78.0151,-2400.48,0,0
46185.15,77.4861,-2386.35,0,0
46445.475,76.8369,-2372.65,0,0
46705.8,76.607,-2358.93,0,0
46966.125,76.153,-2345.26,0,0
47226.45,75.9807,-2331.9,0,0
47486.775,75.6426,-2318.57,0,0
47747.1,75.4291,-2305.46,0,0
48007.425,75.0718,-2292.77,0,0
48267.75,74.8261,-2280.05,0,0
48528.075,74.3646,-2267.4,0,0
48788.4,74.1219,-2255.02,0,0
49048.725,73.4876,-2242.85,0,0
49309.05,73.0658,-2230.43,0,0
49569.375,72.7222,-2218.07,0,0
49829.7,72.388,-2206.02,0,0
50090.025,71.8914,-2194.06,0,0
50350.35,71.5273,-2182.19,0,0
50610.675,71.3495,-2170.34,0,0
50871.0,71.1684,-2158.62,0,0
51131.325,70.9079,-2147.16,0,0
51391.65,70.6859,-2135.78,0,0
51651.975,70.6084,-2124.41,0,0
51912.3,70.5544,-2113.27,0,0
52172.625,70.4818,-2102.4,0,0
52432.95,70.3561,-2091.63,0,0
52693.275,70.0603,-2080.77,0,0
52953.6,70.0909,-2070.16,0,0
53213.925,70.1173,-2059.68,0,0
53474.25,70.0423,-2049.62,0,0
53734.575,70.0936,-2039.56,0,0
53994.9,69.6791,-2029.84,0,0
54255.225,69.1699,-2020.14,0,0
54515.55,68.2033,-2010.35,0,0
54775.875,67.6759,-2000.03,0,0
55036.2,67.3546,-1990.49,0,0
55296.525,66.6577,-1980.82,0,0
55556.85,65.9374,-1970.86,0,0
55817.175,65.4948,-1960.86,0,0
56077.5,64.9152,-1951.23,0,0
56337.825,64.4887,-1941.47,0,0
56598.15,64.0346,-1931.64,0,0
56858.475,63.7132,-1922.06,0,0
57118.8,63.5146,-1912.49,0,0
57379.125,63.2824,-1903.2,0,0
57639.45,63.1806,-1893.8,0,0
57899.775,62.9553,-1884.65,0,0
58160.1,62.8058,-1875.39,0,0
58420.4,62.7598,-1866.33,0,0
58680.7,62.7953,-1857.42,0,0
58941.1,62.6731,-1848.51,0,0
59201.4,62.8873,-1839.94,0,0
59461.7,62.8127,-1831.52,0,0
59722,62.6173,-1823.29,0,0
59982.4,62.1362,-1814.77,0,0
60242.7,61.8419,-1806.4,0,0
60503,61.4578,-1797.89,0,0
60763.3,61.1986,-1789.38,0,0
61023.7,61.189,-1780.92,0,0
61284,60.981,-1772.59,0,0
61544.3,61.0413,-1764.37,0,0
61804.6,61.1735,-1756.29,0,0
62065,61.1182,-1748.35,0,0
62325.3,60.9562,-1740.32,0,0
62585.6,60.9135,-1732.43,0,0
62845.9,60.8906,-1724.37,0,0
63106.3,61.0052,-1716.57,0,0
63366.6,61.1853,-1708.78,0,0
63626.9,61.5588,-1701.15,0,0
63887.2,61.5187,-1693.66,0,0
64147.6,61.7218,-1686.25,0,0
64407.9,62.1986,-1678.75,0,0
64668.2,62.7493,-1671.85,0,0
64928.5,62.858,-1665.1,0,0
65188.9,62.8062,-1658.52,0,0
65449.2,62.6377,-1651.56,0,0
65709.5,62.543,-1645.06,0,0
65969.8,62.3088,-1638.32,0,0
66230.2,61.9682,-1631.68,0,0
66490.5,61.2788,-1625.15,0,0
66750.8,60.6657,-1618.31,0,0
67011.1,60.0018,-1611.26,0,0
67271.5,59.6841,-1604.28,0,0
67531.8,59.3757,-1597.16,0,0
67792.1,59.384,-1590.4,0,0
68052.4,59.1591,-1583.64,0,0
68312.8,58.9117,-1576.85,0,0
68573.1,58.9015,-1570.17,0,0
68833.4,58.7066,-1563.52,0,0
69093.7,58.5528,-1556.89,0,0
69354.1,58.3597,-1550.26,0,0
69614.4,58.1792,-1543.56,0,0
69874.7,58.2964,-1536.96,0,0
70135,58.3207,-1530.47,0,0
70395.4,58.4291,-1524.03,0,0
70655.7,58.496,-1517.72,0,0
70916,58.6895,-1511.46,0,0
71176.3,58.7794,-1505.47,0,0
71436.7,58.881,-1499.32,0,0
71697,59.011,-1493.24,0,0
71957.3,59.2236,-1487.26,0,0
72217.6,59.2078,-1481.48,0,0
72478,59.3199,-1475.67,0,0
72738.3,59.2627,-1470.06,0,0
72998.6,59.1839,-1464.43,0,0
73258.9,58.8564,-1458.72,0,0
73519.3,58.5691,-1452.87,0,0
73779.6,58.4661,-1447.01,0,0
74039.9,58.33,-1441.12,0,0
74300.225,58.5194,-1435.42,0,0
74560.55,58.3201,-1429.95,0,0
74820.875,58.2313,-1424.36,0,0
75081.2,58.0242,-1418.68,0,0
75341.525,57.9509,-1413.09,0,0
75601.85,57.8025,-1407.46,0,0
75862.175,57.7812,-1401.73,0,0
76122.5,57.8455,-1396.18,0,0
76382.825,57.8315,-1390.68,0,0
76643.15,57.8946,-1385.27,0,0
76903.475,58.0167,-1379.94,0,0
77163.8,57.9398,-1374.67,0,0
77424.125,57.8891,-1369.37,0,0
77684.45,57.8308,-1364.05,0,0
77944.775,57.8325,-1358.8,0,0
78205.1,57.804,-1353.63,0,0
78465.425,57.6762,-1348.46,0,0
78725.75,57.5858,-1343.28,0,0
78986.075,57.4027,-1337.98,0,0
79246.4,57.407,-1332.69,0,0
79506.725,57.3911,-1327.62,0,0
79767.05,57.255,-1322.39,0,0
80027.375,57.2946,-1317.12,0,0
80287.7,57.3661,-1311.97,0,0
80548.025,57.4705,-1306.83,0,0
80808.35,57.6191,-1301.78,0,0
81068.675,57.6353,-1296.81,0,0
81329.0,57.731,-1291.81,0,0
81589.325,57.7609,-1286.76,0,0
81849.65,57.8904,-1281.75,0,0
82109.975,57.9494,-1276.76,0,0
82370.3,58.0389,-1271.68,0,0
82630.625,58.221,-1266.68,0,0
82890.95,58.5861,-1261.67,0,0
83151.275,59.0645,-1256.8,0,0
83411.6,59.3804,-1252.2,0,0
83671.925,59.5779,-1247.35,0,0
83932.25,59.9408,-1242.47,0,0
84192.575,60.4635,-1237.85,0,0
84452.9,60.9402,-1233.38,0,0
84713.225,61.3393,-1229,0,0
84973.55,61.6599,-1224.55,0,0
85233.875,61.966,-1220.15,0,0
85494.2,62.3631,-1215.9,0,0
85754.525,62.6716,-1211.86,0,0
86014.85,62.5962,-1207.73,0,0
86275.175,62.5645,-1203.47,0,0
86535.5,62.5621,-1199.08,0,0
86795.825,62.3999,-1194.56,0,0
87056.15,62.5937,-1189.94,0,0
87316.475,62.8168,-1185.53,0,0
87576.8,63.0844,-1181.22,0,0
87837.125,63.1261,-1176.65,0,0
88097.45,63.4014,-1172.15,0,0
88357.775,63.8523,-1167.72,0,0
88618.1,64.3343,-1163.42,0,0
88878.425,64.8617,-1159,0,0
89138.75,65.2899,-1154.98,0,0
89399.075,65.6034,-1150.71,0,0
89659.4,66.0914,-1146.49,0,0
89919.725,66.6257,-1142.32,0,0
90180,67.0522,-1138.17,0,0
90440.4,67.6093,-1134,0,0
90700.7,68.2263,-1129.94,0,0
90961,68.7664,-1125.93,0,0
91221.3,69.3859,-1121.72,0,0
91481.7,70.3798,-1117.54,0,0
91742,71.4514,-1113.88,0,0
92002.3,72.4723,-1110.17,0,0
92262.6,73.4858,-1106.8,0,0
92523,74.4944,-1103.62,0,0
92783.3,75.2846,-1100.7,0,0
93043.6,75.7822,-1097.76,0,0
93303.9,76.1698,-1094.92,0,0
93564.3,76.3183,-1092.12,0,0
93824.6,76.3624,-1089.16,0,0
94084.9,76.2507,-1086.41,0,0
94345.2,75.6961,-1083.43,0,0
94605.6,74.969,-1079.89,0,0
94865.9,74.5591,-1075.8,0,0
95126.2,74.818,-1071.78,0,0
95386.5,75.1552,-1068.02,0,0
95646.9,75.6319,-1064.36,0,0
95907.2,76.2287,-1061.03,0,0
96167.5,76.463,-1057.89,0,0
96427.8,76.4232,-1054.59,0,0
96688.2,76.516,-1051,0,0
96948.5,76.8429,-1047.4,0,0
97208.8,77.3447,-1043.97,0,0
97469.1,77.6862,-1040.61,0,0
97729.5,78.2779,-1037.15,0,0
97989.8,79.0432,-1034.07,0,0
98250.1,79.5181,-1031.3,0,0
98510.4,79.7519,-1028.41,0,0
98770.8,80.0407,-1025.36,0,0
99031.1,80.4819,-1022.46,0,0
99291.4,80.7989,-1019.83,0,0
99551.7,80.7516,-1017.27,0,0
99812.1,80.4846,-1014.44,0,0
100072,80.2327,-1011.27,0,0
100333,80.2966,-1008.03,0,0
100593,80.5339,-1004.92,0,0
100853,80.7932,-1002.01,0,0
101114,80.994,-999.255,0,0
101374,80.9503,-996.527,0,0
101634,80.8453,-993.735,0,0
101895,80.7171,-990.857,0,0
102155,80.5918,-987.971,0,0
102415,80.365,-984.976,0,0
102676,80.2245,-981.976,0,0
102936,80.1245,-978.955,0,0
103196,80.0777,-975.969,0,0
103457,79.9692,-972.962,0,0
103717,79.9697,-969.916,0,0
103977,79.9805,-967.012,0,0
104238,79.8308,-964.177,0,0
104498,79.6415,-961.226,0,0
104758,79.3649,-958.149,0,0
105019,79.278,-955.019,0,0
105279,79.1692,-951.945,0,0
105539,79.129,-948.762,0,0
105800,79.058,-945.609,0,0
106060,79.1838,-942.38,0,0
106320.175,79.3224,-939.273,0,0
106580.5,79.5231,-936.142,0,0
106840.825,79.8347,-933.184,0,0
107101.15,80.0946,-930.229,0,0
107361.475,80.3662,-927.389,0,0
107621.8,80.5566,-924.68,0,0
107882.125,80.7107,-921.915,0,0
108142.45,80.7463,-919.232,0,0
108402.775,80.6331,-916.409,0,0
108663.1,80.7078,-913.437,0,0
108923.425,80.8846,-910.539,0,0
109183.75,80.9664,-907.686,0,0
109444.075,81.2093,-904.819,0,0
109704.4,81.4412,-902.13,0,0
109964.725,81.7408,-899.439,0,0
110225.05,81.9347,-896.812,0,0
110485.375,82.011,-894.211,0,0
110745.7,82.096,-891.625,0,0
111006.025,82.2545,-889.122,0,0
111266.35,82.2504,-886.6,0,0
111526.675,82.0759,-884.017,0,0
111787.0,82.0552,-881.319,0,0
112047.325,82.0256,-878.674,0,0
112307.65,82.0549,-875.969,0,0
112567.975,82.0974,-873.388,0,0
112828.3,82.1495,-870.749,0,0
113088.625,82.0587,-868.144,0,0
113348.95,82.034,-865.634,0,0
113609.275,82.0206,-862.956,0,0
113869.6,82.0045,-860.445,0,0
114129.925,81.9164,-857.867,0,0
114390.25,81.8557,-855.322,0,0
114650.575,81.7136,-852.787,0,0
114910.9,81.5169,-850.071,0,0
115171.225,81.4363,-847.491,0,0
115431.55,81.3789,-844.753,0,0
115691.875,81.3019,-842.152,0,0
115952.2,81.2059,-839.546,0,0
116212.525,81.0904,-836.942,0,0
116472.85,80.9963,-834.32,0,0
116733.175,80.8685,-831.745,0,0
116993.5,80.7169,-829.107,0,0
117253.825,80.5013,-826.46,0,0
117514.15,80.2552,-823.81,0,0
117774.475,80.0845,-821.025,0,0
118034.8,79.9481,-818.231,0,0
118295.125,79.7988,-815.463,0,0
118555.45,79.6558,-812.558,0,0
118815.775,79.7039,-809.618,0,0
119076.1,79.9035,-806.765,0,0
119336.425,80.1681,-804.156,0,0
119596.75,80.203,-801.641,0,0
119857.075,80.1476,-799.072,0,0
120117.4,80.0493,-796.451,0,0
120377.725,79.9868,-793.759,0,0
120638.05,79.9427,-791.144,0,0
120898.375,79.7875,-788.499,0,0
121158.7,79.5601,-785.691,0,0
121419.025,79.5779,-782.732,0,0
121679.35,79.7027,-779.958,0,0
121939.675,79.7588,-777.227,0,0
122200.0,79.8216,-774.487,0,0
122460,79.8899,-771.725,0,0
122721,80.0346,-768.959,0,0
122981,80.2017,-766.294,0,0
123241,80.3243,-763.63,0,0
123502,80.3881,-761.073,0,0
123762,80.3416,-758.42,0,0
124022,80.3082,-755.7,0,0
124283,80.2717,-752.856,0,0
124543,80.3885,-749.953,0,0
124803,80.5719,-747.085,0,0
125064,80.8067,-744.236,0,0
125324,81.177,-741.516,0,0
125584,81.4331,-738.838,0,0
125845,81.7086,-736.22,0,0
126105,81.9282,-733.57,0,0
126365,82.0983,-730.98,0,0
126626,82.3263,-728.261,0,0
126886,82.6285,-725.528,0,0
127146,82.9374,-722.937,0,0
127406,83.2773,-720.357,0,0
127667,83.5765,-717.822,0,0
127927,83.8668,-715.331,0,0
128187,84.0849,-712.788,0,0
128448,84.3741,-710.258,0,0
128708,84.6215,-707.87,0,0
128968,84.7324,-705.473,0,0
129229,84.8003,-702.994,0,0
129489,84.8759,-700.489,0,0
129749,84.9495,-697.978,0,0
130010,84.9263,-695.493,0,0
130270,84.7382,-692.989,0,0
130530,84.592,-690.141,0,0
130791,84.5402,-687.267,0,0
131051,84.4957,-684.321,0,0
131311,84.5027,-681.163,0,0
131572,84.8144,-677.764,0,0
131832,85.6121,-674.607,0,0
132092,86.4811,-671.912,0,0
132353,87.1207,-669.407,0,0
132613,87.5686,-667.062,0,0
132873,87.7286,-664.565,0,0
133134,87.8627,-661.777,0,0
133394,88.2396,-658.769,0,0
133654,88.9442,-655.897,0,0
133915,89.6431,-653.249,0,0
134175,90.281,-650.8,0,0
134435,90.7496,-648.338,0,0
134696,91.1311,-645.815,0,0
134956,91.5643,-643.239,0,0
135216,91.9442,-640.637,0,0
135477,92.3856,-637.973,0,0
135737,92.9236,-635.293,0,0
135997,93.5945,-632.598,0,0
136258,94.3236,-630.166,0,0
136518,94.9403,-627.931,0,0
136778,95.3392,-625.547,0,0
137039,95.8707,-623.104,0,0
137299,96.4446,-620.839,0,0
137559,96.9794,-618.726,0,0
137819,97.2431,-616.796,0,0
138080,97.178,-614.795,0,0
138340.125,96.8658,-612.602,0,0
138600.45,96.3751,-610.054,0,0
138860.775,96.0304,-607.191,0,0
139121.1,95.8799,-604.162,0,0
139381.425,95.8523,-601.079,0,0
139641.75,95.9362,-597.964,0,0
139902.075,96.1345,-594.807,0,0
140162.4,96.4716,-591.656,0,0
140422.725,96.8771,-588.598,0,0
140683.05,97.2297,-585.643,0,0
140943.375,97.4652,-582.634,0,0
141203.7,97.694,-579.502,0,0
141464.025,97.9902,-576.295,0,0
141724.35,98.3365,-572.993,0,0
141984.675,98.7925,-569.665,0,0
142245.0,99.3292,-566.352,0,0
142505.325,99.8394,-563.035,0,0
142765.65,100.385,-559.6,0,0
143025.975,101.096,-556.131,0,0
143286.3,101.831,-552.823,0,0
143546.625,102.501,-549.486,0,0
143806.95,103.13,-546.032,0,0
144067.275,103.803,-542.447,0,0
144327.6,104.55,-538.733,0,0
144587.925,105.422,-534.885,0,0
144848.25,106.493,-530.941,0,0
145108.575,107.789,-526.966,0,0
145368.9,109.257,-523.028,0,0
145629.225,110.891,-519.072,0,0
145889.55,112.801,-515.122,0,0
146149.875,114.997,-511.405,0,0
146410.2,117.293,-507.957,0,0
146670.525,119.56,-504.743,0,0
146930.85,121.806,-501.64,0,0
147191.175,124.059,-498.693,0,0
147451.5,126.249,-495.834,0,0
147711.825,128.571,-493.053,0,0
147972.15,130.878,-490.731,0,0
148232.475,132.571,-488.789,0,0
148492.8,133.553,-486.474,0,0
148753.125,134.362,-483.439,0,0
149013.45,135.427,-479.893,0,0
149273.775,136.714,-475.998,0,0
149534.1,138.505,-471.728,0,0
149794.425,140.857,-467.284,0,0
150054.75,143.817,-463.121,0,0
150315.075,147.042,-459.233,0,0
150575.4,150.627,-455.535,0,0
150835.725,154.473,-452.219,0,0
151096.05,158.228,-449.181,0,0
151356.375,162.148,-445.948,0,0
151616.7,166.764,-442.832,0,0
151877.025,172.072,-440.503,0,0
152137.35,177.514,-439.252,0,0
152397.675,182.475,-439.042,0,0
152658.0,186.726,-439.417,0,0
152918.325,190.289,-440.067,0,0
153178.65,193.074,-440.912,0,0
153438.975,195.168,-441.406,0,0
153699.3,197.06,-441.573,0,0
153959.625,198.738,-441.676,0,0
154219.95,200.123,-441.75,0,0
154480,200.898,-441.425,0,0
154741,201.427,-440.645,0,0
155001,202.155,-439.045,0,0
155261,203.26,-437.013,0,0
155522,204.807,-434.708,0,0
155782,207.032,-432.34,0,0
156042,209.746,-430.113,0,0
156303,213.425,-428.396,0,0
156563,217.539,-428.079,0,0
156823,220.86,-429.282,0,0
157084,222.801,-431.106,0,0
157344,223.126,-433.044,0,0
157604,221.547,-433.875,0,0
157864,219.801,-432.398,0,0
158125,218.787,-429.934,0,0
158385,218.55,-426.627,0,0
158645,219.027,-423.246,0,0
158906,219.801,-419.384,0,0
159166,221.629,-414.92,0,0
159426,225.149,-410.476,0,0
159687,230.031,-407.295,0,0
159947,235.373,-405.733,0,0
160207,240.132,-405.943,0,0
160468,243.638,-407.081,0,0
160728,245.897,-408.345,0,0
160988,246.863,-409.747,0,0
161249,246.211,-409.831,0,0
161509,245.798,-408.107,0,0
161769,246.356,-405.392,0,0
162030,248.021,-402.37,0,0
162290,250.444,-399.627,0,0
162550,253.495,-397.207,0,0
162811,256.976,-395.284,0,0
163071,260.623,-394.23,0,0
163331,264,-393.352,0,0
163592,267.797,-392.798,0,0
163852,271.45,-392.938,0,0
164112,274.803,-393.644,0,0
164373,277.816,-394.989,0,0
164633,279.915,-396.718,0,0
164893,281.169,-398.23,0,0
165154,282.169,-399.039,0,0
165414,283.218,-399.873,0,0
165674,284.011,-400.574,0,0
165935,285.078,-401.295,0,0
166195,286.079,-402.405,0,0
166455,286.56,-404.121,0,0
166716,285.876,-406.075,0,0
166976,284.116,-407.478,0,0
167236,281.757,-407.851,0,0
167497,279.249,-407.265,0,0
167757,277.047,-405.92,0,0
168017,274.956,-404.244,0,0
168277,272.773,-402.109,0,0
168538,270.818,-399.374,0,0
168798,269.182,-396.201,0,0
169058,267.656,-392.669,0,0
169319,266.571,-388.443,0,0
169579,266.082,-384.125,0,0
169839,265.96,-379.674,0,0
170100,266.403,-375.162,0,0
170360.075,267.147,-370.883,0,0
170620.4,267.891,-366.619,0,0
170880.725,268.839,-362.209,0,0
171141.05,270.009,-357.862,0,0
171401.375,271.294,-353.474,0,0
171661.7,272.647,-348.972,0,0
171922.025,274.047,-344.235,0,0
172182.35,275.854,-339.042,0,0
172442.675,278.198,-333.702,0,0
172703.0,281.154,-328.395,0,0
172963.325,284.708,-323.207,0,0
173223.65,288.72,-318.573,0,0
173483.975,292.868,-314.294,0,0
173744.3,297.11,-310.144,0,0
174004.625,301.52,-306.283,0,0
174264.95,306.031,-302.621,0,0
174525.275,310.782,-299.133,0,0
174785.6,315.868,-296.118,0,0
175045.925,320.593,-293.755,0,0
175306.25,324.859,-291.483,0,0
175566.575,329.204,-289.098,0,0
175826.9,333.308,-286.975,0,0
176087.225,336.934,-284.642,0,0
176347.55,340.345,-281.996,0,0
176607.875,343.709,-278.772,0,0
176868.2,347.78,-274.947,0,0
177128.525,352.377,-271.084,0,0
177388.85,357.678,-267.306,0,0
177649.175,363.491,-264.179,0,0
177909.5,369.175,-261.558,0,0
178169.825,374.739,-258.895,0,0
178430.15,380.549,-256.257,0,0
178690.475,386.517,-253.805,0,0
178950.8,392.64,-251.352,0,0
179211.125,398.907,-249.212,0,0
179471.45,405.357,-247.123,0,0
179731.775,412.133,-245.212,0,0
179992.1,419.189,-243.887,0,0
180252.425,426.128,-243.14,0,0
180512.75,432.722,-242.629,0,0
180773.075,438.95,-242.044,0,0
181033.4,445.293,-241.26,0,0
181293.725,452.107,-240.723,0,0
181554.05,458.773,-240.555,0,0
181814.375,465.378,-240.391,0,0
182074.7,472.09,-240.327,0,0
182335.025,479.087,-240.765,0,0
182595.35,485.599,-241.784,0,0
182855.675,491.579,-242.574,0,0
183116.0,497.776,-243.13,0,0
183376.325,504.133,-244.111,0,0
183636.65,510.027,-245.562,0,0
183896.975,515.21,-246.685,0,0
184157.3,520.339,-247.111,0,0
184417.625,525.788,-247.112,0,0
184677.95,531.811,-247.02,0,0
184938.275,538.135,-247.422,0,0
185198.6,544.34,-248.176,0,0
185458.925,550.042,-248.909,0,0
185719.25,555.487,-249.084,0,0
185979.575,561.431,-248.415,0,0
186239.9,567.86,-247.552,0,0
186500,575.103,-246.242,0,0
186761,583.693,-245.312,0,0
187021,593.143,-245.522,0,0
187281,602.73,-246.623,0,0
187542,611.687,-248.593,0,0
187802,620.319,-250.502,0,0
188062,629.031,-252.215,0,0
188322,638.283,-253.843,0,0
188583,648.493,-255.782,0,0
188843,659.535,-258.851,0,0
189103,670.294,-263.336,0,0
189364,680.56,-268.607,0,0
189624,690.334,-274.823,0,0
189884,699.06,-281.508,0,0
190145,706.691,-288.005,0,0
190405,714.301,-293.973,0,0
190665,721.675,-299.941,0,0
190926,728.616,-305.74,0,0
191186,735.551,-310.729,0,0
191446,743.314,-315.007,0,0
191707,752.319,-319.164,0,0
191967,762.463,-324.07,0,0
192227,773.717,-330.305,0,0
192488,785.025,-338.516,0,0
192748,795.428,-348.082,0,0
193008,804.624,-358.509,0,0
193269,812.556,-368.627,0,0
193529,820.401,-377.884,0,0
193789,828.801,-386.583,0,0
194050,838.7,-395.498,0,0
194310,849.633,-405.782,0,0
194570,861.314,-417.532,0,0
194831,873.488,-431.794,0,0
195091,884.798,-449.089,0,0
195351,893.61,-468.802,0,0
195612,899.267,-488.954,0,0
195872,903.063,-508.15,0,0
196132,906.3,-527.058,0,0
196393,909.105,-546.392,0,0
196653,911.084,-566.466,0,0
196913,911.962,-587.348,0,0
197174,910.663,-609.05,0,0
197434,907.522,-630.89,0,0
197694,902.179,-652.559,0,0
197955,894.316,-673.562,0,0
198215,884.497,-692.775,0,0
198475,873.546,-710.296,0,0
198735,862.021,-726.006,0,0
198996,850.399,-740.319,0,0
199256,838.729,-753.812,0,0
199516,826.864,-766.435,0,0
199777,814.857,-778.698,0,0
200037,802.177,-790.453,0,0
200297,788.67,-801.739,0,0
200558,773.858,-811.602,0,0
200818,758.751,-819.544,0,0
201078,744.094,-825.81,0,0
201339,729.814,-830.834,0,0
201599,716.532,-834.745,0,0
201859,704.235,-838.569,0,0
202120,691.924,-842.569,0,0
202380.025,679.649,-846.084,0,0
202640.35,667.385,-849.368,0,0
202900.675,654.459,-852.048,0,0
203161.0,641.24,-853.85,0,0
203421.325,628.544,-854.138,0,0
203681.65,616.593,-853.828,0,0
203941.975,604.886,-853.329,0,0
204202.3,593.009,-852.046,0,0
204462.625,581.681,-849.622,0,0
204722.95,570.999,-846.769,0,0
204983.275,560.817,-842.972,0,0
205243.6,551.9,-838.451,0,0
205503.925,544.14,-834.061,0,0
205764.25,537.065,-829.911,0,0
206024.575,530.285,-825.8,0,0
206284.9,523.837,-821.614,0,0
206545.225,517.597,-817.356,0,0
206805.55,511.878,-812.588,0,0
207065.875,506.868,-807.57,0,0
207326.2,502.463,-802.578,0,0
207586.525,498.969,-797.584,0,0
207846.85,496.003,-792.689,0,0
208107.175,493.788,-788.147,0,0
208367.5,492.337,-784.122,0,0
208627.825,490.93,-780.795,0,0
208888.15,489.656,-777.926,0,0
209148.475,488.183,-775.32,0,0
209408.8,486.667,-772.635,0,0
209669.125,485.33,-769.79,0,0
209929.45,484.516,-766.976,0,0
210189.775,484.056,-764.173,0,0
210450.1,484.143,-761.777,0,0
210710.425,484.831,-759.902,0,0
210970.75,485.49,-758.503,0,0
211231.075,486.209,-757.696,0,0
211491.4,486.834,-757.498,0,0
211751.725,487.117,-757.501,0,0
212012.05,487.17,-757.497,0,0
212272.375,487.644,-757.671,0,0
212532.7,487.865,-758.121,0,0
212793.025,488.172,-758.661,0,0
213053.35,488.748,-759.697,0,0
213313.675,489.211,-761.178,0,0
213574.0,489.532,-763.349,0,0
213834.325,489.109,-765.954,0,0
214094.65,488.281,-768.714,0,0
214354.975,486.973,-771.608,0,0
214615.3,485.058,-774.501,0,0
214875.625,482.519,-777.264,0,0
215135.95,479.729,-779.734,0,0
215396.275,476.293,-781.752,0,0
215656.6,472.584,-783.547,0,0
215916.925,468.699,-784.683,0,0
216177.25,464.654,-785.153,0,0
216437.575,460.82,-785.008,0,0
216697.9,457.42,-784.361,0,0
216958.225,454.255,-783.455,0,0
217218.55,451.352,-782.108,0,0
217478.875,449.267,-780.369,0,0
217739.2,447.725,-778.744,0,0
217999.525,446.808,-777.332,0,0
218259.85,446.212,-776.006,0,0
218520,446.046,-774.952,0,0
218780,446.413,-774.282,0,0
219041,447.089,-774.12,0,0
219301,447.951,-774.651,0,0
219561,448.666,-775.753,0,0
219822,449.148,-777.32,0,0
220082,449.243,-779.34,0,0
220342,449.313,-781.196,0,0
220603,449.015,-783.595,0,0
220863,448.561,-785.773,0,0
221123,447.979,-788.105,0,0
221384,447.414,-790.581,0,0
221644,446.697,-793.524,0,0
221904,445.66,-796.617,0,0
222165,444.463,-799.81,0,0
222425,443.01,-803.236,0,0
222685,441.173,-807.001,0,0
222946,438.823,-810.869,0,0
223206,435.93,-814.696,0,0
223466,432.57,-818.344,0,0
223727,428.639,-821.715,0,0
223987,424.415,-824.616,0,0
224247,420.009,-826.938,0,0
224508,415.731,-828.866,0,0
224768,411.656,-830.632,0,0
225028,407.744,-832.38,0,0
225289,403.788,-834.161,0,0
225549,399.682,-835.722,0,0
225809,395.762,-837.289,0,0
226070,391.631,-838.797,0,0
226330,387.511,-840.619,0,0
226590,383.075,-842.468,0,0
226851,378.298,-843.946,0,0
227111,373.225,-845.252,0,0
227371,367.972,-846.095,0,0
227632,362.755,-846.63,0,0
227892,357.636,-846.861,0,0
228152,352.531,-846.814,0,0
228413,347.564,-846.439,0,0
228673,342.801,-845.81,0,0
228933,338.312,-845.391,0,0
229193,333.663,-844.698,0,0
229454,329.382,-843.746,0,0
229714,325.353,-842.798,0,0
229974,321.385,-842.025,0,0
230235,317.471,-841.426,0,0
230495,313.506,-840.734,0,0
230755,309.296,-840.177,0,0
231016,305.104,-839.453,0,0
231276,300.759,-838.599,0,0
231536,296.416,-837.522,0,0
231797,292.226,-836.241,0,0
232057,287.964,-835.043,0,0
232317,283.861,-833.642,0,0
232578,279.693,-832.191,0,0
232838,275.58,-830.674,0,0
233098,271.394,-829.066,0,0
233359,267.194,-827.24,0,0
233619,263.14,-825.167,0,0
233879,259.087,-823.018,0,0
234140,255.084,-820.735,0,0
234400,251.071,-818.212,0,0
234660.3,247.352,-815.555,0,0
234920.625,243.728,-812.654,0,0
235180.95,240.335,-809.672,0,0
235441.275,237.074,-806.623,0,0
235701.6,234.144,-803.457,0,0
235961.925,231.361,-800.284,0,0
236222.25,228.774,-797.11,0,0
236482.575,226.366,-793.951,0,0
236742.9,224.128,-790.757,0,0
237003.225,222.114,-787.579,0,0
237263.55,220.32,-784.486,0,0
237523.875,218.663,-781.475,0,0
237784.2,217.174,-778.574,0,0
238044.525,215.783,-775.772,0,0
238304.85,214.561,-773.089,0,0
238565.175,213.356,-770.615,0,0
238825.5,212.121,-768.241,0,0
239085.825,210.889,-765.792,0,0
239346.15,209.837,-763.528,0,0
239606.475,208.855,-761.272,0,0
239866.8,207.92,-759.233,0,0
240127.125,206.886,-757.243,0,0
240387.45,205.967,-755.594,0,0
240647.775,204.936,-754.047,0,0
240908.1,203.813,-752.492,0,0
241168.425,202.627,-751.072,0,0
241428.75,201.295,-749.886,0,0
241689.075,199.661,-748.63,0,0
241949.4,197.795,-747.239,0,0
242209.725,195.789,-745.725,0,0
242470.05,193.843,-744.037,0,0
242730.375,191.696,-742.176,0,0
242990.7,189.655,-740.074,0,0
243251.025,187.654,-737.817,0,0
243511.35,185.832,-735.459,0,0
243771.675,184.073,-733.05,0,0
244032.0,182.477,-730.531,0,0
244292.325,180.915,-727.937,0,0
244552.65,179.612,-725.363,0,0
244812.975,178.288,-722.949,0,0
245073.3,177.319,-720.572,0,0
245333.625,175.963,-718.341,0,0
245593.95,174.558,-715.939,0,0
245854.275,173.229,-713.464,0,0
246114.6,171.858,-710.857,0,0
246374.925,170.62,-708.029,0,0
246635.25,169.607,-705.158,0,0
246895.575,168.742,-702.117,0,0
247155.9,168.041,-699.232,0,0
247416.225,167.499,-696.337,0,0
247676.55,167.184,-693.529,0,0
247936.875,166.933,-690.861,0,0
248197.2,166.636,-688.29,0,0
248457.525,166.496,-685.798,0,0
248717.85,166.301,-683.491,0,0
248978.175,166.039,-681.079,0,0
249238.5,165.723,-678.576,0,0
249498.825,165.49,-676.085,0,0
249759.15,165.316,-673.573,0,0
250019.475,165.279,-670.878,0,0
250279.8,165.423,-668.339,0,0
250540,165.708,-665.816,0,0
250800,166.055,-663.342,0,0
251061,166.474,-661.015,0,0
251321,166.83,-658.635,0,0
251581,167.391,-656.291,0,0
251842,168.031,-653.916,0,0
252102,168.867,-651.648,0,0
252362,169.766,-649.446,0,0
252623,170.903,-647.385,0,0
252883,172.163,-645.576,0,0
253143,173.439,-644.106,0,0
253404,174.615,-642.875,0,0
253664,175.62,-641.874,0,0
253924,176.391,-640.975,0,0
254185,176.91,-640.067,0,0
254445,177.216,-639.145,0,0
254705,177.526,-638.017,0,0
254966,177.724,-636.776,0,0
255226,177.947,-635.382,0,0
255486,178.192,-633.828,0,0
255747,178.58,-632.217,0,0
256007,179.183,-630.566,0,0
256267,179.872,-628.906,0,0
256528,180.71,-627.287,0,0
256788,181.723,-625.755,0,0
257048,182.866,-624.416,0,0
257309,183.921,-623.278,0,0
257569,184.94,-622.192,0,0
257829,185.982,-621.14,0,0
258090,186.991,-620.012,0,0
258350,188.095,-618.919,0,0
258610,189.341,-617.898,0,0
258871,190.637,-617.002,0,0
259131,192.057,-616.126,0,0
259391,193.344,-615.514,0,0
259651,194.718,-615.023,0,0
259912,196.095,-614.644,0,0
260172,197.317,-614.427,0,0
260432,198.477,-614.335,0,0
260693,199.514,-614.29,0,0
260953,200.44,-614.091,0,0
261213,201.431,-613.961,0,0
261474,202.454,-613.858,0,0
261734,203.436,-613.879,0,0
261994,204.379,-613.958,0,0
262255,205.313,-614.14,0,0
262515,206.156,-614.413,0,0
262775,206.835,-614.82,0,0
263036,207.259,-615.174,0,0
263296,207.56,-615.34,0,0
263556,207.838,-615.337,0,0
263817,208.257,-615.192,0,0
264077,208.726,-615.059,0,0
264337,209.246,-615.058,0,0
264598,209.665,-614.97,0,0
264858,210.072,-614.884,0,0
265118,210.424,-614.665,0,0
265379,210.887,-614.314,0,0
265639,211.454,-613.74,0,0
265899,212.281,-613.167,0,0
266160,213.259,-612.527,0,0
266420,214.531,-611.956,0,0
266680.25,216.087,-611.476,0,0
266940.575,217.868,-611.191,0,0
267200.9,219.85,-611.163,0,0
267461.225,221.915,-611.326,0,0
267721.55,224.159,-611.773,0,0
267981.875,226.504,-612.559,0,0
268242.2,228.926,-613.725,0,0
268502.525,231.225,-615.246,0,0
268762.85,233.413,-617.041,0,0
269023.175,235.596,-619.09,0,0
269283.5,237.69,-621.469,0,0
269543.825,239.694,-624.307,0,0
269804.15,241.381,-627.584,0,0
270064.475,242.75,-631.114,0,0
270324.8,243.669,-634.989,0,0
270585.125,244.043,-638.963,0,0
270845.45,244.111,-642.83,0,0
271105.775,243.958,-646.778,0,0
271366.1,243.595,-650.741,0,0
271626.425,242.872,-654.995,0,0
271886.75,241.709,-659.301,0,0
272147.075,240.006,-663.569,0,0
272407.4,237.988,-667.691,0,0
272667.725,235.543,-671.884,0,0
272928.05,232.611,-675.936,0,0
273188.375,229.162,-679.832,0,0
273448.7,225.212,-683.364,0,0
273709.025,220.768,-686.47,0,0
273969.35,216.058,-689.007,0,0
274229.675,211.212,-690.965,0,0
274490.0,206.232,-692.494,0,0
274750.325,201.262,-693.468,0,0
275010.65,196.415,-694.126,0,0
275270.975,191.605,-694.325,0,0
275531.3,186.865,-694.186,0,0
275791.625,182.228,-693.723,0,0
276051.95,177.817,-692.828,0,0
276312.275,173.494,-691.613,0,0
276572.6,169.512,-690.035,0,0
276832.925,165.87,-688.288,0,0
277093.25,162.551,-686.437,0,0
277353.575,159.587,-684.536,0,0
277613.9,156.851,-682.712,0,0
277874.225,154.257,-680.939,0,0
278134.55,151.798,-679.171,0,0
278394.875,149.405,-677.432,0,0
278655.2,147.053,-675.668,0,0
278915.525,144.814,-673.875,0,0
279175.85,142.607,-671.997,0,0
279436.175,140.461,-670.057,0,0
279696.5,138.456,-668.09,0,0
279956.825,136.553,-666.049,0,0
280217.15,134.811,-663.839,0,0
280477.475,133.287,-661.633,0,0
280737.8,131.914,-659.373,0,0
280998.125,130.805,-657.138,0,0
281258.45,129.907,-654.994,0,0
281518.775,129.206,-653.111,0,0
281779.1,128.501,-651.417,0,0
282039.425,127.722,-649.779,0,0
282299.75,126.935,-648.224,0,0
282560,126.133,-646.583,0,0
282820,125.399,-644.95,0,0
283081,124.752,-643.313,0,0
283341,124.175,-641.713,0,0
283601,123.699,-640.186,0,0
283862,123.23,-638.699,0,0
284122,122.733,-637.183,0,0
284382,122.361,-635.682,0,0
284643,122.147,-634.164,0,0
284903,121.997,-632.731,0,0
285163,122.051,-631.398,0,0
285424,122.047,-630.193,0,0
285684,122.13,-629.025,0,0
285944,122.29,-627.927,0,0
286205,122.647,-626.983,0,0
286465,123.06,-626.211,0,0
286725,123.491,-625.701,0,0
286986,123.839,-625.429,0,0
287246,124.242,-625.325,0,0
287506,124.513,-625.511,0,0
287767,124.595,-625.944,0,0
288027,124.367,-626.527,0,0
288287,123.87,-627.208,0,0
288548,123.078,-627.827,0,0
288808,122.067,-628.39,0,0
289068,120.856,-628.832,0,0
289329,119.507,-629.121,0,0
289589,118.029,-629.305,0,0
289849,116.447,-629.345,0,0
290109,114.848,-629.217,0,0
290370,113.189,-628.969,0,0
290630,111.555,-628.593,0,0
290890,109.901,-628.068,0,0
291151,108.329,-627.503,0,0
291411,106.782,-626.821,0,0
291671,105.311,-626.161,0,0
291932,103.855,-625.461,0,0
292192,102.406,-624.785,0,0
292452,100.895,-624.092,0,0
292713,99.3197,-623.348,0,0
292973,97.7003,-622.55,0,0
293233,96.0512,-621.639,0,0
293494,94.4316,-620.607,0,0
293754,92.7565,-619.539,0,0
294014,91.1109,-618.316,0,0
294275,89.5324,-617.003,0,0
294535,87.9805,-615.567,0,0
294795,86.5582,-614.084,0,0
295056,85.242,-612.456,0,0
295316,83.9837,-610.877,0,0
295576,82.8754,-609.272,0,0
295837,81.8547,-607.662,0,0
296097,80.8799,-606.099,0,0
296357,79.9578,-604.537,0,0
296618,79.0286,-602.999,0,0
296878,78.1321,-601.435,0,0
297138,77.2892,-599.856,0,0
297399,76.4455,-598.266,0,0
297659,75.6806,-596.661,0,0
297919,74.9457,-595.038,0,0
298180,74.2717,-593.42,0,0
298440,73.6476,-591.777,0,0
298700.2,73.0761,-590.175,0,0
298960.525,72.5373,-588.54,0,0
299220.85,72.0554,-586.962,0,0
299481.175,71.618,-585.34,0,0
299741.5,71.2199,-583.738,0,0
300001.825,70.8825,-582.132,0,0
300262.15,70.5907,-580.58,0,0
300522.475,70.3389,-579.048,0,0
300782.8,70.1386,-577.537,0,0
301043.125,69.9378,-576.081,0,0
301303.45,69.7542,-574.603,0,0
301563.775,69.6007,-573.135,0,0
301824.1,69.4857,-571.677,0,0
302084.425,69.437,-570.215,0,0
302344.75,69.4281,-568.761,0,0
302605.075,69.4767,-567.342,0,0
302865.4,69.5991,-565.965,0,0
303125.725,69.7714,-564.643,0,0
303386.05,70.0056,-563.383,0,0
303646.375,70.2584,-562.243,0,0
303906.7,70.5119,-561.132,0,0
304167.025,70.7589,-560.127,0,0
304427.35,71.0306,-559.144,0,0
304687.675,71.246,-558.239,0,0
304948.0,71.4355,-557.419,0,0
305208.325,71.5846,-556.617,0,0
305468.65,71.6496,-555.832,0,0
305728.975,71.7452,-555.031,0,0
305989.3,71.8238,-554.195,0,0
306249.625,71.9251,-553.41,0,0
306509.95,72.016,-552.604,0,0
306770.275,72.1772,-551.821,0,0
307030.6,72.3392,-551.107,0,0
307290.925,72.5169,-550.454,0,0
307551.25,72.6709,-549.861,0,0
307811.575,72.7867,-549.331,0,0
308071.9,72.8325,-548.83,0,0
308332.225,72.8597,-548.332,0,0
308592.55,72.8638,-547.838,0,0
308852.875,72.8573,-547.395,0,0
309113.2,72.8349,-546.954,0,0
309373.525,72.7299,-546.596,0,0
309633.85,72.5885,-546.218,0,0
309894.175,72.3652,-545.85,0,0
310154.5,72.0946,-545.468,0,0
310414.825,71.7839,-545.041,0,0
310675.15,71.4382,-544.588,0,0
310935.475,71.0794,-544.078,0,0
311195.8,70.7389,-543.577,0,0
311456.125,70.373,-543.019,0,0
311716.45,70.0313,-542.476,0,0
311976.775,69.6515,-541.889,0,0
312237.1,69.3083,-541.317,0,0
312497.425,68.9645,-540.73,0,0
312757.75,68.6189,-540.157,0,0
313018.075,68.261,-539.586,0,0
313278.4,67.8882,-539.014,0,0
313538.725,67.5088,-538.435,0,0
313799.05,67.1213,-537.866,0,0
314059.375,66.7158,-537.288,0,0
314319.7,66.2744,-536.713,0,0
314580,65.7836,-536.082,0,0
314840,65.2115,-535.45,0,0
315101,64.7546,-534.761,0,0
315361,64.2154,-533.999,0,0
315621,63.7563,-533.181,0,0
315882,63.2509,-532.326,0,0
316142,62.7661,-531.489,0,0
316402,62.4262,-530.605,0,0
316663,62.1313,-529.672,0,0
316923,61.6707,-528.738,0,0
317183,61.4385,-527.843,0,0
317444,61.2423,-526.938,0,0
317704,61.0627,-526.015,0,0
317964,60.9084,-525.168,0,0
318225,60.8199,-524.331,0,0
318485,60.6299,-523.468,0,0
318745,60.6222,-522.694,0,0
319006,60.5112,-521.909,0,0
319266,60.4737,-521.145,0,0
319526,60.4555,-520.401,0,0
319787,60.408,-519.756,0,0
320047,60.408,-519.093,0,0
320307,60.3102,-518.499,0,0
320567,60.3312,-517.965,0,0
320828,60.245,-517.463,0,0
321088,60.0908,-516.894,0,0
321348,59.981,-516.444,0,0
321609,59.8296,-516.012,0,0
321869,59.7331,-515.518,0,0
322129,59.425,-515.139,0,0
322390,59.1638,-514.694,0,0
322650,58.8533,-514.279,0,0
322910,58.507,-513.71,0,0
323171,58.1588,-513.234,0,0
323431,57.8162,-512.745,0,0
323691,57.4623,-512.183,0,0
323952,57.0947,-511.682,0,0
324212,56.8009,-511.092,0,0
324472,56.3576,-510.555,0,0
324733,56.0079,-510.078,0,0
324993,55.5159,-509.561,0,0
325253,55.1313,-508.941,0,0
325514,54.6682,-508.377,0,0
325774,54.1758,-507.731,0,0
326034,53.7287,-507.092,0,0
326295,53.2803,-506.4,0,0
326555,52.7448,-505.683,0,0
326815,52.3757,-504.912,0,0
327076,51.9226,-504.157,0,0
327336,51.5576,-503.39,0,0
327596,51.1923,-502.704,0,0
327857,50.7928,-501.938,0,0
328117,50.4257,-501.157,0,0
328377,50.0324,-500.404,0,0
328638,49.6793,-499.618,0,0
328898,49.2695,-498.774,0,0
329158,48.9041,-497.979,0,0
329419,48.5728,-497.17,0,0
329679,48.25,-496.269,0,0
329939,47.9228,-495.501,0,0
330200,47.6425,-494.587,0,0
330460,47.3491,-493.786,0,0
330720.15,47.0759,-492.883,0,0
330980.475,46.7913,-492.083,0,0
331240.8,46.5847,-491.251,0,0
331501.125,46.3679,-490.387,0,0
331761.45,46.1088,-489.544,0,0
332021.775,45.8797,-488.733,0,0
332282.1,45.7058,-487.854,0,0
332542.425,45.4926,-487.006,0,0
332802.75,45.2955,-486.128,0,0
333063.075,45.0818,-485.33,0,0
333323.4,44.94,-484.383,0,0
333583.725,44.8008,-483.547,0,0
333844.05,44.6439,-482.718,0,0
334104.375,44.5455,-481.865,0,0
334364.7,44.4156,-480.955,0,0
334625.025,44.3507,-480.086,0,0
334885.35,44.3024,-479.233,0,0
335145.675,44.2245,-478.415,0,0
335406.0,44.1724,-477.63,0,0
335666.325,44.1954,-476.809,0,0
335926.65,44.1438,-476.032,0,0
336186.975,44.1813,-475.303,0,0
336447.3,44.1619,-474.503,0,0
336707.625,44.1987,-473.875,0,0
336967.95,44.1979,-473.12,0,0
337228.275,44.1741,-472.467,0,0
337488.6,44.1495,-471.81,0,0
337748.925,44.177,-471.141,0,0
338009.25,44.1345,-470.489,0,0
338269.575,44.0586,-469.83,0,0
338529.9,44.0027,-469.179,0,0
338790.225,44.0016,-468.54,0,0
339050.55,43.9411,-467.925,0,0
339310.875,43.8916,-467.302,0,0
339571.2,43.8075,-466.682,0,0
339831.525,43.7253,-466.1,0,0
340091.85,43.641,-465.46,0,0
340352.175,43.5721,-464.855,0,0
340612.5,43.426,-464.228,0,0
340872.825,43.3288,-463.649,0,0
341133.15,43.2115,-463.05,0,0
341393.475,43.0418,-462.358,0,0
341653.8,42.9275,-461.777,0,0
341914.125,42.754,-461.137,0,0
342174.45,42.6081,-460.473,0,0
342434.775,42.477,-459.837,0,0
342695.1,42.3325,-459.19,0,0
342955.425,42.1448,-458.53,0,0
343215.75,41.9973,-457.793,0,0
343476.075,41.8649,-457.123,0,0
343736.4,41.6885,-456.396,0,0
343996.725,41.5565,-455.689,0,0
344257.05,41.4376,-454.938,0,0
344517.375,41.3112,-454.241,0,0
344777.7,41.1958,-453.513,0,0
345038.025,41.1632,-452.728,0,0
345298.35,41.0569,-451.989,0,0
345558.675,40.9613,-451.245,0,0
345819.0,40.8878,-450.496,0,0
346079.325,40.8977,-449.807,0,0
346339.65,40.8186,-449.071,0,0
346599.975,40.7504,-448.265,0,0
346860,40.7295,-447.56,0,0
347121,40.7225,-446.791,0,0
347381,40.6581,-446.047,0,0
347641,40.6851,-445.349,0,0
347902,40.6758,-444.576,0,0
348162,40.7547,-443.91,0,0
348422,40.7585,-443.146,0,0
348683,40.837,-442.415,0,0
348943,40.8739,-441.696,0,0
349203,40.9136,-441.025,0,0
349464,40.983,-440.357,0,0
349724,41.0319,-439.596,0,0
349984,41.109,-438.953,0,0
350245,41.1748,-438.281,0,0
350505,41.2761,-437.604,0,0
350765,41.4041,-436.963,0,0
351025,41.4892,-436.332,0,0
351286,41.5858,-435.682,0,0
351546,41.7091,-435.037,0,0
351806,41.8001,-434.459,0,0
352067,41.9,-433.871,0,0
352327,41.9981,-433.313,0,0
352587,42.0584,-432.747,0,0
352848,42.159,-432.177,0,0
353108,42.2514,-431.603,0,0
353368,42.3437,-431.064,0,0
353629,42.4246,-430.511,0,0
353889,42.4411,-429.962,0,0
354149,42.4997,-429.405,0,0
354410,42.5836,-428.812,0,0
354670,42.6495,-428.318,0,0
354930,42.7291,-427.714,0,0
355191,42.8488,-427.22,0,0
355451,42.966,-426.679,0,0
355711,42.9637,-426.162,0,0
355972,43.0723,-425.669,0,0
356232,43.133,-425.19,0,0
356492,43.1846,-424.686,0,0
356753,43.2344,-424.225,0,0
357013,43.2964,-423.727,0,0
357273,43.3406,-423.265,0,0
357534,43.3503,-422.823,0,0
357794,43.3702,-422.34,0,0
358054,43.319,-421.894,0,0
358315,43.3128,-421.403,0,0
358575,43.2899,-420.916,0,0
358835,43.2212,-420.452,0,0
359096,43.1981,-419.93,0,0
359356,43.145,-419.408,0,0
359616,43.0845,-418.893,0,0
359877,43.0573,-418.346,0,0
360137,43.0235,-417.763,0,0
360397,42.9285,-417.2,0,0
360658,42.9171,-416.679,0,0
360918,42.8912,-416.085,0,0
361178,42.8616,-415.499,0,0
361438,42.858,-414.875,0,0
361699,42.8289,-414.336,0,0
361959,42.8464,-413.73,0,0
362219,42.8442,-413.118,0,0
362480,42.848,-412.545,0,0
362740.1,42.8578,-411.926,0,0
363000.425,42.8778,-411.333,0,0
363260.75,42.8865,-410.726,0,0
363521.075,42.9379,-410.099,0,0
363781.4,43.0078,-409.511,0,0
364041.725,43.0866,-408.855,0,0
364302.05,43.1611,-408.254,0,0
364562.375,43.2757,-407.635,0,0
364822.7,43.3857,-407.017,0,0
365083.025,43.4478,-406.407,0,0
365343.35,43.5923,-405.799,0,0
365603.675,43.7294,-405.261,0,0
365864.0,43.901,-404.674,0,0
366124.325,44.0481,-404.081,0,0
366384.65,44.2199,-403.543,0,0
366644.975,44.3814,-402.993,0,0
366905.3,44.6121,-402.469,0,0
367165.625,44.751,-401.931,0,0
367425.95,44.9319,-401.441,0,0
367686.275,45.1032,-400.962,0,0
367946.6,45.266,-400.522,0,0
368206.925,45.398,-400.044,0,0
368467.25,45.5381,-399.585,0,0
368727.575,45.6665,-399.129,0,0
368987.9,45.8066,-398.611,0,0
369248.225,45.9758,-398.096,0,0
369508.55,46.1019,-397.593,0,0
369768.875,46.31,-397.072,0,0
370029.2,46.5026,-396.593,0,0
370289.525,46.7288,-396.097,0,0
370549.85,46.9831,-395.651,0,0
370810.175,47.2789,-395.208,0,0
371070.5,47.5137,-394.809,0,0
371330.825,47.8005,-394.452,0,0
371591.15,48.0287,-394.136,0,0
371851.475,48.2885,-393.828,0,0
372111.8,48.461,-393.547,0,0
372372.125,48.6829,-393.292,0,0
372632.45,48.8445,-393.023,0,0
372892.775,48.9813,-392.763,0,0
373153.1,49.1234,-392.52,0,0
373413.425,49.2048,-392.284,0,0
373673.75,49.3055,-392.09,0,0
373934.075,49.3273,-391.816,0,0
374194.4,49.3766,-391.568,0,0
374454.725,49.3439,-391.296,0,0
374715.05,49.4065,-390.992,0,0
374975.375,49.3949,-390.683,0,0
375235.7,49.4052,-390.357,0,0
375496.025,49.4454,-390.013,0,0
375756.35,49.4837,-389.665,0,0
376016.675,49.5165,-389.34,0,0
376277.0,49.5628,-389.046,0,0
376537.325,49.6344,-388.694,0,0
376797.65,49.6659,-388.397,0,0
377057.975,49.7428,-388.122,0,0
377318.3,49.7764,-387.797,0,0
377578.625,49.8078,-387.537,0,0
377838.95,49.8076,-387.315,0,0
378099.275,49.814,-387.03,0,0
378359.6,49.7821,-386.79,0,0
378619.925,49.6917,-386.504,0,0
378880,49.6466,-386.249,0,0
379141,49.5258,-385.9,0,0
379401,49.4246,-385.523,0,0
379661,49.3402,-385.08,0,0
379922,49.3082,-384.613,0,0
380182,49.332,-384.157,0,0
380442,49.4231,-383.671,0,0
380703,49.5739,-383.247,0,0
380963,49.7733,-382.9,0,0
381223,49.9726,-382.581,0,0
381483,50.2197,-382.374,0,0
381744,50.4291,-382.287,0,0
382004,50.5625,-382.231,0,0
382264,50.5919,-382.306,0,0
382525,50.5026,-382.34,0,0
382785,50.3422,-382.391,0,0
383045,50.0513,-382.355,0,0
383306,49.6863,-382.231,0,0
383566,49.3322,-382.056,0,0
383826,48.928,-381.775,0,0
384087,48.5734,-381.467,0,0
384347,48.1766,-381.114,0,0
384607,47.8065,-380.705,0,0
384868,47.508,-380.263,0,0
385128,47.2231,-379.803,0,0
385388,46.9637,-379.342,0,0
385649,46.6857,-378.83,0,0
385909,46.4145,-378.32,0,0
386169,46.1912,-377.766,0,0
386430,45.984,-377.225,0,0
386690,45.7478,-376.684,0,0
386950,45.5662,-376.151,0,0
387211,45.3836,-375.548,0,0
387471,45.2499,-374.949,0,0
387731,45.0934,-374.34,0,0
387992,44.9967,-373.75,0,0
388252,44.877,-373.158,0,0
388512,44.8089,-372.537,0,0
388773,44.793,-371.917,0,0
389033,44.7297,-371.296,0,0
389293,44.6858,-370.743,0,0
389554,44.6994,-370.117,0,0
389814,44.6954,-369.539,0,0
390074,44.7186,-369.009,0,0
390335,44.7946,-368.453,0,0
390595,44.826,-367.936,0,0
390855,44.8825,-367.433,0,0
391116,44.8946,-366.971,0,0
391376,44.9181,-366.451,0,0
391636,44.9101,-365.987,0,0
391896,44.9171,-365.542,0,0
392157,44.9054,-365.037,0,0
392417,44.8702,-364.558,0,0
392677,44.8578,-364.059,0,0
392938,44.8217,-363.541,0,0
393198,44.7981,-363.035,0,0
393458,44.8062,-362.533,0,0
393719,44.7915,-362.027,0,0
393979,44.7592,-361.465,0,0
394239,44.7526,-360.959,0,0
394500,44.7512,-360.4,0,0
394760.05,44.782,-359.862,0,0
395020.375,44.781,-359.306,0,0
395280.7,44.839,-358.754,0,0
395541.025,44.8744,-358.216,0,0
395801.35,44.9252,-357.701,0,0
396061.675,44.9988,-357.14,0,0
396322.0,45.052,-356.628,0,0
396582.325,45.1211,-356.08,0,0
396842.65,45.2284,-355.55,0,0
397102.975,45.3296,-355.047,0,0
397363.3,45.4275,-354.564,0,0
397623.625,45.5121,-354.062,0,0
397883.95,45.6155,-353.621,0,0
398144.275,45.7031,-353.162,0,0
398404.6,45.7991,-352.679,0,0
398664.925,45.8476,-352.268,0,0
398925.25,45.9279,-351.795,0,0
399185.575,45.981,-351.322,0,0
399445.9,46.0481,-350.912,0,0
399706.225,46.0821,-350.451,0,0
399966.55,46.1197,-350.027,0,0
400006.6,46.0977,-349.937,0,0