File: Accelerated corrosion test data/2025-09-30_08-18-27/sample_3.csv
Frequency (Hz),Impedance (ohms),Phase (Radians),Temperature (C),Humidity (%)
10000.0,254.568,-11746.9,0,0
10260.325,248.929,-11450.4,0,0
10520.65,242.83,-11169.3,0,0
10780.975,238.751,-10899.7,0,0
11041.3,232.828,-10649.3,0,0
11301.625,227.288,-10405,0,0
11561.95,221.941,-10172.1,0,0
11822.275,217.766,-9949.49,0,0
12082.6,214.57,-9736.45,0,0
12342.925,211.42,-9532.09,0,0
12603.25,205.749,-9338.86,0,0
12863.575,202.238,-9149.43,0,0
13123.9,202.366,-8967.2,0,0
13384.225,195.568,-8799.15,0,0
13644.55,192.376,-8631.19,0,0
13904.875,187.655,-8469.12,0,0
14165.2,187.131,-8313.57,0,0
14425.525,182.94,-8165.53,0,0
14685.8,180.842,-8019.94,0,0
14946.175,179.255,-7882.46,0,0
15206.5,175.04,-7743.67,0,0
15466.825,177.861,-7606.89,0,0
15727.15,199.708,-7494.15,0,0
15987.5,177.623,-7390.62,0,0
16247.8,170.401,-7261.45,0,0
16508.125,164.532,-7149.83,0,0
16768.45,164.618,-7029.78,0,0
17028.775,160.423,-6931.84,0,0
17289.1,161.993,-6818.73,0,0
17549.425,159.212,-6726.77,0,0
17809.75,159.409,-6621.86,0,0
18070.075,165.257,-6533.54,0,0
18330.4,153.218,-6444.91,0,0
18590.725,150.406,-6351.54,0,0
18851.05,146.894,-6261.99,0,0
19111.375,147.74,-6172.02,0,0
19371.7,147.607,-6090.28,0,0
19632.025,148.407,-6008.35,0,0
19892.35,148.906,-5925.73,0,0
20152.675,150.998,-5853.49,0,0
20413.0,157.817,-5772.06,0,0
20673.3,164.493,-5704.52,0,0
20933.65,166.419,-5655.26,0,0
21193.975,164.931,-5590.46,0,0
21454.3,147.542,-5528.85,0,0
21714.625,140.015,-5454.45,0,0
21974.9,144.396,-5388.86,0,0
22235.275,140.088,-5329.86,0,0
22495.6,139.194,-5267.34,0,0
22755.925,130.689,-5209.21,0,0
23016.25,129.762,-5149.91,0,0
23276.6,129.358,-5086.91,0,0
23536.9,131.801,-5041.95,0,0
23797.225,123.749,-4983.81,0,0
24057.55,120.622,-4926.77,0,0
24317.875,120.95,-4871.19,0,0
24578.2,118.9,-4822.02,0,0
24838.525,119.592,-4768.25,0,0
25098.85,118.172,-4722.84,0,0
25359.175,116.03,-4673.48,0,0
25619.5,115.432,-4625.57,0,0
25879.8,112.395,-4578.97,0,0
26140.1,109.899,-4531.88,0,0
26400.5,109.113,-4485.21,0,0
26660.8,109.516,-4440.24,0,0
26921.1,109.986,-4395.53,0,0
27181.4,109.644,-4355.25,0,0
27441.8,108.18,-4311.9,0,0
27702.1,110.28,-4272.59,0,0
27962.4,106.951,-4233.56,0,0
28222.7,104.946,-4190.61,0,0
28483.1,111.059,-4147.71,0,0
28743.4,114.557,-4114.33,0,0
29003.7,115.004,-4082.03,0,0
29264,108.177,-4049.32,0,0
29524.4,111.227,-4011.28,0,0
29784.7,106.094,-3978.57,0,0
30045,104.42,-3944.84,0,0
30305.3,101.746,-3908.17,0,0
30565.7,103.789,-3874.62,0,0
30826,101.949,-3841.52,0,0
31086.3,103.589,-3809.61,0,0
31346.6,99.807,-3779.68,0,0
31607,98.3773,-3745.07,0,0
31867.3,98.7569,-3711.27,0,0
32127.6,102.859,-3678.28,0,0
32387.9,108.859,-3649.71,0,0
32648.3,113.604,-3632.2,0,0
32908.6,104.165,-3607.62,0,0
33168.9,102.664,-3579.1,0,0
33429.2,100.788,-3553.19,0,0
33689.6,95.8437,-3526.3,0,0
33949.9,92.5006,-3497.3,0,0
34210.2,92.0623,-3469.11,0,0
34470.5,91.216,-3442.9,0,0
34730.9,89.0424,-3416.5,0,0
34991.2,87.9407,-3389.9,0,0
35251.5,87.2518,-3364.06,0,0
35511.8,86.0777,-3339.29,0,0
35772.2,85.2109,-3313.91,0,0
36032.5,83.9791,-3289.15,0,0
36292.8,84.0488,-3264.56,0,0
36553.1,83.7281,-3241.04,0,0
36813.5,82.9172,-3217.81,0,0
37073.8,82.1997,-3194.87,0,0
37334.1,81.6632,-3171.85,0,0
37594.4,81.1096,-3149.42,0,0
37854.8,80.6867,-3127.48,0,0
38115.1,80.2849,-3105.51,0,0
38375.4,79.4853,-3083.72,0,0
38635.7,79.12,-3062.29,0,0
38896.1,78.911,-3041.23,0,0
39156.4,78.304,-3020.54,0,0
39416.7,78.1111,-3000.48,0,0
39677,77.4137,-2980.42,0,0
39937.4,76.919,-2960.3,0,0
40197.7,76.4837,-2940.22,0,0
40458,76.3817,-2920.83,0,0
40718.3,75.9699,-2901.84,0,0
40978.7,75.5369,-2882.55,0,0
41239,75.369,-2863.84,0,0
41499.3,75.3605,-2845.52,0,0
41759.6,75.2072,-2827.17,0,0
42020,74.9193,-2809.38,0,0
42280.275,74.8792,-2791.61,0,0
42540.6,74.4646,-2774.05,0,0
42800.925,74.2028,-2757.28,0,0
43061.25,73.7588,-2740.07,0,0
43321.575,73.1459,-2723.22,0,0
43581.9,72.6635,-2705.92,0,0
43842.225,72.7055,-2688.94,0,0
44102.55,72.7911,-2672.73,0,0
44362.875,72.851,-2656.95,0,0
44623.2,72.3173,-2640.99,0,0
44883.525,71.9692,-2625.56,0,0
45143.85,71.4803,-2609.67,0,0
45404.175,71.3451,-2594,0,0
45664.5,71.1813,-2578.26,0,0
45924.825,72.0364,-2563.4,0,0
46185.15,71.1284,-2548.79,0,0
46445.475,71.1259,-2534.07,0,0
46705.8,70.7514,-2519.31,0,0
46966.125,71.0447,-2504.75,0,0
47226.45,70.7101,-2490.73,0,0
47486.775,70.489,-2476.27,0,0
47747.1,71.0578,-2461.66,0,0
48007.425,71.5008,-2448.75,0,0
48267.75,71.6311,-2436.26,0,0
48528.075,70.4901,-2422.71,0,0
48788.4,70.2541,-2409.49,0,0
49048.725,69.5038,-2396.47,0,0
49309.05,68.8867,-2383.21,0,0
49569.375,68.8493,-2369.97,0,0
49829.7,68.66,-2357.06,0,0
50090.025,68.1591,-2344.62,0,0
50350.35,67.6531,-2331.62,0,0
50610.675,67.4032,-2318.55,0,0
50871.0,67.4869,-2306.09,0,0
51131.325,67.3395,-2293.81,0,0
51391.65,67.2666,-2281.64,0,0
51651.975,67.2974,-2269.33,0,0
51912.3,67.2246,-2257.39,0,0
52172.625,67.0751,-2245.44,0,0
52432.95,66.9355,-2233.3,0,0
52693.275,67.1792,-2221.41,0,0
52953.6,67.5816,-2209.63,0,0
53213.925,68.3208,-2198.15,0,0
53474.25,68.9886,-2187.5,0,0
53734.575,69.1497,-2176.81,0,0
53994.9,69.3946,-2165.76,0,0
54255.225,70.2802,-2155.15,0,0
54515.55,71.173,-2145.73,0,0
54775.875,70.67,-2137.02,0,0
55036.2,69.6309,-2127,0,0
55296.525,69.2287,-2117.37,0,0
55556.85,67.9139,-2108.1,0,0
55817.175,66.1181,-2097.3,0,0
56077.5,65.1248,-2087.06,0,0
56337.825,64.4468,-2076.34,0,0
56598.15,63.4573,-2065.92,0,0
56858.475,62.612,-2055.22,0,0
57118.8,62.2803,-2044.35,0,0
57379.125,62.1504,-2033.98,0,0
57639.45,62.0189,-2023.55,0,0
57899.775,62.1349,-2013.31,0,0
58160.1,62.1344,-2003.3,0,0
58420.4,62.0437,-1993.44,0,0
58680.7,62.0867,-1983.48,0,0
58941.1,62.3561,-1973.75,0,0
59201.4,62.3684,-1963.97,0,0
59461.7,62.6206,-1954.29,0,0
59722,62.8594,-1944.98,0,0
59982.4,63.1447,-1935.55,0,0
60242.7,63.3102,-1926.29,0,0
60503,63.545,-1917.01,0,0
60763.3,64.0089,-1907.77,0,0
61023.7,64.4522,-1898.63,0,0
61284,64.8403,-1889.65,0,0
61544.3,65.6711,-1880.65,0,0
61804.6,66.0042,-1872.43,0,0
62065,66.2232,-1863.39,0,0
62325.3,66.5946,-1854.62,0,0
62585.6,67.311,-1845.82,0,0
62845.9,68.0597,-1837.04,0,0
63106.3,69.1097,-1828.4,0,0
63366.6,69.8083,-1820.13,0,0
63626.9,70.765,-1811.27,0,0
63887.2,72.1798,-1802.77,0,0
64147.6,74.1545,-1794.36,0,0
64407.9,76.0448,-1786.68,0,0
64668.2,78.1668,-1778.71,0,0
64928.5,80.9232,-1771.13,0,0
65188.9,84.4169,-1764.99,0,0
65449.2,87.7499,-1759.94,0,0
65709.5,89.7302,-1755.83,0,0
65969.8,92.7545,-1752.59,0,0
66230.2,92.3869,-1752.79,0,0
66490.5,87.9894,-1750.49,0,0
66750.8,82.5966,-1745.71,0,0
67011.1,78.3502,-1736.19,0,0
67271.5,77.6304,-1728.16,0,0
67531.8,75.6732,-1720.48,0,0
67792.1,75.5512,-1712.01,0,0
68052.4,75.5999,-1704.03,0,0
68312.8,76.6596,-1697.01,0,0
68573.1,77.011,-1690.83,0,0
68833.4,76.8601,-1684.66,0,0
69093.7,77.2429,-1678.17,0,0
69354.1,77.3267,-1672.62,0,0
69614.4,77.298,-1667.01,0,0
69874.7,76.4229,-1661.66,0,0
70135,75.6026,-1656.13,0,0
70395.4,74.2922,-1650.17,0,0
70655.7,73.2511,-1644.04,0,0
70916,72.0423,-1637.7,0,0
71176.3,71.0727,-1631.07,0,0
71436.7,70.4093,-1624.54,0,0
71697,69.6994,-1617.72,0,0
71957.3,69.4367,-1610.97,0,0
72217.6,69.4826,-1604.61,0,0
72478,69.4498,-1598.54,0,0
72738.3,69.5097,-1592.68,0,0
72998.6,69.291,-1587.07,0,0
73258.9,68.8559,-1581.5,0,0
73519.3,68.3478,-1575.75,0,0
73779.6,67.9053,-1570.02,0,0
74039.9,67.2753,-1564.54,0,0
74300.225,66.5471,-1558.92,0,0
74560.55,65.8388,-1553.18,0,0
74820.875,65.1198,-1547.4,0,0
75081.2,64.3468,-1541.69,0,0
75341.525,63.6876,-1535.88,0,0
75601.85,62.902,-1530.03,0,0
75862.175,62.1922,-1524.28,0,0
76122.5,61.5032,-1518.37,0,0
76382.825,60.9193,-1512.49,0,0
76643.15,60.3921,-1506.52,0,0
76903.475,59.8568,-1500.76,0,0
77163.8,59.4481,-1494.89,0,0
77424.125,59.0332,-1489.2,0,0
77684.45,58.5817,-1483.55,0,0
77944.775,58.1307,-1477.86,0,0
78205.1,57.616,-1472.13,0,0
78465.425,57.2102,-1466.43,0,0
78725.75,56.8228,-1460.75,0,0
78986.075,56.4108,-1455.15,0,0
79246.4,56.038,-1449.52,0,0
79506.725,55.782,-1443.86,0,0
79767.05,55.4604,-1438.32,0,0
80027.375,55.1573,-1432.76,0,0
80287.7,54.9515,-1427.18,0,0
80548.025,54.7666,-1421.72,0,0
80808.35,54.588,-1416.26,0,0
81068.675,54.3308,-1410.88,0,0
81329.0,54.1762,-1405.52,0,0
81589.325,53.963,-1400.06,0,0
81849.65,53.867,-1394.74,0,0
82109.975,53.7075,-1389.45,0,0
82370.3,53.6132,-1384.22,0,0
82630.625,53.4703,-1378.91,0,0
82890.95,53.4317,-1373.71,0,0
83151.275,53.3546,-1368.52,0,0
83411.6,53.2848,-1363.34,0,0
83671.925,53.2434,-1358.28,0,0
83932.25,53.1925,-1353.16,0,0
84192.575,53.1517,-1348.1,0,0
84452.9,53.1646,-1343.12,0,0
84713.225,53.0878,-1338.06,0,0
84973.55,53.0417,-1333.03,0,0
85233.875,53.0789,-1328.1,0,0
85494.2,53.0562,-1323.19,0,0
85754.525,53.1743,-1318.17,0,0
86014.85,53.1933,-1313.3,0,0
86275.175,53.1925,-1308.53,0,0
86535.5,53.2085,-1303.67,0,0
86795.825,53.2556,-1298.89,0,0
87056.15,53.3003,-1294.1,0,0
87316.475,53.4427,-1289.29,0,0
87576.8,53.4885,-1284.41,0,0
87837.125,53.7049,-1279.6,0,0
88097.45,53.7247,-1274.82,0,0
88357.775,53.876,-1270.16,0,0
88618.1,54.0174,-1265.39,0,0
88878.425,54.4316,-1260.73,0,0
89138.75,54.5995,-1255.93,0,0
89399.075,55.0776,-1251.25,0,0
89659.4,55.5763,-1246.46,0,0
89919.725,55.9827,-1242.02,0,0
90180,56.5253,-1237.63,0,0
90440.4,57.0114,-1233.61,0,0
90700.7,57.3754,-1229.14,0,0
90961,57.8466,-1224.72,0,0
91221.3,58.4085,-1220.33,0,0
91481.7,59.0107,-1216.34,0,0
91742,59.6537,-1212.12,0,0
92002.3,60.2003,-1208.01,0,0
92262.6,60.9989,-1204.03,0,0
92523,61.7968,-1200.23,0,0
92783.3,62.543,-1196.61,0,0
93043.6,63.122,-1193,0,0
93303.9,63.806,-1189.32,0,0
93564.3,64.6716,-1186.15,0,0
93824.6,65.2708,-1183.21,0,0
94084.9,65.7746,-1180.41,0,0
94345.2,65.7599,-1177.72,0,0
94605.6,65.8013,-1175.06,0,0
94865.9,65.3019,-1172.78,0,0
95126.2,64.0182,-1170.3,0,0
95386.5,62.0959,-1166.83,0,0
95646.9,60.7912,-1162.57,0,0
95907.2,60.0871,-1158.19,0,0
96167.5,59.4585,-1153.95,0,0
96427.8,59.1108,-1149.48,0,0
96688.2,59.1249,-1145.16,0,0
96948.5,59.2192,-1141.14,0,0
97208.8,59.2438,-1137.25,0,0
97469.1,59.3127,-1133.29,0,0
97729.5,59.3285,-1129.45,0,0
97989.8,59.3882,-1125.7,0,0
98250.1,59.4258,-1122.08,0,0
98510.4,59.4207,-1118.44,0,0
98770.8,59.2819,-1114.85,0,0
99031.1,59.2263,-1111.18,0,0
99291.4,59.0447,-1107.64,0,0
99551.7,58.7752,-1104.01,0,0
99812.1,58.5166,-1100.34,0,0
100072,58.2895,-1096.49,0,0
100333,58.0834,-1092.77,0,0
100593,57.7925,-1088.93,0,0
100853,57.599,-1084.96,0,0
101114,57.4415,-1081.01,0,0
101374,57.3134,-1076.88,0,0
101634,57.4888,-1072.69,0,0
101895,57.6933,-1068.61,0,0
102155,57.9925,-1064.5,0,0
102415,58.433,-1060.35,0,0
102676,59.252,-1056.24,0,0
102936,60.2557,-1052.48,0,0
103196,61.1909,-1049.18,0,0
103457,61.8041,-1045.86,0,0
103717,62.5694,-1042.55,0,0
103977,63.2484,-1039.24,0,0
104238,64.2431,-1035.92,0,0
104498,65.4573,-1033.17,0,0
104758,66.3203,-1031.13,0,0
105019,66.4898,-1029.06,0,0
105279,66.3358,-1026.75,0,0
105539,66.137,-1024.21,0,0
105800,65.9956,-1021.67,0,0
106060,65.594,-1019.36,0,0
106320.175,64.7184,-1016.72,0,0
106580.5,64.0219,-1013.69,0,0
106840.825,63.3398,-1010.7,0,0
107101.15,62.6228,-1007.55,0,0
107361.475,61.8484,-1004.26,0,0
107621.8,61.2064,-1000.74,0,0
107882.125,60.6247,-997.271,0,0
108142.45,60.133,-993.639,0,0
108402.775,59.8279,-989.966,0,0
108663.1,59.4098,-986.424,0,0
108923.425,58.9433,-982.654,0,0
109183.75,58.7941,-978.855,0,0
109444.075,58.6511,-974.92,0,0
109704.4,58.775,-971.051,0,0
109964.725,58.8386,-967.343,0,0
110225.05,58.9734,-963.595,0,0
110485.375,59.2155,-959.667,0,0
110745.7,59.5684,-955.893,0,0
111006.025,60.1995,-952.077,0,0
111266.35,60.9133,-948.747,0,0
111526.675,61.5937,-945.394,0,0
111787.0,61.8837,-942.174,0,0
112047.325,62.1964,-939.032,0,0
112307.65,62.7559,-935.586,0,0
112567.975,63.2785,-932.518,0,0
112828.3,63.5518,-929.355,0,0
113088.625,63.839,-926.226,0,0
113348.95,64.0961,-922.918,0,0
113609.275,64.4861,-919.649,0,0
113869.6,64.7915,-916.318,0,0
114129.925,65.1764,-913.011,0,0
114390.25,65.6753,-909.768,0,0
114650.575,66.0132,-906.523,0,0
114910.9,66.513,-903.138,0,0
115171.225,67.1825,-899.779,0,0
115431.55,67.7225,-896.469,0,0
115691.875,68.3413,-893.208,0,0
115952.2,69.1216,-889.944,0,0
116212.525,69.8021,-886.789,0,0
116472.85,70.5488,-883.467,0,0
116733.175,71.5016,-880.164,0,0
116993.5,72.573,-877.127,0,0
117253.825,73.4464,-874.099,0,0
117514.15,74.3879,-870.871,0,0
117774.475,75.6953,-867.68,0,0
118034.8,77.1523,-864.778,0,0
118295.125,78.7135,-861.973,0,0
118555.45,80.4779,-859.69,0,0
118815.775,81.794,-857.695,0,0
119076.1,82.8857,-855.564,0,0
119336.425,84.109,-853.311,0,0
119596.75,85.7104,-851.178,0,0
119857.075,87.3725,-849.766,0,0
120117.4,88.6139,-848.974,0,0
120377.725,88.9222,-848.416,0,0
120638.05,88.5353,-847.139,0,0
120898.375,88.38,-845.429,0,0
121158.7,88.3579,-843.857,0,0
121419.025,87.9167,-842.314,0,0
121679.35,87.2158,-840.299,0,0
121939.675,86.7112,-837.845,0,0
122200.0,86.4553,-835.292,0,0
122460,86.3774,-832.703,0,0
122721,86.5288,-830.083,0,0
122981,86.6321,-827.596,0,0
123241,86.9732,-825.147,0,0
123502,87.3611,-822.848,0,0
123762,87.5641,-820.735,0,0
124022,87.7139,-818.474,0,0
124283,87.9274,-816.194,0,0
124543,88.1897,-813.934,0,0
124803,88.4448,-811.838,0,0
125064,88.6694,-809.78,0,0
125324,88.8341,-807.749,0,0
125584,88.9362,-805.781,0,0
125845,88.9484,-803.814,0,0
126105,88.943,-801.846,0,0
126365,88.8479,-799.882,0,0
126626,88.6326,-797.946,0,0
126886,88.328,-795.919,0,0
127146,88.0141,-793.75,0,0
127406,87.6795,-791.674,0,0
127667,87.3157,-789.617,0,0
127927,86.8086,-787.232,0,0
128187,86.448,-784.832,0,0
128448,85.965,-782.544,0,0
128708,85.3999,-780.038,0,0
128968,84.948,-777.284,0,0
129229,84.722,-774.511,0,0
129489,84.5795,-771.819,0,0
129749,84.4051,-769.13,0,0
130010,84.2012,-766.376,0,0
130270,84.1945,-763.483,0,0
130530,84.4333,-760.614,0,0
130791,84.8189,-757.977,0,0
131051,85.2107,-755.637,0,0
131311,85.3197,-753.448,0,0
131572,85.3404,-751.158,0,0
131832,85.3093,-748.889,0,0
132092,85.2291,-746.612,0,0
132353,84.9911,-744.316,0,0
132613,84.7231,-741.739,0,0
132873,84.7057,-739.198,0,0
133134,84.6936,-736.808,0,0
133394,84.5189,-734.429,0,0
133654,84.346,-732.023,0,0
133915,84.0561,-729.557,0,0
134175,83.7603,-726.949,0,0
134435,83.5951,-724.34,0,0
134696,83.4315,-721.725,0,0
134956,83.1779,-719.216,0,0
135216,82.8507,-716.488,0,0
135477,82.7498,-713.645,0,0
135737,82.6032,-711.017,0,0
135997,82.3706,-708.254,0,0
136258,82.0984,-705.463,0,0
136518,81.8884,-702.451,0,0
136778,81.7361,-699.465,0,0
137039,81.7804,-696.364,0,0
137299,81.9945,-693.281,0,0
137559,82.3252,-690.348,0,0
137819,82.6024,-687.619,0,0
138080,82.7325,-684.866,0,0
138340.125,83.0112,-682.046,0,0
138600.45,83.3616,-679.368,0,0
138860.775,83.649,-676.885,0,0
139121.1,83.6762,-674.445,0,0
139381.425,83.5667,-671.835,0,0
139641.75,83.4454,-669.208,0,0
139902.075,83.2568,-666.487,0,0
140162.4,83.0397,-663.607,0,0
140422.725,82.9208,-660.62,0,0
140683.05,82.9379,-657.59,0,0
140943.375,83.0186,-654.622,0,0
141203.7,83.0512,-651.727,0,0
141464.025,83.025,-648.85,0,0
141724.35,82.9319,-645.895,0,0
141984.675,82.748,-642.82,0,0
142245.0,82.6245,-639.61,0,0
142505.325,82.7073,-636.39,0,0
142765.65,82.7101,-633.192,0,0
143025.975,82.7011,-629.883,0,0
143286.3,82.791,-626.522,0,0
143546.625,82.8921,-623.158,0,0
143806.95,82.9662,-619.697,0,0
144067.275,83.1755,-616.175,0,0
144327.6,83.4632,-612.642,0,0
144587.925,83.788,-609.147,0,0
144848.25,84.1017,-605.591,0,0
145108.575,84.4589,-602,0,0
145368.9,84.8679,-598.386,0,0
145629.225,85.3029,-594.756,0,0
145889.55,85.7401,-591.074,0,0
146149.875,86.2402,-587.297,0,0
146410.2,86.8023,-583.469,0,0
146670.525,87.4367,-579.585,0,0
146930.85,88.1727,-575.659,0,0
147191.175,88.9742,-571.743,0,0
147451.5,89.8236,-567.742,0,0
147711.825,90.8229,-563.694,0,0
147972.15,91.9058,-559.636,0,0
148232.475,93.1302,-555.58,0,0
148492.8,94.4211,-551.558,0,0
148753.125,95.7596,-547.536,0,0
149013.45,97.1619,-543.478,0,0
149273.775,98.7021,-539.331,0,0
149534.1,100.367,-535.179,0,0
149794.425,102.23,-531.037,0,0
150054.75,104.231,-526.922,0,0
150315.075,106.415,-522.858,0,0
150575.4,108.782,-518.909,0,0
150835.725,111.337,-515.107,0,0
151096.05,113.949,-511.515,0,0
151356.375,116.619,-508.043,0,0
151616.7,119.374,-504.793,0,0
151877.025,122.063,-501.744,0,0
152137.35,124.626,-498.789,0,0
152397.675,127.183,-495.846,0,0
152658.0,129.764,-492.994,0,0
152918.325,132.369,-490.229,0,0
153178.65,134.944,-487.673,0,0
153438.975,137.371,-485.277,0,0
153699.3,139.61,-482.885,0,0
153959.625,141.628,-480.48,0,0
154219.95,143.676,-477.826,0,0
154480,145.936,-475.369,0,0
154741,147.761,-473.21,0,0
155001,148.972,-470.767,0,0
155261,150.129,-467.542,0,0
155522,151.806,-463.774,0,0
155782,154.085,-460.092,0,0
156042,156.64,-456.938,0,0
156303,158.859,-453.836,0,0
156563,161.068,-450.396,0,0
156823,163.584,-446.784,0,0
157084,166.441,-443.237,0,0
157344,169.606,-440.04,0,0
157604,172.757,-437.134,0,0
157864,175.907,-434.541,0,0
158125,178.813,-432.091,0,0
158385,181.501,-429.863,0,0
158645,183.789,-427.648,0,0
158906,185.559,-425.399,0,0
159166,186.718,-422.061,0,0
159426,188.823,-418.242,0,0
159687,190.779,-414.912,0,0
159947,192.172,-410.819,0,0
160207,194.154,-405.726,0,0
160468,196.846,-400.609,0,0
160728,199.541,-394.921,0,0
160988,203.259,-388.515,0,0
161249,208.443,-382.306,0,0
161509,214.334,-377.137,0,0
161769,219.951,-372.481,0,0
162030,225.619,-367.104,0,0
162290,232.846,-361.653,0,0
162550,240.833,-357.514,0,0
162811,248.624,-354.248,0,0
163071,256.33,-351.106,0,0
163331,264.195,-348.197,0,0
163592,272.468,-345.608,0,0
163852,281.021,-343.2,0,0
164112,290.144,-341.438,0,0
164373,298.881,-340.443,0,0
164633,307.682,-338.901,0,0
164893,317.834,-337.453,0,0
165154,329.311,-337.329,0,0
165414,341.229,-339.343,0,0
165674,352.116,-343.556,0,0
165935,361.47,-348.267,0,0
166195,370.249,-352.93,0,0
166455,379.085,-358.279,0,0
166716,386.756,-364.707,0,0
166976,393.799,-371.048,0,0
167236,400.19,-378.082,0,0
167497,405.428,-385.136,0,0
167757,410.226,-391.802,0,0
168017,414.637,-398.571,0,0
168277,419.338,-405.527,0,0
168538,423.17,-413.921,0,0
168798,424.943,-422.441,0,0
169058,425.195,-429.404,0,0
169319,426.204,-434.669,0,0
169579,429.119,-440.817,0,0
169839,431.011,-449.639,0,0
170100,429.438,-459.092,0,0
170360.075,425.407,-465.993,0,0
170620.4,421.644,-470.321,0,0
170880.725,418.641,-473.831,0,0
171141.05,415.831,-476.902,0,0
171401.375,412.781,-479.369,0,0
171661.7,409.923,-480.292,0,0
171922.025,408.832,-480.566,0,0
172182.35,408.497,-481.663,0,0
172442.675,408.004,-482.947,0,0
172703.0,407.513,-484.008,0,0
172963.325,407.442,-484.628,0,0
173223.65,408.285,-485.484,0,0
173483.975,409.164,-487.043,0,0
173744.3,409.642,-488.488,0,0
174004.625,410.689,-489.292,0,0
174264.95,413.218,-490.616,0,0
174525.275,416.055,-493.819,0,0
174785.6,417.885,-498.12,0,0
175045.925,418.815,-502.773,0,0
175306.25,419.042,-507.584,0,0
175566.575,418.793,-512.612,0,0
175826.9,417.773,-517.946,0,0
176087.225,415.456,-523.592,0,0
176347.55,411.517,-528.282,0,0
176607.875,407.253,-531.069,0,0
176868.2,404.02,-533.179,0,0
177128.525,401.111,-535.611,0,0
177388.85,397.755,-538.207,0,0
177649.175,393.904,-540.535,0,0
177909.5,389.819,-542.588,0,0
178169.825,384.844,-544.604,0,0
178430.15,378.747,-545.086,0,0
178690.475,373.099,-543.753,0,0
178950.8,368.516,-541.224,0,0
179211.125,365.294,-538.247,0,0
179471.45,363,-535.906,0,0
179731.775,360.424,-533.798,0,0
179992.1,357.916,-530.812,0,0
180252.425,356.42,-527.103,0,0
180512.75,356.568,-523.585,0,0
180773.075,357.728,-521.167,0,0
181033.4,358.837,-519.959,0,0
181293.725,359.523,-519.148,0,0
181554.05,360.231,-518.566,0,0
181814.375,361.318,-518.316,0,0
182074.7,362.446,-519.417,0,0
182335.025,362.641,-521.705,0,0
182595.35,360.888,-524.145,0,0
182855.675,358.006,-525.434,0,0
183116.0,354.945,-525.696,0,0
183376.325,352.067,-525.437,0,0
183636.65,349.14,-524.859,0,0
183896.975,346.237,-523.843,0,0
184157.3,343.346,-522.576,0,0
184417.625,340.287,-521.033,0,0
184677.95,337.354,-518.878,0,0
184938.275,334.541,-516.35,0,0
185198.6,331.769,-513.417,0,0
185458.925,329.402,-509.855,0,0
185719.25,327.579,-506.118,0,0
185979.575,326.098,-502.324,0,0
186239.9,324.844,-498.452,0,0
186500,323.875,-494.362,0,0
186761,323.147,-489.95,0,0
187021,323.016,-485.221,0,0
187281,323.797,-480.584,0,0
187542,325.124,-476.583,0,0
187802,326.416,-473.086,0,0
188062,327.609,-469.692,0,0
188322,328.951,-466.246,0,0
188583,330.746,-462.92,0,0
188843,332.798,-460.261,0,0
189103,334.273,-458.182,0,0
189364,335.188,-455.857,0,0
189624,335.984,-453.015,0,0
189884,337.181,-449.899,0,0
190145,338.627,-446.742,0,0
190405,340.266,-443.553,0,0
190665,342.268,-440.421,0,0
190926,344.459,-437.577,0,0
191186,346.65,-435.025,0,0
191446,348.614,-432.582,0,0
191707,350.403,-429.958,0,0
191967,352.409,-427.063,0,0
192227,354.68,-424.279,0,0
192488,356.902,-421.67,0,0
192748,358.885,-418.963,0,0
193008,360.866,-415.775,0,0
193269,363.255,-412.184,0,0
193529,366.295,-408.567,0,0
193789,369.518,-405.191,0,0
194050,372.807,-401.538,0,0
194310,376.725,-397.442,0,0
194570,381.751,-393.265,0,0
194831,387.899,-389.734,0,0
195091,394.599,-387.205,0,0
195351,401.639,-385.66,0,0
195612,408.675,-385.228,0,0
195872,415.497,-385.644,0,0
196132,421.962,-386.882,0,0
196393,427.674,-389.031,0,0
196653,432.694,-391.024,0,0
196913,437.448,-393.171,0,0
197174,441.808,-395.995,0,0
197434,445.042,-399.181,0,0
197694,447.449,-401.926,0,0
197955,449.544,-404.235,0,0
198215,451.386,-406.388,0,0
198475,452.811,-408.404,0,0
198735,453.817,-410.072,0,0
198996,453.905,-411.298,0,0
199256,454.034,-410.892,0,0
199516,455.278,-409.702,0,0
199777,457.595,-408.606,0,0
200037,460.372,-408.258,0,0
200297,463.053,-408.688,0,0
200558,464.729,-409.338,0,0
200818,465.966,-409.164,0,0
201078,467.511,-408.185,0,0
201339,469.678,-407.231,0,0
201599,471.81,-406.332,0,0
201859,473.909,-405.209,0,0
202120,476.103,-403.617,0,0
202380.025,478.828,-401.405,0,0
202640.35,482.518,-399.172,0,0
202900.675,486.934,-397.284,0,0
203161.0,491.49,-395.748,0,0
203421.325,496.415,-394.336,0,0
203681.65,501.9,-393.094,0,0
203941.975,507.963,-392.357,0,0
204202.3,514.248,-392.308,0,0
204462.625,520.554,-392.972,0,0
204722.95,526.676,-394.02,0,0
204983.275,532.951,-395.223,0,0
205243.6,539.589,-397.355,0,0
205503.925,545.956,-400.513,0,0
205764.25,551.401,-404.552,0,0
206024.575,555.73,-408.649,0,0
206284.9,559.171,-412.573,0,0
206545.225,561.968,-415.969,0,0
206805.55,564.453,-418.749,0,0
207065.875,566.789,-420.638,0,0
207326.2,569.698,-422.146,0,0
207586.525,572.859,-423.543,0,0
207846.85,576.171,-424.653,0,0
208107.175,579.753,-425.367,0,0
208367.5,584.07,-425.857,0,0
208627.825,589.231,-426.472,0,0
208888.15,594.753,-427.591,0,0
209148.475,600.662,-429.002,0,0
209408.8,606.95,-430.881,0,0
209669.125,613.643,-433.156,0,0
209929.45,620.613,-436.174,0,0
210189.775,627.544,-440.173,0,0
210450.1,634.183,-444.665,0,0
210710.425,640.556,-449.623,0,0
210970.75,646.753,-454.967,0,0
211231.075,652.528,-460.7,0,0
211491.4,658.106,-466.627,0,0
211751.725,663.455,-472.841,0,0
212012.05,668.508,-479.357,0,0
212272.375,673.138,-486.047,0,0
212532.7,677.495,-492.649,0,0
212793.025,681.9,-499.121,0,0
213053.35,686.602,-505.797,0,0
213313.675,691.278,-512.995,0,0
213574.0,695.817,-520.807,0,0
213834.325,700.024,-528.934,0,0
214094.65,703.907,-537.551,0,0
214354.975,707.318,-546.429,0,0
214615.3,710.209,-555.707,0,0
214875.625,712.436,-565.126,0,0
215135.95,714.468,-574.471,0,0
215396.275,715.937,-584.149,0,0
215656.6,716.614,-593.83,0,0
215916.925,717.006,-602.883,0,0
216177.25,717.443,-611.795,0,0
216437.575,718.173,-620.969,0,0
216697.9,718.691,-630.685,0,0
216958.225,718.616,-641.023,0,0
217218.55,717.435,-651.625,0,0
217478.875,715.169,-661.764,0,0
217739.2,712.899,-671.116,0,0
217999.525,710.463,-680.538,0,0
218259.85,707.508,-690.113,0,0
218520,704.221,-699.463,0,0
218780,700.276,-708.651,0,0
219041,695.658,-717.639,0,0
219301,690.428,-725.775,0,0
219561,685.205,-732.725,0,0
219822,680.44,-739.304,0,0
220082,676.042,-745.577,0,0
220342,672.366,-751.819,0,0
220603,669.188,-758.723,0,0
220863,665.949,-766.492,0,0
221123,661.742,-775.144,0,0
221384,656.34,-783.801,0,0
221644,650.204,-792.223,0,0
221904,643.258,-800.195,0,0
222165,635.853,-807.823,0,0
222425,627.314,-815.053,0,0
222685,618.182,-821.071,0,0
222946,609.185,-825.895,0,0
223206,600.041,-830.37,0,0
223466,590.963,-834.021,0,0
223727,581.59,-836.882,0,0
223987,572.619,-838.787,0,0
224247,564.321,-839.678,0,0
224508,556.583,-840.321,0,0
224768,549.245,-840.296,0,0
225028,542.464,-840.337,0,0
225289,536.262,-840.009,0,0
225549,530.788,-839.362,0,0
225809,526.067,-839.071,0,0
226070,521.999,-838.689,0,0
226330,518.527,-839.075,0,0
226590,515.368,-840.091,0,0
226851,512.165,-841.682,0,0
227111,508.535,-844.24,0,0
227371,504.389,-846.652,0,0
227632,499.888,-849.142,0,0
227892,494.998,-851.62,0,0
228152,489.914,-853.795,0,0
228413,484.737,-855.841,0,0
228673,479.573,-857.91,0,0
228933,474.206,-860.076,0,0
229193,468.46,-862.248,0,0
229454,462.438,-863.985,0,0
229714,456.322,-865.443,0,0
229974,450.065,-866.801,0,0
230235,443.742,-867.685,0,0
230495,437.344,-868.22,0,0
230755,431.143,-868.626,0,0
231016,424.7,-868.729,0,0
231276,418.527,-868.475,0,0
231536,412.534,-868.05,0,0
231797,406.699,-867.303,0,0
232057,401.036,-866.495,0,0
232317,395.624,-865.512,0,0
232578,390.357,-864.512,0,0
232838,385.284,-863.512,0,0
233098,380.287,-862.516,0,0
233359,375.267,-861.476,0,0
233619,370.352,-860.346,0,0
233879,365.673,-859.171,0,0
234140,361.014,-858.069,0,0
234400,356.48,-857.172,0,0
234660.3,351.747,-856.229,0,0
234920.625,346.928,-855.189,0,0
235180.95,342.25,-853.973,0,0
235441.275,337.527,-852.747,0,0
235701.6,332.809,-851.493,0,0
235961.925,327.929,-850.268,0,0
236222.25,322.984,-848.85,0,0
236482.575,318.089,-847.213,0,0
236742.9,313.136,-845.395,0,0
237003.225,308.295,-843.436,0,0
237263.55,303.574,-841.277,0,0
237523.875,298.916,-839.128,0,0
237784.2,294.206,-836.832,0,0
238044.525,289.561,-834.336,0,0
238304.85,284.941,-831.668,0,0
238565.175,280.43,-828.875,0,0
238825.5,275.992,-825.779,0,0
239085.825,271.699,-822.563,0,0
239346.15,267.603,-819.016,0,0
239606.475,263.698,-815.497,0,0
239866.8,260.186,-811.756,0,0
240127.125,256.731,-807.933,0,0
240387.45,253.631,-804.286,0,0
240647.775,250.73,-800.399,0,0
240908.1,248.055,-796.588,0,0
241168.425,245.483,-792.72,0,0
241428.75,243.287,-789.028,0,0
241689.075,241.169,-785.394,0,0
241949.4,239.052,-781.853,0,0
242209.725,236.971,-778.18,0,0
242470.05,235.234,-774.387,0,0
242730.375,233.798,-770.69,0,0
242990.7,232.606,-767.217,0,0
243251.025,231.398,-764,0,0
243511.35,230.195,-760.765,0,0
243771.675,229.161,-757.507,0,0
244032.0,228.338,-754.308,0,0
244292.325,227.822,-751.367,0,0
244552.65,227.206,-748.74,0,0
244812.975,226.586,-746.256,0,0
245073.3,225.72,-744.03,0,0
245333.625,224.901,-741.818,0,0
245593.95,223.851,-739.419,0,0
245854.275,222.822,-737.173,0,0
246114.6,221.797,-734.716,0,0
246374.925,220.861,-732.223,0,0
246635.25,220.013,-729.8,0,0
246895.575,219.24,-727.493,0,0
247155.9,218.469,-725.076,0,0
247416.225,217.668,-722.839,0,0
247676.55,216.89,-720.45,0,0
247936.875,216.226,-717.998,0,0
248197.2,215.551,-715.57,0,0
248457.525,215.063,-713.2,0,0
248717.85,214.687,-710.742,0,0
248978.175,214.614,-708.469,0,0
249238.5,214.587,-706.24,0,0
249498.825,214.53,-704.402,0,0
249759.15,214.553,-702.602,0,0
250019.475,214.322,-700.955,0,0
250279.8,214.226,-699.404,0,0
250540,214.121,-697.935,0,0
250800,213.857,-696.734,0,0
251061,213.422,-695.587,0,0
251321,212.892,-694.501,0,0
251581,212.094,-693.38,0,0
251842,211.071,-692.352,0,0
252102,209.887,-691.047,0,0
252362,208.595,-689.63,0,0
252623,207.157,-688.045,0,0
252883,205.738,-686.236,0,0
253143,204.24,-684.213,0,0
253404,202.776,-681.978,0,0
253664,201.322,-679.492,0,0
253924,200.1,-676.713,0,0
254185,198.993,-673.719,0,0
254445,198.313,-670.569,0,0
254705,197.793,-667.445,0,0
254966,197.449,-664.244,0,0
255226,197.389,-661.012,0,0
255486,197.386,-657.863,0,0
255747,197.594,-654.677,0,0
256007,197.973,-651.2,0,0
256267,198.797,-647.72,0,0
256528,200.047,-644.365,0,0
256788,201.691,-641.266,0,0
257048,203.504,-638.402,0,0
257309,205.547,-635.812,0,0
257569,207.825,-633.486,0,0
257829,210.24,-631.613,0,0
258090,212.629,-630.121,0,0
258350,214.839,-628.964,0,0
258610,216.795,-627.989,0,0
258871,218.577,-626.976,0,0
259131,220.394,-625.871,0,0
259391,222.31,-624.762,0,0
259651,224.385,-623.569,0,0
259912,226.742,-622.422,0,0
260172,229.485,-621.578,0,0
260432,232.442,-621.198,0,0
260693,235.377,-621.331,0,0
260953,238.334,-621.843,0,0
261213,241.127,-622.682,0,0
261474,243.926,-624.01,0,0
261734,246.425,-625.768,0,0
261994,248.641,-627.946,0,0
262255,250.383,-630.358,0,0
262515,251.792,-633.017,0,0
262775,252.781,-635.856,0,0
263036,253.32,-638.779,0,0
263296,253.46,-641.725,0,0
263556,253.16,-644.66,0,0
263817,252.488,-647.509,0,0
264077,251.428,-650.307,0,0
264337,250.113,-652.952,0,0
264598,248.275,-655.343,0,0
264858,246.311,-657.643,0,0
265118,244.139,-659.658,0,0
265379,241.537,-661.392,0,0
265639,238.754,-663.017,0,0
265899,235.606,-664.168,0,0
266160,232.395,-664.919,0,0
266420,229.143,-665.122,0,0
266680.25,225.993,-664.989,0,0
266940.575,222.952,-664.586,0,0
267200.9,219.992,-663.914,0,0
267461.225,217.112,-662.942,0,0
267721.55,214.448,-661.749,0,0
267981.875,211.979,-660.247,0,0
268242.2,209.658,-658.624,0,0
268502.525,207.605,-656.846,0,0
268762.85,205.791,-654.995,0,0
269023.175,204.158,-653.063,0,0
269283.5,202.723,-651.07,0,0
269543.825,201.526,-649.081,0,0
269804.15,200.511,-647.173,0,0
270064.475,199.573,-645.288,0,0
270324.8,198.734,-643.479,0,0
270585.125,198.064,-641.581,0,0
270845.45,197.435,-639.696,0,0
271105.775,196.965,-637.818,0,0
271366.1,196.65,-635.997,0,0
271626.425,196.506,-634.262,0,0
271886.75,196.451,-632.611,0,0
272147.075,196.426,-631.059,0,0
272407.4,196.39,-629.636,0,0
272667.725,196.508,-628.159,0,0
272928.05,196.65,-626.862,0,0
273188.375,196.714,-625.666,0,0
273448.7,196.707,-624.483,0,0
273709.025,196.704,-623.201,0,0
273969.35,196.77,-621.896,0,0
274229.675,196.819,-620.618,0,0
274490.0,196.976,-619.211,0,0
274750.325,197.238,-617.703,0,0
275010.65,197.735,-616.307,0,0
275270.975,198.348,-614.916,0,0
275531.3,199.114,-613.607,0,0
275791.625,199.939,-612.445,0,0
276051.95,200.832,-611.273,0,0
276312.275,201.962,-610.099,0,0
276572.6,203.281,-609.101,0,0
276832.925,204.801,-608.297,0,0
277093.25,206.507,-607.742,0,0
277353.575,208.373,-607.561,0,0
277613.9,210.227,-607.825,0,0
277874.225,211.908,-608.47,0,0
278134.55,213.415,-609.411,0,0
278394.875,214.682,-610.551,0,0
278655.2,215.681,-611.938,0,0
278915.525,216.492,-613.419,0,0
279175.85,217.055,-615.06,0,0
279436.175,217.354,-616.832,0,0
279696.5,217.329,-618.683,0,0
279956.825,216.999,-620.604,0,0
280217.15,216.275,-622.459,0,0
280477.475,215.118,-624.201,0,0
280737.8,213.716,-625.663,0,0
280998.125,212.091,-626.807,0,0
281258.45,210.475,-627.58,0,0
281518.775,208.92,-628.166,0,0
281779.1,207.431,-628.626,0,0
282039.425,205.995,-629.042,0,0
282299.75,204.556,-629.397,0,0
282560,203.12,-629.688,0,0
282820,201.646,-629.973,0,0
283081,200.073,-630.21,0,0
283341,198.394,-630.364,0,0
283601,196.662,-630.339,0,0
283862,194.868,-630.171,0,0
284122,193.117,-629.813,0,0
284382,191.495,-629.297,0,0
284643,189.872,-628.761,0,0
284903,188.323,-628.091,0,0
285163,186.847,-627.406,0,0
285424,185.32,-626.673,0,0
285684,183.827,-625.808,0,0
285944,182.418,-624.868,0,0
286205,181.042,-623.816,0,0
286465,179.728,-622.667,0,0
286725,178.446,-621.411,0,0
286986,177.294,-620.016,0,0
287246,176.264,-618.452,0,0
287506,175.447,-616.838,0,0
287767,174.871,-615.198,0,0
288027,174.528,-613.56,0,0
288287,174.376,-612.059,0,0
288548,174.391,-610.624,0,0
288808,174.571,-609.376,0,0
289068,174.888,-608.229,0,0
289329,175.293,-607.332,0,0
289589,175.695,-606.711,0,0
289849,176.007,-606.298,0,0
290109,176.169,-606.068,0,0
290370,176.188,-605.828,0,0
290630,176.034,-605.664,0,0
290890,175.803,-605.358,0,0
291151,175.564,-605.092,0,0
291411,175.269,-604.81,0,0
291671,174.914,-604.481,0,0
291932,174.539,-604.128,0,0
292192,174.14,-603.777,0,0
292452,173.761,-603.368,0,0
292713,173.282,-602.945,0,0
292973,172.865,-602.408,0,0
293233,172.417,-601.784,0,0
293494,172.073,-601.056,0,0
293754,171.849,-600.255,0,0
294014,171.804,-599.442,0,0
294275,171.941,-598.728,0,0
294535,172.175,-598.105,0,0
294795,172.491,-597.626,0,0
295056,172.921,-597.299,0,0
295316,173.279,-597.093,0,0
295576,173.739,-597.007,0,0
295837,174.183,-597.161,0,0
296097,174.53,-597.47,0,0
296357,174.757,-597.955,0,0
296618,174.826,-598.506,0,0
296878,174.779,-599.112,0,0
297138,174.631,-599.761,0,0
297399,174.363,-600.457,0,0
297659,173.964,-601.201,0,0
297919,173.441,-601.961,0,0
298180,172.76,-602.737,0,0
298440,171.939,-603.478,0,0
298700.2,170.964,-604.18,0,0
298960.525,169.85,-604.781,0,0
299220.85,168.621,-605.282,0,0
299481.175,167.35,-605.66,0,0
299741.5,166.05,-605.903,0,0
300001.825,164.729,-606.096,0,0
300262.15,163.405,-606.177,0,0
300522.475,162.071,-606.218,0,0
300782.8,160.719,-606.225,0,0
301043.125,159.347,-606.165,0,0
301303.45,157.966,-606.019,0,0
301563.775,156.578,-605.851,0,0
301824.1,155.135,-605.625,0,0
302084.425,153.695,-605.313,0,0
302344.75,152.235,-604.902,0,0
302605.075,150.787,-604.41,0,0
302865.4,149.375,-603.844,0,0
303125.725,148.006,-603.217,0,0
303386.05,146.683,-602.533,0,0
303646.375,145.397,-601.817,0,0
303906.7,144.105,-601.042,0,0
304167.025,142.878,-600.24,0,0
304427.35,141.631,-599.384,0,0
304687.675,140.435,-598.45,0,0
304948.0,139.296,-597.438,0,0
305208.325,138.251,-596.433,0,0
305468.65,137.318,-595.421,0,0
305728.975,136.404,-594.391,0,0
305989.3,135.524,-593.365,0,0
306249.625,134.652,-592.344,0,0
306509.95,133.809,-591.298,0,0
306770.275,133.061,-590.195,0,0
307030.6,132.384,-589.1,0,0
307290.925,131.753,-587.953,0,0
307551.25,131.241,-586.884,0,0
307811.575,130.791,-585.808,0,0
308071.9,130.427,-584.876,0,0
308332.225,130.089,-583.995,0,0
308592.55,129.766,-583.238,0,0
308852.875,129.408,-582.496,0,0
309113.2,129.028,-581.853,0,0
309373.525,128.62,-581.24,0,0
309633.85,128.161,-580.66,0,0
309894.175,127.671,-580.144,0,0
310154.5,127.083,-579.611,0,0
310414.825,126.44,-579.058,0,0
310675.15,125.769,-578.509,0,0
310935.475,125.039,-577.936,0,0
311195.8,124.275,-577.303,0,0
311456.125,123.49,-576.603,0,0
311716.45,122.71,-575.86,0,0
311976.775,121.932,-575.104,0,0
312237.1,121.169,-574.319,0,0
312497.425,120.381,-573.509,0,0
312757.75,119.585,-572.636,0,0
313018.075,118.746,-571.733,0,0
313278.4,117.925,-570.743,0,0
313538.725,117.131,-569.645,0,0
313799.05,116.361,-568.479,0,0
314059.375,115.718,-567.243,0,0
314319.7,115.122,-565.989,0,0
314580,114.67,-564.664,0,0
314840,114.189,-563.381,0,0
315101,113.839,-562.055,0,0
315361,113.615,-560.706,0,0
315621,113.454,-559.303,0,0
315882,113.458,-558.099,0,0
316142,113.499,-556.822,0,0
316402,113.627,-555.68,0,0
316663,113.844,-554.615,0,0
316923,114.083,-553.669,0,0
317183,114.337,-552.773,0,0
317444,114.729,-552.016,0,0
317704,114.905,-551.28,0,0
317964,115.171,-550.729,0,0
318225,115.398,-550.142,0,0
318485,115.593,-549.716,0,0
318745,115.624,-549.274,0,0
319006,115.598,-548.838,0,0
319266,115.628,-548.369,0,0
319526,115.661,-547.924,0,0
319787,115.555,-547.525,0,0
320047,115.542,-547.107,0,0
320307,115.419,-546.625,0,0
320567,115.372,-546.194,0,0
320828,115.34,-545.746,0,0
321088,115.262,-545.296,0,0
321348,115.277,-544.784,0,0
321609,115.301,-544.33,0,0
321869,115.382,-543.937,0,0
322129,115.471,-543.586,0,0
322390,115.561,-543.3,0,0
322650,115.718,-543.121,0,0
322910,115.769,-542.931,0,0
323171,115.762,-542.97,0,0
323431,115.72,-542.907,0,0
323691,115.649,-542.951,0,0
323952,115.397,-542.989,0,0
324212,115.2,-543.1,0,0
324472,114.945,-543.231,0,0
324733,114.516,-543.343,0,0
324993,114.102,-543.4,0,0
325253,113.59,-543.486,0,0
325514,113.091,-543.606,0,0
325774,112.414,-543.614,0,0
326034,111.675,-543.655,0,0
326295,110.846,-543.635,0,0
326555,110.138,-543.545,0,0
326815,109.368,-543.407,0,0
327076,108.499,-543.199,0,0
327336,107.694,-542.984,0,0
327596,106.736,-542.664,0,0
327857,105.886,-542.262,0,0
328117,104.993,-541.892,0,0
328377,104.223,-541.405,0,0
328638,103.346,-540.967,0,0
328898,102.516,-540.393,0,0
329158,101.848,-539.956,0,0
329419,101.126,-539.414,0,0
329679,100.415,-538.987,0,0
329939,99.6013,-538.546,0,0
330200,98.858,-538.065,0,0
330460,98.0614,-537.568,0,0
330720.15,97.1686,-537.08,0,0
330980.475,96.3684,-536.506,0,0
331240.8,95.4897,-535.935,0,0
331501.125,94.5884,-535.376,0,0
331761.45,93.7654,-534.692,0,0
332021.775,92.8128,-534.075,0,0
332282.1,91.9001,-533.356,0,0
332542.425,90.9608,-532.604,0,0
332802.75,90.0468,-531.895,0,0
333063.075,89.1533,-530.979,0,0
333323.4,88.2548,-530.123,0,0
333583.725,87.414,-529.24,0,0
333844.05,86.6168,-528.287,0,0
334104.375,85.7547,-527.3,0,0
334364.7,84.915,-526.284,0,0
334625.025,84.1152,-525.265,0,0
334885.35,83.3431,-524.161,0,0
335145.675,82.5445,-522.962,0,0
335406.0,81.8213,-521.754,0,0
335666.325,81.1986,-520.522,0,0
335926.65,80.6079,-519.322,0,0
336186.975,80.1137,-518.019,0,0
336447.3,79.5987,-516.744,0,0
336707.625,79.2269,-515.584,0,0
336967.95,78.8023,-514.292,0,0
337228.275,78.4395,-513.018,0,0
337488.6,78.0866,-511.737,0,0
337748.925,77.8599,-510.578,0,0
338009.25,77.5312,-509.336,0,0
338269.575,77.3178,-508.147,0,0
338529.9,76.9916,-506.917,0,0
338790.225,76.7996,-505.543,0,0
339050.55,76.5859,-504.315,0,0
339310.875,76.4284,-502.93,0,0
339571.2,76.362,-501.637,0,0
339831.525,76.4404,-500.331,0,0
340091.85,76.4572,-499.076,0,0
340352.175,76.5809,-497.737,0,0
340612.5,76.8066,-496.455,0,0
340872.825,77.1063,-495.232,0,0
341133.15,77.4548,-494.025,0,0
341393.475,77.9084,-492.957,0,0
341653.8,78.3472,-491.958,0,0
341914.125,78.8027,-491.052,0,0
342174.45,79.2374,-490.173,0,0
342434.775,79.732,-489.322,0,0
342695.1,80.2965,-488.646,0,0
342955.425,80.7322,-488.053,0,0
343215.75,81.1667,-487.502,0,0
343476.075,81.5588,-486.979,0,0
343736.4,81.9005,-486.562,0,0
343996.725,82.237,-486.194,0,0
344257.05,82.423,-485.855,0,0
344517.375,82.6885,-485.56,0,0
344777.7,82.7781,-485.259,0,0
345038.025,82.8625,-484.97,0,0
345298.35,82.8404,-484.614,0,0
345558.675,82.7945,-484.254,0,0
345819.0,82.7563,-483.871,0,0
346079.325,82.6658,-483.5,0,0
346339.65,82.5986,-483.101,0,0
346599.975,82.4566,-482.678,0,0
346860,82.2778,-482.191,0,0
347121,82.1206,-481.726,0,0
347381,81.946,-481.269,0,0
347641,81.8052,-480.661,0,0
347902,81.5744,-480.157,0,0
348162,81.3733,-479.512,0,0
348422,81.2195,-478.807,0,0
348683,81.0967,-478.183,0,0
348943,81.0513,-477.382,0,0
349203,81.0539,-476.683,0,0
349464,81.0726,-476.008,0,0
349724,81.1184,-475.35,0,0
349984,81.3029,-474.625,0,0
350245,81.3786,-473.987,0,0
350505,81.5598,-473.335,0,0
350765,81.7619,-472.808,0,0
351025,81.9865,-472.285,0,0
351286,82.2086,-471.803,0,0
351546,82.4579,-471.367,0,0
351806,82.6878,-471.026,0,0
352067,82.8782,-470.755,0,0
352327,83.0091,-470.472,0,0
352587,83.1951,-470.303,0,0
352848,83.2995,-470.13,0,0
353108,83.2299,-470.122,0,0
353368,83.256,-469.946,0,0
353629,83.0739,-469.909,0,0
353889,82.8731,-469.794,0,0
354149,82.5546,-469.689,0,0
354410,82.1691,-469.498,0,0
354670,81.7986,-469.258,0,0
354930,81.3481,-468.959,0,0
355191,80.8818,-468.583,0,0
355451,80.4445,-468.132,0,0
355711,80.066,-467.647,0,0
355972,79.6083,-467.112,0,0
356232,79.257,-466.568,0,0
356492,78.9124,-465.911,0,0
356753,78.5106,-465.302,0,0
357013,78.207,-464.701,0,0
357273,77.9858,-464.045,0,0
357534,77.6996,-463.385,0,0
357794,77.4867,-462.695,0,0
358054,77.2858,-462.06,0,0
358315,77.0474,-461.409,0,0
358575,76.8233,-460.742,0,0
358835,76.6245,-460.057,0,0
359096,76.4231,-459.433,0,0
359356,76.282,-458.695,0,0
359616,76.1023,-457.998,0,0
359877,75.991,-457.232,0,0
360137,75.8864,-456.487,0,0
360397,75.7993,-455.736,0,0
360658,75.7637,-455.027,0,0
360918,75.8089,-454.33,0,0
361178,75.7536,-453.615,0,0
361438,75.7759,-452.897,0,0
361699,75.8289,-452.249,0,0
361959,75.9237,-451.519,0,0
362219,75.9548,-450.777,0,0
362480,76.0684,-450.14,0,0
362740.1,76.2383,-449.489,0,0
363000.425,76.4208,-448.884,0,0
363260.75,76.5594,-448.31,0,0
363521.075,76.7319,-447.811,0,0
363781.4,76.9261,-447.249,0,0
364041.725,77.1309,-446.64,0,0
364302.05,77.3367,-446.115,0,0
364562.375,77.6068,-445.719,0,0
364822.7,77.8917,-445.275,0,0
365083.025,78.2095,-444.94,0,0
365343.35,78.4985,-444.681,0,0
365603.675,78.7157,-444.457,0,0
365864.0,78.9239,-444.339,0,0
366124.325,79.0641,-444.225,0,0
366384.65,79.1786,-444.235,0,0
366644.975,79.1662,-444.303,0,0
366905.3,79.0354,-444.346,0,0
367165.625,78.83,-444.447,0,0
367425.95,78.3747,-444.472,0,0
367686.275,77.8965,-444.407,0,0
367946.6,77.3109,-444.168,0,0
368206.925,76.674,-443.815,0,0
368467.25,76.0298,-443.402,0,0
368727.575,75.4109,-442.808,0,0
368987.9,74.8577,-442.08,0,0
369248.225,74.2581,-441.287,0,0
369508.55,73.868,-440.309,0,0
369768.875,73.5756,-439.325,0,0
370029.2,73.481,-438.291,0,0
370289.525,73.5433,-437.229,0,0
370549.85,73.7129,-436.219,0,0
370810.175,73.9782,-435.362,0,0
371070.5,74.3585,-434.644,0,0
371330.825,74.7932,-434.001,0,0
371591.15,75.2486,-433.555,0,0
371851.475,75.6147,-433.184,0,0
372111.8,75.9633,-432.973,0,0
372372.125,76.2012,-432.799,0,0
372632.45,76.3251,-432.733,0,0
372892.775,76.3311,-432.646,0,0
373153.1,76.2798,-432.603,0,0
373413.425,76.1094,-432.476,0,0
373673.75,75.851,-432.238,0,0
373934.075,75.5611,-432.016,0,0
374194.4,75.217,-431.675,0,0
374454.725,74.951,-431.346,0,0
374715.05,74.5625,-430.923,0,0
374975.375,74.3152,-430.407,0,0
375235.7,73.9759,-429.884,0,0
375496.025,73.6816,-429.338,0,0
375756.35,73.4385,-428.704,0,0
376016.675,73.1695,-428.097,0,0
376277.0,72.9723,-427.422,0,0
376537.325,72.7945,-426.717,0,0
376797.65,72.6644,-426.035,0,0
377057.975,72.5589,-425.254,0,0
377318.3,72.5139,-424.541,0,0
377578.625,72.5289,-423.782,0,0
377838.95,72.61,-423.091,0,0
378099.275,72.7249,-422.351,0,0
378359.6,72.8368,-421.703,0,0
378619.925,73.0413,-421.093,0,0
378880,73.2496,-420.46,0,0
379141,73.412,-419.969,0,0
379401,73.6508,-419.504,0,0
379661,73.8343,-419.012,0,0
379922,74.0445,-418.56,0,0
380182,74.2322,-418.127,0,0
380442,74.4254,-417.722,0,0
380703,74.5416,-417.314,0,0
380963,74.6681,-416.952,0,0
381223,74.7829,-416.576,0,0
381483,74.9265,-416.288,0,0
381744,75.1338,-415.867,0,0
382004,75.2476,-415.581,0,0
382264,75.4585,-415.33,0,0
382525,75.5673,-415.104,0,0
382785,75.7156,-414.931,0,0
383045,75.7981,-414.761,0,0
383306,75.7861,-414.672,0,0
383566,75.6841,-414.558,0,0
383826,75.5879,-414.42,0,0
384087,75.4216,-414.283,0,0
384347,75.1421,-414.065,0,0
384607,74.9441,-413.855,0,0
384868,74.651,-413.6,0,0
385128,74.3439,-413.242,0,0
385388,74.0439,-412.909,0,0
385649,73.7852,-412.458,0,0
385909,73.4679,-412.037,0,0
386169,73.1891,-411.602,0,0
386430,72.9313,-411.138,0,0
386690,72.6144,-410.628,0,0
386950,72.3039,-409.972,0,0
387211,72.0833,-409.382,0,0
387471,71.8557,-408.753,0,0
387731,71.7018,-408.094,0,0
387992,71.5401,-407.465,0,0
388252,71.4165,-406.808,0,0
388512,71.2908,-406.128,0,0
388773,71.1744,-405.435,0,0
389033,71.0808,-404.709,0,0
389293,71.0328,-404.017,0,0
389554,71.0012,-403.277,0,0
389814,71.0067,-402.589,0,0
390074,71.0215,-401.781,0,0
390335,71.0795,-401.045,0,0
390595,71.218,-400.277,0,0
390855,71.393,-399.541,0,0
391116,71.5449,-398.793,0,0
391376,71.7543,-398.06,0,0
391636,71.9743,-397.319,0,0
391896,72.3297,-396.695,0,0
392157,72.6327,-396.009,0,0
392417,72.9392,-395.36,0,0
392677,73.3362,-394.784,0,0
392938,73.6977,-394.17,0,0
393198,74.1231,-393.646,0,0
393458,74.5733,-393.134,0,0
393719,75.0249,-392.646,0,0
393979,75.5315,-392.219,0,0
394239,76.0112,-391.877,0,0
394500,76.5108,-391.5,0,0
394760.05,77.0122,-391.252,0,0
395020.375,77.4603,-391.018,0,0
395280.7,77.9402,-390.844,0,0
395541.025,78.3977,-390.72,0,0
395801.35,78.8098,-390.587,0,0
396061.675,79.2196,-390.533,0,0
396322.0,79.5954,-390.532,0,0
396582.325,79.9291,-390.548,0,0
396842.65,80.2681,-390.608,0,0
397102.975,80.5365,-390.674,0,0
397363.3,80.7165,-390.788,0,0
397623.625,80.8907,-390.935,0,0
397883.95,80.9992,-391.062,0,0
398144.275,81.0301,-391.197,0,0
398404.6,81.0858,-391.352,0,0
398664.925,81.0322,-391.471,0,0
398925.25,81.0051,-391.596,0,0
399185.575,80.8039,-391.751,0,0
399445.9,80.6576,-391.852,0,0
399706.225,80.3986,-391.929,0,0
399966.55,80.1545,-391.941,0,0
400006.6,80.0872,-391.943,0,0