File: Accelerated corrosion test data/2025-09-30_08-18-27/sample_1.csv
Frequency (Hz),Impedance (ohms),Phase (Radians),Temperature (C),Humidity (%)
10000.0,239.072,-12226.7,0,0
10260.325,240.042,-11911.8,0,0
10520.65,228.711,-11632.1,0,0
10780.975,223.857,-11348.1,0,0
11041.3,219.232,-11087.3,0,0
11301.625,212.653,-10829.9,0,0
11561.95,210.193,-10586,0,0
11822.275,206.742,-10346.8,0,0
12082.6,222.671,-10114,0,0
12342.925,207.306,-9939.2,0,0
12603.25,193.86,-9728.51,0,0
12863.575,189.713,-9525.56,0,0
13123.9,195.396,-9332.72,0,0
13384.225,183.552,-9161.15,0,0
13644.55,179.975,-8979.17,0,0
13904.875,180.835,-8801.64,0,0
14165.2,187.006,-8662.44,0,0
14425.525,213.722,-8497.83,0,0
14685.8,200.927,-8331.44,0,0
14946.175,178.301,-8233.94,0,0
15206.5,178.762,-8072.37,0,0
15466.825,175.555,-7945.44,0,0
15727.15,169.51,-7825.32,0,0
15987.5,159.67,-7690.78,0,0
16247.8,156.097,-7565.3,0,0
16508.125,154.975,-7441.84,0,0
16768.45,158.506,-7324.97,0,0
17028.775,162.125,-7219.25,0,0
17289.1,151.772,-7113.17,0,0
17549.425,151.697,-7005.94,0,0
17809.75,148.973,-6906.94,0,0
18070.075,145.92,-6808.24,0,0
18330.4,140.202,-6709.88,0,0
18590.725,137.342,-6614.84,0,0
18851.05,137.446,-6517.6,0,0
19111.375,135.194,-6435.83,0,0
19371.7,132.057,-6343.03,0,0
19632.025,131.22,-6254.47,0,0
19892.35,132.769,-6168.37,0,0
20152.675,135.627,-6081.09,0,0
20413.0,154.063,-5993.72,0,0
20673.3,166.503,-5950.77,0,0
20933.65,151.723,-5883.13,0,0
21193.975,156.603,-5815.63,0,0
21454.3,146.738,-5744.72,0,0
21714.625,138.01,-5679.63,0,0
21974.9,134.051,-5591.75,0,0
22235.275,173.452,-5544.67,0,0
22495.6,142.525,-5507.72,0,0
22755.925,126.737,-5438.16,0,0
23016.25,122.589,-5370.72,0,0
23276.6,118.627,-5310.12,0,0
23536.9,115.87,-5249.1,0,0
23797.225,112.468,-5187.55,0,0
24057.55,114.143,-5125.95,0,0
24317.875,112.271,-5078.35,0,0
24578.2,110.981,-5018.4,0,0
24838.525,110.117,-4968.18,0,0
25098.85,110.529,-4913.6,0,0
25359.175,105.899,-4865.42,0,0
25619.5,104.35,-4813.39,0,0
25879.8,103.273,-4762.09,0,0
26140.1,103.04,-4713,0,0
26400.5,102.306,-4662.43,0,0
26660.8,104.693,-4612.13,0,0
26921.1,112.911,-4565.72,0,0
27181.4,119.378,-4529.54,0,0
27441.8,112.357,-4497.31,0,0
27702.1,104.34,-4448.22,0,0
27962.4,110.92,-4398.73,0,0
28222.7,109.941,-4361.06,0,0
28483.1,120.541,-4315.25,0,0
28743.4,132.427,-4297.79,0,0
29003.7,115.49,-4264.53,0,0
29264,118.492,-4226.16,0,0
29524.4,107.291,-4193.17,0,0
29784.7,104.895,-4151.84,0,0
30045,100.892,-4119.12,0,0
30305.3,99.6241,-4080.1,0,0
30565.7,96.5651,-4041.75,0,0
30826,100.48,-4007.03,0,0
31086.3,103.251,-3977.88,0,0
31346.6,98.6375,-3948.55,0,0
31607,93.5078,-3912.47,0,0
31867.3,96.7279,-3877.58,0,0
32127.6,98.2387,-3847.32,0,0
32387.9,97.3614,-3821.97,0,0
32648.3,92.6773,-3789.66,0,0
32908.6,95.0927,-3760.14,0,0
33168.9,90.3784,-3732.25,0,0
33429.2,88.583,-3704.08,0,0
33689.6,85.9704,-3673.97,0,0
33949.9,85.0037,-3642.8,0,0
34210.2,86.5699,-3616.86,0,0
34470.5,83.4921,-3589.61,0,0
34730.9,81.6944,-3561.85,0,0
34991.2,81.2839,-3534.71,0,0
35251.5,80.245,-3507.77,0,0
35511.8,79.1532,-3481.28,0,0
35772.2,78.9493,-3456.11,0,0
36032.5,77.5372,-3430.29,0,0
36292.8,76.9445,-3405.05,0,0
36553.1,76.3676,-3380.17,0,0
36813.5,75.8346,-3355.59,0,0
37073.8,75.7909,-3331.63,0,0
37334.1,75.2305,-3307.55,0,0
37594.4,74.8735,-3284.52,0,0
37854.8,73.9387,-3261.91,0,0
38115.1,73.263,-3238.7,0,0
38375.4,73.0945,-3215.92,0,0
38635.7,72.7211,-3193.86,0,0
38896.1,72.239,-3171.81,0,0
39156.4,72.161,-3150.15,0,0
39416.7,72.2616,-3129.4,0,0
39677,71.174,-3108.37,0,0
39937.4,70.9727,-3087.11,0,0
40197.7,71.0898,-3066.59,0,0
40458,70.6166,-3046.64,0,0
40718.3,70.7571,-3025.59,0,0
40978.7,72.026,-3006.48,0,0
41239,71.9819,-2987.88,0,0
41499.3,71.3266,-2970.01,0,0
41759.6,70.6197,-2951.5,0,0
42020,69.7314,-2931.78,0,0
42280.275,70.0809,-2913.53,0,0
42540.6,70.8675,-2895.81,0,0
42800.925,69.9323,-2878.92,0,0
43061.25,69.0814,-2860.36,0,0
43321.575,68.83,-2843.54,0,0
43581.9,68.1368,-2826.51,0,0
43842.225,67.6402,-2808.47,0,0
44102.55,68.049,-2790.94,0,0
44362.875,68.6073,-2774.01,0,0
44623.2,69.1273,-2758.53,0,0
44883.525,68.6766,-2742.66,0,0
45143.85,68.2108,-2726.85,0,0
45404.175,68.5043,-2711.48,0,0
45664.5,67.7985,-2695.94,0,0
45924.825,67.0257,-2681.01,0,0
46185.15,66.6957,-2666.03,0,0
46445.475,65.3744,-2650.49,0,0
46705.8,65.0468,-2635.43,0,0
46966.125,64.6481,-2620.41,0,0
47226.45,64.412,-2605.11,0,0
47486.775,64.6323,-2591.04,0,0
47747.1,63.7836,-2576.78,0,0
48007.425,63.3844,-2562.38,0,0
48267.75,63.2775,-2548.09,0,0
48528.075,62.4144,-2534.69,0,0
48788.4,61.7443,-2520.41,0,0
49048.725,61.589,-2506.45,0,0
49309.05,61.3742,-2492.89,0,0
49569.375,60.916,-2479.36,0,0
49829.7,60.655,-2465.84,0,0
50090.025,60.3581,-2452.8,0,0
50350.35,59.7891,-2439.53,0,0
50610.675,59.5602,-2426.56,0,0
50871.0,59.3064,-2413.38,0,0
51131.325,59.2716,-2400.69,0,0
51391.65,59.0968,-2388.36,0,0
51651.975,58.7267,-2376.01,0,0
51912.3,58.4505,-2363.32,0,0
52172.625,58.4654,-2351.15,0,0
52432.95,57.943,-2339.01,0,0
52693.275,57.8595,-2326.94,0,0
52953.6,57.6312,-2314.87,0,0
53213.925,57.8307,-2303.05,0,0
53474.25,57.5934,-2291.51,0,0
53734.575,57.489,-2279.99,0,0
53994.9,57.3381,-2268.83,0,0
54255.225,56.8203,-2257.71,0,0
54515.55,56.4903,-2246.41,0,0
54775.875,56.126,-2235.39,0,0
55036.2,55.9077,-2223.95,0,0
55296.525,55.8942,-2212.84,0,0
55556.85,55.9296,-2202.21,0,0
55817.175,55.6996,-2191.81,0,0
56077.5,55.0953,-2180.83,0,0
56337.825,55.1372,-2170.14,0,0
56598.15,55.0539,-2159.63,0,0
56858.475,54.7929,-2149.26,0,0
57118.8,54.691,-2138.84,0,0
57379.125,54.6762,-2128.3,0,0
57639.45,54.7532,-2118.41,0,0
57899.775,54.6573,-2108.39,0,0
58160.1,54.5236,-2098.58,0,0
58420.4,54.4841,-2088.73,0,0
58680.7,54.3804,-2078.98,0,0
58941.1,54.326,-2069.16,0,0
59201.4,54.5696,-2059.5,0,0
59461.7,54.633,-2050.53,0,0
59722,54.3854,-2041.03,0,0
59982.4,54.1796,-2031.6,0,0
60242.7,54.1574,-2022.4,0,0
60503,54.2233,-2012.97,0,0
60763.3,54.541,-2004.32,0,0
61023.7,54.0358,-1995.77,0,0
61284,53.5878,-1986.62,0,0
61544.3,53.3906,-1977.5,0,0
61804.6,53.7172,-1968.72,0,0
62065,53.1841,-1960.47,0,0
62325.3,52.8413,-1951.46,0,0
62585.6,52.7289,-1942.74,0,0
62845.9,52.7351,-1933.66,0,0
63106.3,52.6856,-1925.21,0,0
63366.6,52.5504,-1916.58,0,0
63626.9,52.6974,-1908.04,0,0
63887.2,52.792,-1899.72,0,0
64147.6,52.8479,-1891.29,0,0
64407.9,53.0246,-1883.05,0,0
64668.2,53.1003,-1874.52,0,0
64928.5,53.4506,-1866.46,0,0
65188.9,54.0494,-1858.37,0,0
65449.2,54.862,-1850.75,0,0
65709.5,55.5028,-1843.58,0,0
65969.8,55.4211,-1836.56,0,0
66230.2,55.1484,-1829.41,0,0
66490.5,54.9067,-1821.95,0,0
66750.8,55.1485,-1814.83,0,0
67011.1,54.3693,-1808.02,0,0
67271.5,53.8004,-1799.81,0,0
67531.8,54.4168,-1792.45,0,0
67792.1,54.6736,-1785.52,0,0
68052.4,54.3018,-1779.04,0,0
68312.8,53.6281,-1771.67,0,0
68573.1,53.5065,-1764.35,0,0
68833.4,53.676,-1757.21,0,0
69093.7,53.6062,-1750.61,0,0
69354.1,53.1986,-1743.74,0,0
69614.4,52.7761,-1737.19,0,0
69874.7,52.3106,-1730.41,0,0
70135,51.847,-1723.35,0,0
70395.4,51.4184,-1716.59,0,0
70655.7,51.0281,-1709.61,0,0
70916,50.7649,-1702.51,0,0
71176.3,50.6292,-1695.47,0,0
71436.7,50.5553,-1689.22,0,0
71697,49.912,-1682.66,0,0
71957.3,49.3769,-1675.73,0,0
72217.6,49.1029,-1668.77,0,0
72478,48.9223,-1662.06,0,0
72738.3,48.6066,-1655.16,0,0
72998.6,48.6628,-1648.36,0,0
73258.9,48.4772,-1641.65,0,0
73519.3,48.4497,-1635.09,0,0
73779.6,48.3286,-1628.47,0,0
74039.9,48.3277,-1621.81,0,0
74300.225,48.4467,-1615.38,0,0
74560.55,48.5149,-1608.92,0,0
74820.875,48.6593,-1602.47,0,0
75081.2,48.636,-1596.35,0,0
75341.525,48.5216,-1590.01,0,0
75601.85,48.6323,-1583.52,0,0
75862.175,48.8354,-1577.11,0,0
76122.5,49.2468,-1571,0,0
76382.825,49.6641,-1565.12,0,0
76643.15,49.7082,-1559.23,0,0
76903.475,49.7869,-1553.22,0,0
77163.8,50.1113,-1547.23,0,0
77424.125,50.13,-1541.5,0,0
77684.45,50.2792,-1535.47,0,0
77944.775,50.573,-1529.63,0,0
78205.1,50.9843,-1523.72,0,0
78465.425,51.6528,-1518.31,0,0
78725.75,52.0034,-1512.99,0,0
78986.075,52.115,-1507.84,0,0
79246.4,52.0408,-1502.61,0,0
79506.725,52.1028,-1497.35,0,0
79767.05,51.8758,-1492.25,0,0
80027.375,51.6793,-1486.82,0,0
80287.7,51.2096,-1481.49,0,0
80548.025,51.1376,-1475.69,0,0
80808.35,51.0445,-1470.23,0,0
81068.675,50.9691,-1464.67,0,0
81329.0,51.13,-1459.13,0,0
81589.325,51.1507,-1453.76,0,0
81849.65,51.1494,-1448.42,0,0
82109.975,51.2241,-1442.93,0,0
82370.3,51.2184,-1437.55,0,0
82630.625,51.2869,-1432.19,0,0
82890.95,51.4155,-1426.63,0,0
83151.275,51.6658,-1421.19,0,0
83411.6,52.0721,-1415.88,0,0
83671.925,52.4171,-1410.61,0,0
83932.25,52.7741,-1405.42,0,0
84192.575,53.2108,-1400.39,0,0
84452.9,53.6249,-1395.37,0,0
84713.225,53.9993,-1390.37,0,0
84973.55,54.4256,-1385.43,0,0
85233.875,54.8865,-1380.72,0,0
85494.2,55.1443,-1376.02,0,0
85754.525,55.3645,-1371.33,0,0
86014.85,55.4569,-1366.47,0,0
86275.175,55.8714,-1361.63,0,0
86535.5,56.3012,-1357.08,0,0
86795.825,56.2634,-1352.46,0,0
87056.15,56.5902,-1347.56,0,0
87316.475,57.0207,-1343.27,0,0
87576.8,57.0657,-1338.87,0,0
87837.125,56.7513,-1334.24,0,0
88097.45,56.7808,-1329.36,0,0
88357.775,56.859,-1324.47,0,0
88618.1,57.0862,-1319.54,0,0
88878.425,57.3558,-1314.83,0,0
89138.75,57.4531,-1309.99,0,0
89399.075,57.8157,-1304.66,0,0
89659.4,58.5748,-1299.76,0,0
89919.725,59.4299,-1294.89,0,0
90180,60.438,-1289.85,0,0
90440.4,61.4764,-1285.69,0,0
90700.7,61.7089,-1281.25,0,0
90961,62.9516,-1276.52,0,0
91221.3,64.0244,-1271.65,0,0
91481.7,65.6777,-1267.67,0,0
91742,66.9616,-1263.61,0,0
92002.3,68.3395,-1259.93,0,0
92262.6,69.4132,-1256.16,0,0
92523,70.7187,-1252.33,0,0
92783.3,72.3614,-1248.85,0,0
93043.6,73.9946,-1245.8,0,0
93303.9,75.75,-1242.88,0,0
93564.3,77.5361,-1240.9,0,0
93824.6,78.838,-1239.93,0,0
94084.9,78.6092,-1239.43,0,0
94345.2,76.7286,-1238.39,0,0
94605.6,74.7161,-1235.54,0,0
94865.9,73.7585,-1232.54,0,0
95126.2,71.8348,-1229.75,0,0
95386.5,70.1895,-1225.95,0,0
95646.9,68.8664,-1221.83,0,0
95907.2,67.6963,-1217.53,0,0
96167.5,67.1487,-1213.02,0,0
96427.8,66.9592,-1209.18,0,0
96688.2,66.1817,-1205.5,0,0
96948.5,65.2972,-1201.31,0,0
97208.8,64.7242,-1196.77,0,0
97469.1,64.5194,-1192.28,0,0
97729.5,64.6362,-1188.1,0,0
97989.8,64.6961,-1184.08,0,0
98250.1,64.6134,-1180.42,0,0
98510.4,64.3084,-1176.59,0,0
98770.8,63.983,-1172.52,0,0
99031.1,63.8438,-1168.46,0,0
99291.4,63.6267,-1164.34,0,0
99551.7,63.4973,-1160.2,0,0
99812.1,63.6153,-1155.91,0,0
100072,63.9626,-1151.99,0,0
100333,64.012,-1148.22,0,0
100593,64.0432,-1144.28,0,0
100853,64.0613,-1140.42,0,0
101114,64.0524,-1136.59,0,0
101374,63.9424,-1132.77,0,0
101634,63.563,-1128.88,0,0
101895,63.0947,-1124.46,0,0
102155,63.0505,-1119.58,0,0
102415,63.5138,-1114.69,0,0
102676,64.4261,-1110.06,0,0
102936,65.3485,-1105.78,0,0
103196,66.3378,-1101.58,0,0
103457,67.2797,-1097.62,0,0
103717,68.0792,-1093.42,0,0
103977,69.4019,-1089,0,0
104238,71.1456,-1085.12,0,0
104498,72.6951,-1081.79,0,0
104758,73.9462,-1078.68,0,0
105019,75.0204,-1075.4,0,0
105279,76.1522,-1071.91,0,0
105539,77.4576,-1068.56,0,0
105800,78.9319,-1065.33,0,0
106060,80.2945,-1062.39,0,0
106320.175,81.5941,-1059.42,0,0
106580.5,83.0432,-1056.51,0,0
106840.825,84.6173,-1053.84,0,0
107101.15,86.013,-1051.47,0,0
107361.475,87.2875,-1049.3,0,0
107621.8,88.2173,-1047.14,0,0
107882.125,89.0011,-1044.74,0,0
108142.45,90.0891,-1042.33,0,0
108402.775,91.1396,-1040.17,0,0
108663.1,92.1936,-1038.16,0,0
108923.425,93.1394,-1036.35,0,0
109183.75,93.8403,-1034.75,0,0
109444.075,94.0975,-1033.07,0,0
109704.4,94.4667,-1031.17,0,0
109964.725,94.5112,-1029.35,0,0
110225.05,94.4854,-1027.38,0,0
110485.375,94.6027,-1025.17,0,0
110745.7,94.5543,-1023.01,0,0
111006.025,94.5805,-1020.59,0,0
111266.35,94.7214,-1018.35,0,0
111526.675,95.3248,-1015.59,0,0
111787.0,95.6171,-1013.53,0,0
112047.325,96.0918,-1011.56,0,0
112307.65,96.5683,-1009.64,0,0
112567.975,97.0065,-1007.66,0,0
112828.3,97.2633,-1006.29,0,0
113088.625,97.1614,-1004.5,0,0
113348.95,97.203,-1003.06,0,0
113609.275,97.1333,-1001.42,0,0
113869.6,96.8268,-999.868,0,0
114129.925,96.2727,-998.535,0,0
114390.25,95.4276,-996.846,0,0
114650.575,94.7061,-995.049,0,0
114910.9,93.7467,-993.046,0,0
115171.225,93.0416,-990.992,0,0
115431.55,92.0702,-989.157,0,0
115691.875,90.8881,-987.006,0,0
115952.2,89.554,-984.527,0,0
116212.525,88.5235,-981.811,0,0
116472.85,87.6791,-979.125,0,0
116733.175,86.808,-976.423,0,0
116993.5,85.839,-973.661,0,0
117253.825,84.9329,-970.731,0,0
117514.15,84.2694,-967.668,0,0
117774.475,83.4808,-964.616,0,0
118034.8,82.9005,-961.448,0,0
118295.125,82.4235,-958.223,0,0
118555.45,82.1516,-955.037,0,0
118815.775,81.929,-951.854,0,0
119076.1,81.8095,-948.763,0,0
119336.425,81.6916,-945.589,0,0
119596.75,81.8347,-942.647,0,0
119857.075,81.9284,-939.876,0,0
120117.4,81.925,-937.001,0,0
120377.725,82.1208,-934.125,0,0
120638.05,82.2445,-931.527,0,0
120898.375,82.2556,-929.132,0,0
121158.7,82.1058,-926.606,0,0
121419.025,82.0058,-924.127,0,0
121679.35,81.7408,-921.693,0,0
121939.675,81.2617,-919.079,0,0
122200.0,80.9067,-916.25,0,0
122460,80.5977,-913.553,0,0
122721,80.1184,-910.717,0,0
122981,79.8067,-907.681,0,0
123241,79.6327,-904.603,0,0
123502,79.538,-901.591,0,0
123762,79.4262,-898.62,0,0
124022,79.2249,-895.608,0,0
124283,79.3723,-892.55,0,0
124543,79.5107,-889.514,0,0
124803,79.659,-886.6,0,0
125064,79.6647,-883.687,0,0
125324,79.8176,-880.745,0,0
125584,79.9915,-877.782,0,0
125845,80.2646,-874.875,0,0
126105,80.4318,-872.026,0,0
126365,80.6552,-869.119,0,0
126626,80.8699,-866.303,0,0
126886,81.0761,-863.473,0,0
127146,81.1934,-860.671,0,0
127406,81.5863,-857.594,0,0
127667,81.7634,-854.507,0,0
127927,82.1134,-851.496,0,0
128187,82.6069,-848.384,0,0
128448,83.2603,-845.391,0,0
128708,83.9547,-842.598,0,0
128968,84.5493,-839.798,0,0
129229,85.1281,-836.966,0,0
129489,85.8033,-834.144,0,0
129749,86.4906,-831.287,0,0
130010,87.341,-828.417,0,0
130270,88.3382,-825.653,0,0
130530,89.3674,-822.991,0,0
130791,90.4435,-820.537,0,0
131051,91.5004,-818.185,0,0
131311,92.4875,-815.997,0,0
131572,93.422,-813.858,0,0
131832,94.194,-811.741,0,0
132092,95.0633,-809.663,0,0
132353,95.7547,-807.641,0,0
132613,96.468,-805.555,0,0
132873,97.1333,-803.516,0,0
133134,97.786,-801.557,0,0
133394,98.3996,-799.567,0,0
133654,98.9857,-797.509,0,0
133915,99.5406,-795.629,0,0
134175,99.9553,-793.655,0,0
134435,100.424,-791.704,0,0
134696,100.705,-789.544,0,0
134956,101.093,-787.36,0,0
135216,101.679,-785.006,0,0
135477,102.29,-782.825,0,0
135737,102.875,-780.725,0,0
135997,103.499,-778.441,0,0
136258,104.283,-776.231,0,0
136518,105.146,-774.275,0,0
136778,105.937,-772.265,0,0
137039,106.801,-770.28,0,0
137299,107.719,-768.389,0,0
137559,108.723,-766.597,0,0
137819,109.849,-765.231,0,0
138080,110.632,-764.042,0,0
138340.125,111.126,-763.091,0,0
138600.45,111.262,-762.001,0,0
138860.775,111.159,-760.691,0,0
139121.1,111.004,-759.124,0,0
139381.425,110.964,-757.421,0,0
139641.75,110.969,-755.746,0,0
139902.075,110.894,-754.114,0,0
140162.4,110.654,-752.326,0,0
140422.725,110.406,-750.363,0,0
140683.05,110.252,-748.265,0,0
140943.375,110.152,-746.153,0,0
141203.7,110.104,-743.889,0,0
141464.025,110.261,-741.605,0,0
141724.35,110.453,-739.429,0,0
141984.675,110.66,-737.206,0,0
142245.0,111.026,-734.942,0,0
142505.325,111.39,-732.937,0,0
142765.65,111.558,-731.025,0,0
143025.975,111.789,-728.913,0,0
143286.3,112.011,-726.96,0,0
143546.625,112.02,-724.866,0,0
143806.95,112.045,-722.676,0,0
144067.275,112.151,-720.331,0,0
144327.6,112.428,-717.919,0,0
144587.925,112.727,-715.602,0,0
144848.25,113.139,-713.25,0,0
145108.575,113.522,-710.885,0,0
145368.9,114.044,-708.525,0,0
145629.225,114.65,-706.11,0,0
145889.55,115.38,-703.902,0,0
146149.875,116.046,-701.849,0,0
146410.2,116.62,-699.73,0,0
146670.525,117.301,-697.492,0,0
146930.85,118.21,-695.47,0,0
147191.175,118.925,-693.797,0,0
147451.5,119.435,-691.976,0,0
147711.825,119.968,-690.115,0,0
147972.15,120.506,-688.328,0,0
148232.475,120.94,-686.58,0,0
148492.8,121.245,-684.799,0,0
148753.125,121.45,-682.977,0,0
149013.45,121.693,-680.911,0,0
149273.775,122.152,-678.918,0,0
149534.1,122.53,-677.042,0,0
149794.425,122.83,-675.186,0,0
150054.75,123.057,-673.312,0,0
150315.075,123.241,-671.408,0,0
150575.4,123.356,-669.537,0,0
150835.725,123.347,-667.582,0,0
151096.05,123.219,-665.561,0,0
151356.375,122.991,-663.298,0,0
151616.7,122.857,-660.841,0,0
151877.025,122.782,-658.284,0,0
152137.35,122.756,-655.672,0,0
152397.675,122.728,-652.851,0,0
152658.0,122.848,-649.921,0,0
152918.325,123.098,-646.884,0,0
153178.65,123.59,-643.784,0,0
153438.975,124.144,-640.891,0,0
153699.3,124.514,-637.988,0,0
153959.625,124.874,-634.808,0,0
154219.95,125.422,-631.375,0,0
154480,126.147,-627.818,0,0
154741,127.09,-624.013,0,0
155001,128.64,-620.189,0,0
155261,130.445,-616.679,0,0
155522,132.333,-613.435,0,0
155782,134.34,-610.151,0,0
156042,136.518,-607.064,0,0
156303,138.735,-604.142,0,0
156563,140.973,-601.248,0,0
156823,143.486,-598.38,0,0
157084,146.202,-595.857,0,0
157344,148.887,-593.57,0,0
157604,151.579,-591.522,0,0
157864,154.149,-589.675,0,0
158125,156.547,-588.02,0,0
158385,158.608,-586.451,0,0
158645,160.337,-584.564,0,0
158906,162.257,-582.32,0,0
159166,164.477,-579.775,0,0
159426,167.056,-577.246,0,0
159687,169.962,-575.068,0,0
159947,172.8,-573.034,0,0
160207,175.736,-570.901,0,0
160468,179.227,-568.712,0,0
160728,183.103,-567.081,0,0
160988,187.018,-566.116,0,0
161249,190.693,-565.517,0,0
161509,194.033,-565.171,0,0
161769,197.145,-564.927,0,0
162030,200.199,-564.6,0,0
162290,203.262,-564.531,0,0
162550,206.078,-564.545,0,0
162811,208.801,-564.412,0,0
163071,211.647,-564.275,0,0
163331,214.743,-564.234,0,0
163592,218.02,-564.702,0,0
163852,220.909,-565.657,0,0
164112,223.272,-566.682,0,0
164373,225.251,-567.371,0,0
164633,227.521,-567.717,0,0
164893,230.075,-568.228,0,0
165154,232.724,-568.925,0,0
165414,235.639,-569.917,0,0
165674,238.53,-571.522,0,0
165935,241.022,-573.656,0,0
166195,243.075,-576.008,0,0
166455,244.658,-578.493,0,0
166716,245.88,-580.987,0,0
166976,246.838,-583.573,0,0
167236,247.186,-586.17,0,0
167497,247.15,-588.422,0,0
167757,247.121,-590.422,0,0
168017,246.943,-592.504,0,0
168277,246.443,-594.488,0,0
168538,245.703,-596.272,0,0
168798,244.92,-597.915,0,0
169058,243.822,-599.511,0,0
169319,242.609,-601.002,0,0
169579,240.903,-602.372,0,0
169839,238.758,-603.198,0,0
170100,236.79,-603.245,0,0
170360.075,235.147,-602.99,0,0
170620.4,233.749,-602.583,0,0
170880.725,232.61,-602.026,0,0
171141.05,231.84,-601.515,0,0
171401.375,231.173,-601.388,0,0
171661.7,230.21,-601.384,0,0
171922.025,228.986,-601.436,0,0
172182.35,227.362,-601.194,0,0
172442.675,225.725,-600.397,0,0
172703.0,224.353,-599.251,0,0
172963.325,223.21,-598.011,0,0
173223.65,222.289,-596.762,0,0
173483.975,221.441,-595.52,0,0
173744.3,220.566,-594.084,0,0
174004.625,219.945,-592.396,0,0
174264.95,219.761,-590.743,0,0
174525.275,219.811,-589.273,0,0
174785.6,219.914,-587.942,0,0
175045.925,220.177,-586.736,0,0
175306.25,220.667,-585.779,0,0
175566.575,221.136,-585.289,0,0
175826.9,221.167,-585.13,0,0
176087.225,220.735,-584.816,0,0
176347.55,220.263,-584.131,0,0
176607.875,220.023,-583.366,0,0
176868.2,219.889,-582.815,0,0
177128.525,219.516,-582.42,0,0
177388.85,218.839,-581.912,0,0
177649.175,218.182,-581.03,0,0
177909.5,217.783,-580.106,0,0
178169.825,217.517,-579.337,0,0
178430.15,217.171,-578.732,0,0
178690.475,216.721,-578.083,0,0
178950.8,216.283,-577.459,0,0
179211.125,215.813,-577.093,0,0
179471.45,215.019,-576.76,0,0
179731.775,214.051,-576.248,0,0
179992.1,213.107,-575.735,0,0
180252.425,211.787,-575.347,0,0
180512.75,210.203,-574.667,0,0
180773.075,208.632,-573.46,0,0
181033.4,207.261,-572.327,0,0
181293.725,205.729,-571.186,0,0
181554.05,204.029,-569.706,0,0
181814.375,202.459,-568.018,0,0
182074.7,200.955,-566.341,0,0
182335.025,199.323,-564.612,0,0
182595.35,197.461,-562.683,0,0
182855.675,195.574,-560.193,0,0
183116.0,194.045,-557.351,0,0
183376.325,192.891,-554.432,0,0
183636.65,191.845,-551.543,0,0
183896.975,190.862,-548.628,0,0
184157.3,190.007,-545.544,0,0
184417.625,189.377,-542.321,0,0
184677.95,188.997,-539.17,0,0
184938.275,188.725,-535.991,0,0
185198.6,188.599,-532.958,0,0
185458.925,188.451,-529.948,0,0
185719.25,188.35,-526.884,0,0
185979.575,188.388,-523.667,0,0
186239.9,188.632,-520.548,0,0
186500,188.927,-517.562,0,0
186761,189.235,-514.501,0,0
187021,189.554,-511.471,0,0
187281,190.019,-508.401,0,0
187542,190.486,-505.407,0,0
187802,191.052,-502.526,0,0
188062,191.514,-499.54,0,0
188322,191.983,-496.632,0,0
188583,192.431,-493.562,0,0
188843,193.018,-490.346,0,0
189103,193.639,-487.07,0,0
189364,194.426,-483.722,0,0
189624,195.354,-480.336,0,0
189884,196.536,-477.016,0,0
190145,197.865,-473.891,0,0
190405,199.139,-470.881,0,0
190665,200.258,-467.761,0,0
190926,201.532,-464.619,0,0
191186,202.916,-461.464,0,0
191446,204.39,-458.39,0,0
191707,205.752,-455.366,0,0
191967,207.146,-452.249,0,0
192227,208.688,-449.17,0,0
192488,210.326,-446.195,0,0
192748,211.764,-443.18,0,0
193008,213.036,-440.073,0,0
193269,214.432,-436.694,0,0
193529,216.111,-433.06,0,0
193789,218.054,-429.562,0,0
194050,220.129,-426.247,0,0
194310,222.088,-422.908,0,0
194570,224.005,-419.484,0,0
194831,226.051,-415.897,0,0
195091,228.221,-412.162,0,0
195351,230.784,-408.261,0,0
195612,233.546,-404.576,0,0
195872,236.409,-401,0,0
196132,239.311,-397.508,0,0
196393,242.219,-393.926,0,0
196653,245.285,-390.157,0,0
196913,248.694,-386.32,0,0
197174,252.506,-382.544,0,0
197434,256.522,-379.01,0,0
197694,260.665,-375.875,0,0
197955,264.714,-372.865,0,0
198215,268.852,-369.999,0,0
198475,272.941,-367.138,0,0
198735,276.968,-364.358,0,0
198996,280.973,-361.483,0,0
199256,284.985,-358.511,0,0
199516,289.224,-355.383,0,0
199777,293.638,-352.283,0,0
200037,298.153,-349.199,0,0
200297,302.688,-345.841,0,0
200558,307.548,-342.33,0,0
200818,312.988,-338.768,0,0
201078,318.688,-335.261,0,0
201339,324.93,-331.852,0,0
201599,331.545,-328.727,0,0
201859,338.548,-325.932,0,0
202120,345.697,-323.333,0,0
202380.025,353.104,-320.96,0,0
202640.35,360.77,-318.881,0,0
202900.675,368.832,-317.161,0,0
203161.0,377.04,-315.604,0,0
203421.325,385.428,-314.418,0,0
203681.65,394.219,-313.407,0,0
203941.975,403.375,-312.722,0,0
204202.3,413.024,-312.488,0,0
204462.625,423.275,-312.941,0,0
204722.95,433.849,-314.271,0,0
204983.275,444.504,-316.795,0,0
205243.6,454.84,-320.231,0,0
205503.925,464.83,-324.53,0,0
205764.25,474.605,-329.604,0,0
206024.575,483.829,-335.543,0,0
206284.9,492.386,-342.058,0,0
206545.225,500.071,-348.953,0,0
206805.55,507.387,-356.194,0,0
207065.875,514.125,-363.888,0,0
207326.2,520.315,-372.044,0,0
207586.525,525.363,-380.391,0,0
207846.85,529.576,-388.756,0,0
208107.175,533.166,-396.967,0,0
208367.5,536.309,-405.083,0,0
208627.825,538.981,-413.136,0,0
208888.15,541.03,-421.262,0,0
209148.475,542.256,-429.304,0,0
209408.8,542.848,-437.086,0,0
209669.125,542.786,-444.35,0,0
209929.45,542.122,-451.085,0,0
210189.775,540.982,-457.417,0,0
210450.1,539.657,-463.018,0,0
210710.425,538.078,-468.033,0,0
210970.75,536.264,-472.637,0,0
211231.075,534.163,-476.551,0,0
211491.4,532.099,-479.331,0,0
211751.725,530.484,-481.348,0,0
212012.05,529.284,-482.835,0,0
212272.375,528.621,-483.699,0,0
212532.7,528.947,-484.297,0,0
212793.025,530.026,-485.071,0,0
213053.35,531.629,-486.127,0,0
213313.675,533.43,-487.676,0,0
213574.0,535.385,-489.365,0,0
213834.325,537.474,-491.127,0,0
214094.65,539.769,-492.993,0,0
214354.975,542.477,-495.141,0,0
214615.3,545.341,-497.718,0,0
214875.625,548.097,-500.955,0,0
215135.95,550.526,-504.293,0,0
215396.275,552.707,-507.922,0,0
215656.6,554.646,-511.544,0,0
215916.925,556.371,-515.31,0,0
216177.25,557.469,-519.016,0,0
216437.575,558.36,-522.245,0,0
216697.9,559.18,-524.76,0,0
216958.225,560.606,-526.711,0,0
217218.55,562.778,-528.675,0,0
217478.875,565.439,-531.019,0,0
217739.2,568.281,-533.745,0,0
217999.525,571.178,-536.703,0,0
218259.85,574.206,-540.014,0,0
218520,577.055,-543.446,0,0
218780,580.012,-546.883,0,0
219041,583.091,-550.187,0,0
219301,586.706,-553.824,0,0
219561,590.549,-557.959,0,0
219822,594.395,-562.371,0,0
220082,598.464,-567.501,0,0
220342,602.157,-572.883,0,0
220603,605.887,-578.688,0,0
220863,609.651,-584.682,0,0
221123,613.415,-591.188,0,0
221384,617.024,-598.325,0,0
221644,620.272,-606.001,0,0
221904,623.037,-613.909,0,0
222165,625.725,-622.105,0,0
222425,628.072,-630.866,0,0
222685,629.945,-639.914,0,0
222946,631.432,-649.59,0,0
223206,632.378,-659.258,0,0
223466,632.887,-669.351,0,0
223727,632.778,-679.886,0,0
223987,631.83,-690.385,0,0
224247,629.963,-700.728,0,0
224508,627.765,-711.083,0,0
224768,624.925,-721.25,0,0
225028,622.068,-731.06,0,0
225289,618.578,-741.367,0,0
225549,614.327,-751.587,0,0
225809,609.606,-761.627,0,0
226070,603.828,-771.429,0,0
226330,597.691,-780.629,0,0
226590,590.982,-789.475,0,0
226851,583.839,-798.046,0,0
227111,576.157,-806.192,0,0
227371,568.063,-813.569,0,0
227632,559.756,-820.389,0,0
227892,551.406,-826.732,0,0
228152,542.825,-832.589,0,0
228413,534.154,-838.038,0,0
228673,525.308,-842.943,0,0
228933,516.391,-847.372,0,0
229193,507.446,-851.161,0,0
229454,498.344,-854.882,0,0
229714,489.207,-858.131,0,0
229974,479.974,-860.893,0,0
230235,470.637,-862.843,0,0
230495,461.348,-864.152,0,0
230755,452.404,-865.183,0,0
231016,443.607,-865.497,0,0
231276,435.16,-865.352,0,0
231536,427.18,-864.89,0,0
231797,419.712,-864.101,0,0
232057,412.411,-863.122,0,0
232317,405.665,-861.897,0,0
232578,399.439,-860.843,0,0
232838,393.451,-860.054,0,0
233098,387.5,-858.994,0,0
233359,381.468,-858.04,0,0
233619,375.781,-856.98,0,0
233879,370.378,-855.746,0,0
234140,365.117,-854.607,0,0
234400,359.894,-853.661,0,0
234660.3,354.723,-852.637,0,0
234920.625,349.57,-851.476,0,0
235180.95,344.616,-850.305,0,0
235441.275,339.798,-849.204,0,0
235701.6,334.721,-848.197,0,0
235961.925,329.676,-846.902,0,0
236222.25,324.681,-845.369,0,0
236482.575,319.977,-843.652,0,0
236742.9,315.466,-841.944,0,0
237003.225,311.225,-840.26,0,0
237263.55,307.095,-838.64,0,0
237523.875,303.051,-837.074,0,0
237784.2,299.114,-835.793,0,0
238044.525,294.863,-834.558,0,0
238304.85,290.732,-833.256,0,0
238565.175,286.639,-831.907,0,0
238825.5,282.305,-830.526,0,0
239085.825,277.974,-829.141,0,0
239346.15,273.534,-827.395,0,0
239606.475,269.265,-825.372,0,0
239866.8,264.995,-823.392,0,0
240127.125,260.858,-821.243,0,0
240387.45,256.932,-818.95,0,0
240647.775,253.008,-816.509,0,0
240908.1,249.254,-814.063,0,0
241168.425,245.856,-811.576,0,0
241428.75,242.482,-809.116,0,0
241689.075,239.078,-806.5,0,0
241949.4,235.903,-803.997,0,0
242209.725,232.78,-801.367,0,0
242470.05,229.888,-798.648,0,0
242730.375,227.078,-796.073,0,0
242990.7,224.448,-793.512,0,0
243251.025,222.023,-791.027,0,0
243511.35,219.561,-788.626,0,0
243771.675,217.146,-786.288,0,0
244032.0,214.761,-784.099,0,0
244292.325,212.386,-781.845,0,0
244552.65,209.99,-779.651,0,0
244812.975,207.715,-777.597,0,0
245073.3,205.117,-775.344,0,0
245333.625,202.778,-773.16,0,0
245593.95,200.417,-770.933,0,0
245854.275,198.064,-768.704,0,0
246114.6,195.698,-766.328,0,0
246374.925,193.322,-763.929,0,0
246635.25,191.096,-761.547,0,0
246895.575,188.988,-759.07,0,0
247155.9,186.839,-756.586,0,0
247416.225,184.791,-754.08,0,0
247676.55,182.854,-751.639,0,0
247936.875,180.925,-748.955,0,0
248197.2,179.164,-746.491,0,0
248457.525,177.46,-744.023,0,0
248717.85,175.777,-741.55,0,0
248978.175,174.079,-739.117,0,0
249238.5,172.486,-736.718,0,0
249498.825,170.815,-734.224,0,0
249759.15,169.256,-731.812,0,0
250019.475,167.792,-729.352,0,0
250279.8,166.267,-726.951,0,0
250540,164.847,-724.393,0,0
250800,163.584,-721.981,0,0
251061,162.19,-719.569,0,0
251321,160.919,-717.155,0,0
251581,159.632,-714.772,0,0
251842,158.355,-712.364,0,0
252102,157.111,-709.948,0,0
252362,155.896,-707.497,0,0
252623,154.689,-705.024,0,0
252883,153.556,-702.521,0,0
253143,152.459,-700.006,0,0
253404,151.369,-697.517,0,0
253664,150.339,-694.977,0,0
253924,149.298,-692.412,0,0
254185,148.439,-689.655,0,0
254445,147.612,-686.987,0,0
254705,147.032,-684.328,0,0
254966,146.464,-681.765,0,0
255226,146.1,-679.1,0,0
255486,145.618,-676.572,0,0
255747,145.239,-674.129,0,0
256007,144.897,-671.686,0,0
256267,144.607,-669.271,0,0
256528,144.32,-666.876,0,0
256788,144.09,-664.504,0,0
257048,143.882,-661.964,0,0
257309,143.774,-659.58,0,0
257569,143.729,-657.192,0,0
257829,143.739,-654.825,0,0
258090,143.894,-652.474,0,0
258350,144.01,-650.251,0,0
258610,144.259,-647.984,0,0
258871,144.46,-645.81,0,0
259131,144.748,-643.571,0,0
259391,145.097,-641.46,0,0
259651,145.547,-639.182,0,0
259912,146.019,-637.032,0,0
260172,146.674,-634.996,0,0
260432,147.412,-632.96,0,0
260693,148.151,-631.107,0,0
260953,149,-629.256,0,0
261213,149.876,-627.537,0,0
261474,150.805,-625.914,0,0
261734,151.793,-624.434,0,0
261994,152.696,-623.023,0,0
262255,153.599,-621.656,0,0
262515,154.499,-620.354,0,0
262775,155.411,-619.064,0,0
263036,156.395,-617.824,0,0
263296,157.428,-616.646,0,0
263556,158.503,-615.543,0,0
263817,159.684,-614.534,0,0
264077,160.865,-613.583,0,0
264337,162.193,-612.751,0,0
264598,163.555,-612.113,0,0
264858,164.854,-611.645,0,0
265118,166.295,-611.296,0,0
265379,167.587,-611.164,0,0
265639,168.908,-611.294,0,0
265899,170.134,-611.558,0,0
266160,171.221,-611.994,0,0
266420,172.217,-612.597,0,0
266680.25,173.118,-613.347,0,0
266940.575,173.881,-614.322,0,0
267200.9,174.383,-615.469,0,0
267461.225,174.646,-616.742,0,0
267721.55,174.637,-618.141,0,0
267981.875,174.315,-619.638,0,0
268242.2,173.608,-621.078,0,0
268502.525,172.64,-622.408,0,0
268762.85,171.294,-623.598,0,0
269023.175,169.649,-624.643,0,0
269283.5,167.803,-625.412,0,0
269543.825,165.732,-625.898,0,0
269804.15,163.606,-626.018,0,0
270064.475,161.397,-625.83,0,0
270324.8,159.239,-625.341,0,0
270585.125,157.204,-624.577,0,0
270845.45,155.308,-623.608,0,0
271105.775,153.43,-622.516,0,0
271366.1,151.714,-621.268,0,0
271626.425,150.077,-619.892,0,0
271886.75,148.661,-618.287,0,0
272147.075,147.35,-616.676,0,0
272407.4,146.214,-614.97,0,0
272667.725,145.291,-613.213,0,0
272928.05,144.483,-611.489,0,0
273188.375,143.72,-609.809,0,0
273448.7,143.142,-608.094,0,0
273709.025,142.676,-606.43,0,0
273969.35,142.323,-604.77,0,0
274229.675,142.003,-603.248,0,0
274490.0,141.679,-601.707,0,0
274750.325,141.415,-600.132,0,0
275010.65,141.217,-598.535,0,0
275270.975,141.175,-596.971,0,0
275531.3,141.234,-595.483,0,0
275791.625,141.344,-594.081,0,0
276051.95,141.424,-592.796,0,0
276312.275,141.512,-591.467,0,0
276572.6,141.656,-590.117,0,0
276832.925,141.868,-588.84,0,0
277093.25,142.161,-587.556,0,0
277353.575,142.553,-586.364,0,0
277613.9,143.002,-585.27,0,0
277874.225,143.481,-584.284,0,0
278134.55,143.979,-583.374,0,0
278394.875,144.473,-582.553,0,0
278655.2,144.973,-581.747,0,0
278915.525,145.538,-581.061,0,0
279175.85,146.063,-580.513,0,0
279436.175,146.597,-580.057,0,0
279696.5,147.098,-579.749,0,0
279956.825,147.546,-579.55,0,0
280217.15,147.893,-579.47,0,0
280477.475,148.059,-579.471,0,0
280737.8,148.128,-579.505,0,0
280998.125,148.104,-579.482,0,0
281258.45,147.871,-579.525,0,0
281518.775,147.543,-579.506,0,0
281779.1,147.207,-579.419,0,0
282039.425,146.752,-579.261,0,0
282299.75,146.31,-579.043,0,0
282560,145.848,-578.81,0,0
282820,145.339,-578.556,0,0
283081,144.757,-578.273,0,0
283341,144.092,-577.952,0,0
283601,143.404,-577.528,0,0
283862,142.739,-577.003,0,0
284122,142.167,-576.442,0,0
284382,141.589,-575.906,0,0
284643,140.956,-575.484,0,0
284903,140.197,-575.031,0,0
285163,139.384,-574.48,0,0
285424,138.453,-573.807,0,0
285684,137.518,-573.037,0,0
285944,136.646,-572.135,0,0
286205,135.789,-571.189,0,0
286465,134.928,-570.151,0,0
286725,134.096,-569.042,0,0
286986,133.31,-567.83,0,0
287246,132.526,-566.507,0,0
287506,131.829,-565.112,0,0
287767,131.155,-563.597,0,0
288027,130.642,-561.95,0,0
288287,130.275,-560.269,0,0
288548,130.03,-558.48,0,0
288808,129.983,-556.619,0,0
289068,130.226,-554.791,0,0
289329,130.652,-553.048,0,0
289589,131.316,-551.533,0,0
289849,132.068,-550.292,0,0
290109,132.771,-549.215,0,0
290370,133.392,-548.357,0,0
290630,134.008,-547.605,0,0
290890,134.473,-547.002,0,0
291151,134.761,-546.414,0,0
291411,134.975,-545.83,0,0
291671,135.103,-545.149,0,0
291932,135.209,-544.508,0,0
292192,135.271,-543.789,0,0
292452,135.28,-543.018,0,0
292713,135.288,-542.223,0,0
292973,135.292,-541.378,0,0
293233,135.358,-540.493,0,0
293494,135.408,-539.612,0,0
293754,135.475,-538.718,0,0
294014,135.46,-537.799,0,0
294275,135.486,-536.88,0,0
294535,135.412,-535.805,0,0
294795,135.415,-534.609,0,0
295056,135.528,-533.301,0,0
295316,135.747,-531.954,0,0
295576,136.098,-530.56,0,0
295837,136.592,-529.13,0,0
296097,137.229,-527.718,0,0
296357,138.07,-526.379,0,0
296618,139.029,-525.166,0,0
296878,140.057,-524.077,0,0
297138,141.121,-523.142,0,0
297399,142.161,-522.326,0,0
297659,143.181,-521.535,0,0
297919,144.189,-520.794,0,0
298180,145.215,-520.095,0,0
298440,146.292,-519.449,0,0
298700.2,147.378,-518.855,0,0
298960.525,148.447,-518.305,0,0
299220.85,149.523,-517.855,0,0
299481.175,150.651,-517.346,0,0
299741.5,151.816,-516.933,0,0
300001.825,153.064,-516.638,0,0
300262.15,154.246,-516.408,0,0
300522.475,155.397,-516.306,0,0
300782.8,156.532,-516.203,0,0
301043.125,157.728,-516.173,0,0
301303.45,158.858,-516.17,0,0
301563.775,160.033,-516.212,0,0
301824.1,161.157,-516.337,0,0
302084.425,162.343,-516.474,0,0
302344.75,163.535,-516.788,0,0
302605.075,164.595,-517.132,0,0
302865.4,165.741,-517.512,0,0
303125.725,166.702,-518.082,0,0
303386.05,167.79,-518.517,0,0
303646.375,168.784,-519.089,0,0
303906.7,169.805,-519.738,0,0
304167.025,170.767,-520.477,0,0
304427.35,171.712,-521.357,0,0
304687.675,172.514,-522.261,0,0
304948.0,173.273,-523.309,0,0
305208.325,173.823,-524.301,0,0
305468.65,174.353,-525.24,0,0
305728.975,174.843,-526.193,0,0
305989.3,175.248,-527.11,0,0
306249.625,175.68,-528.078,0,0
306509.95,176.103,-528.994,0,0
306770.275,176.491,-530.098,0,0
307030.6,176.828,-531.166,0,0
307290.925,177.158,-532.319,0,0
307551.25,177.428,-533.492,0,0
307811.575,177.617,-534.742,0,0
308071.9,177.758,-536.048,0,0
308332.225,177.822,-537.345,0,0
308592.55,177.635,-538.758,0,0
308852.875,177.494,-540.062,0,0
309113.2,177.16,-541.444,0,0
309373.525,176.757,-542.668,0,0
309633.85,176.37,-543.922,0,0
309894.175,175.876,-545.101,0,0
310154.5,175.43,-546.391,0,0
310414.825,174.767,-547.606,0,0
310675.15,174.127,-548.837,0,0
310935.475,173.489,-549.999,0,0
311195.8,172.722,-551.072,0,0
311456.125,171.896,-552.205,0,0
311716.45,171.114,-553.343,0,0
311976.775,170.215,-554.532,0,0
312237.1,169.214,-555.67,0,0
312497.425,168.125,-556.799,0,0
312757.75,166.94,-557.916,0,0
313018.075,165.753,-558.907,0,0
313278.4,164.339,-559.885,0,0
313538.725,163.006,-560.74,0,0
313799.05,161.523,-561.597,0,0
314059.375,160.065,-562.268,0,0
314319.7,158.552,-562.92,0,0
314580,157.109,-563.474,0,0
314840,155.544,-563.968,0,0
315101,153.981,-564.39,0,0
315361,152.493,-564.879,0,0
315621,150.861,-565.262,0,0
315882,149.352,-565.555,0,0
316142,147.686,-565.818,0,0
316402,145.994,-566.073,0,0
316663,144.333,-566.214,0,0
316923,142.643,-566.343,0,0
317183,140.783,-566.321,0,0
317444,139.052,-566.212,0,0
317704,137.444,-565.984,0,0
317964,135.724,-565.57,0,0
318225,134.037,-565.203,0,0
318485,132.677,-564.791,0,0
318745,131.045,-564.278,0,0
319006,129.616,-563.804,0,0
319266,128.246,-563.321,0,0
319526,126.803,-562.883,0,0
319787,125.386,-562.44,0,0
320047,123.972,-561.834,0,0
320307,122.522,-561.3,0,0
320567,121.102,-560.779,0,0
320828,119.621,-560.023,0,0
321088,118.194,-559.325,0,0
321348,116.799,-558.552,0,0
321609,115.367,-557.677,0,0
321869,114.082,-556.725,0,0
322129,112.723,-555.742,0,0
322390,111.513,-554.684,0,0
322650,110.309,-553.523,0,0
322910,109.256,-552.391,0,0
323171,108.243,-551.203,0,0
323431,107.392,-550.091,0,0
323691,106.47,-548.809,0,0
323952,105.685,-547.531,0,0
324212,105.002,-546.342,0,0
324472,104.394,-545.147,0,0
324733,103.929,-543.909,0,0
324993,103.438,-542.763,0,0
325253,103.033,-541.733,0,0
325514,102.739,-540.712,0,0
325774,102.397,-539.789,0,0
326034,102.156,-538.816,0,0
326295,101.788,-538.013,0,0
326555,101.524,-537.11,0,0
326815,101.291,-536.303,0,0
327076,101.022,-535.562,0,0
327336,100.785,-534.831,0,0
327596,100.681,-534.087,0,0
327857,100.433,-533.438,0,0
328117,100.264,-532.835,0,0
328377,99.9903,-532.211,0,0
328638,99.7993,-531.726,0,0
328898,99.4481,-531.272,0,0
329158,99.2743,-530.809,0,0
329419,98.9871,-530.397,0,0
329679,98.6951,-529.935,0,0
329939,98.3949,-529.523,0,0
330200,98.1033,-529.163,0,0
330460,97.7345,-528.867,0,0
330720.15,97.3824,-528.476,0,0
330980.475,96.9979,-528.16,0,0
331240.8,96.5494,-527.83,0,0
331501.125,96.1471,-527.55,0,0
331761.45,95.6451,-527.264,0,0
332021.775,95.0857,-526.982,0,0
332282.1,94.5565,-526.67,0,0
332542.425,93.9677,-526.348,0,0
332802.75,93.296,-526.02,0,0
333063.075,92.6757,-525.669,0,0
333323.4,91.932,-525.327,0,0
333583.725,91.2628,-524.944,0,0
333844.05,90.5981,-524.57,0,0
334104.375,89.8767,-524.108,0,0
334364.7,89.1739,-523.674,0,0
334625.025,88.4057,-523.216,0,0
334885.35,87.7243,-522.753,0,0
335145.675,86.9067,-522.214,0,0
335406.0,86.1556,-521.683,0,0
335666.325,85.4146,-521.108,0,0
335926.65,84.6018,-520.494,0,0
336186.975,83.8531,-519.83,0,0
336447.3,83.2118,-519.154,0,0
336707.625,82.4573,-518.404,0,0
336967.95,81.8134,-517.776,0,0
337228.275,81.0301,-517.06,0,0
337488.6,80.4798,-516.377,0,0
337748.925,79.6813,-515.629,0,0
338009.25,79.1073,-514.924,0,0
338269.575,78.3475,-514.234,0,0
338529.9,77.7086,-513.391,0,0
338790.225,77.0298,-512.63,0,0
339050.55,76.3914,-511.769,0,0
339310.875,75.8092,-510.986,0,0
339571.2,75.1603,-510.157,0,0
339831.525,74.6065,-509.308,0,0
340091.85,74.0237,-508.421,0,0
340352.175,73.4997,-507.612,0,0
340612.5,73.0122,-506.754,0,0
340872.825,72.4673,-505.812,0,0
341133.15,72.0192,-505.022,0,0
341393.475,71.5495,-504.153,0,0
341653.8,71.1558,-503.339,0,0
341914.125,70.6504,-502.534,0,0
342174.45,70.2456,-501.682,0,0
342434.775,69.8187,-500.833,0,0
342695.1,69.3957,-499.996,0,0
342955.425,68.934,-499.231,0,0
343215.75,68.5442,-498.392,0,0
343476.075,68.0966,-497.553,0,0
343736.4,67.717,-496.782,0,0
343996.725,67.3028,-495.994,0,0
344257.05,66.8583,-495.164,0,0
344517.375,66.4917,-494.32,0,0
344777.7,66.0864,-493.475,0,0
345038.025,65.6487,-492.672,0,0
345298.35,65.2155,-491.818,0,0
345558.675,64.7995,-490.961,0,0
345819.0,64.4228,-490.079,0,0
346079.325,63.9617,-489.182,0,0
346339.65,63.5796,-488.28,0,0
346599.975,63.162,-487.388,0,0
346860,62.8685,-486.478,0,0
347121,62.5712,-485.561,0,0
347381,62.2388,-484.667,0,0
347641,61.9057,-483.749,0,0
347902,61.6503,-482.81,0,0
348162,61.3368,-481.876,0,0
348422,61.0486,-480.971,0,0
348683,60.7783,-480.094,0,0
348943,60.4765,-479.143,0,0
349203,60.2922,-478.156,0,0
349464,60.0485,-477.189,0,0
349724,59.887,-476.264,0,0
349984,59.709,-475.322,0,0
350245,59.5119,-474.395,0,0
350505,59.4158,-473.454,0,0
350765,59.3252,-472.583,0,0
351025,59.2082,-471.65,0,0
351286,59.1337,-470.792,0,0
351546,59.0522,-469.949,0,0
351806,58.9435,-469.1,0,0
352067,58.8701,-468.211,0,0
352327,58.7551,-467.352,0,0
352587,58.69,-466.596,0,0
352848,58.5754,-465.801,0,0
353108,58.483,-464.965,0,0
353368,58.3828,-464.176,0,0
353629,58.3081,-463.312,0,0
353889,58.1706,-462.443,0,0
354149,58.1058,-461.608,0,0
354410,58.0274,-460.72,0,0
354670,57.9558,-459.883,0,0
354930,57.9506,-459.052,0,0
355191,57.901,-458.24,0,0
355451,57.9305,-457.377,0,0
355711,57.8853,-456.516,0,0
355972,57.8996,-455.703,0,0
356232,57.874,-454.913,0,0
356492,57.9275,-454.142,0,0
356753,57.9389,-453.325,0,0
357013,58.0055,-452.539,0,0
357273,58.0866,-451.801,0,0
357534,58.1184,-451.027,0,0
357794,58.1656,-450.304,0,0
358054,58.2463,-449.614,0,0
358315,58.265,-448.871,0,0
358575,58.3218,-448.188,0,0
358835,58.3156,-447.457,0,0
359096,58.3286,-446.763,0,0
359356,58.3416,-446.039,0,0
359616,58.3593,-445.297,0,0
359877,58.3861,-444.609,0,0
360137,58.459,-443.868,0,0
360397,58.4353,-443.134,0,0
360658,58.495,-442.39,0,0
360918,58.538,-441.632,0,0
361178,58.6969,-440.993,0,0
361438,58.7221,-440.239,0,0
361699,58.7948,-439.543,0,0
361959,58.9585,-438.899,0,0
362219,58.9516,-438.196,0,0
362480,59.0287,-437.572,0,0
362740.1,59.0819,-436.935,0,0
363000.425,59.1058,-436.292,0,0
363260.75,59.1667,-435.615,0,0
363521.075,59.1626,-434.953,0,0
363781.4,59.2855,-434.271,0,0
364041.725,59.2547,-433.597,0,0
364302.05,59.3013,-432.912,0,0
364562.375,59.3461,-432.265,0,0
364822.7,59.3604,-431.538,0,0
365083.025,59.3458,-430.839,0,0
365343.35,59.464,-430.065,0,0
365603.675,59.484,-429.306,0,0
365864.0,59.577,-428.566,0,0
366124.325,59.6414,-427.879,0,0
366384.65,59.7786,-427.112,0,0
366644.975,59.8426,-426.38,0,0
366905.3,59.9444,-425.644,0,0
367165.625,60.0772,-424.886,0,0
367425.95,60.1864,-424.135,0,0
367686.275,60.2804,-423.421,0,0
367946.6,60.3577,-422.621,0,0
368206.925,60.4582,-421.776,0,0
368467.25,60.5825,-420.953,0,0
368727.575,60.7521,-420.083,0,0
368987.9,60.96,-419.215,0,0
369248.225,61.2118,-418.325,0,0
369508.55,61.5293,-417.428,0,0
369768.875,61.9304,-416.503,0,0
370029.2,62.2986,-415.623,0,0
370289.525,62.7822,-414.765,0,0
370549.85,63.2942,-413.956,0,0
370810.175,63.8336,-413.189,0,0
371070.5,64.387,-412.488,0,0
371330.825,65.0123,-411.771,0,0
371591.15,65.6117,-411.158,0,0
371851.475,66.2451,-410.518,0,0
372111.8,66.8792,-409.963,0,0
372372.125,67.5286,-409.416,0,0
372632.45,68.1759,-408.95,0,0
372892.775,68.78,-408.467,0,0
373153.1,69.4477,-408.079,0,0
373413.425,70.089,-407.685,0,0
373673.75,70.7829,-407.359,0,0
373934.075,71.4448,-407.049,0,0
374194.4,72.0669,-406.851,0,0
374454.725,72.715,-406.634,0,0
374715.05,73.314,-406.479,0,0
374975.375,73.8724,-406.401,0,0
375235.7,74.3847,-406.261,0,0
375496.025,74.8593,-406.198,0,0
375756.35,75.302,-406.13,0,0
376016.675,75.6888,-406.067,0,0
376277.0,76.1135,-405.937,0,0
376537.325,76.4829,-405.862,0,0
376797.65,76.895,-405.781,0,0
377057.975,77.2807,-405.693,0,0
377318.3,77.6759,-405.629,0,0
377578.625,78.082,-405.555,0,0
377838.95,78.4824,-405.579,0,0
378099.275,78.8593,-405.551,0,0
378359.6,79.1814,-405.533,0,0
378619.925,79.5199,-405.6,0,0
378880,79.8458,-405.654,0,0
379141,80.1452,-405.684,0,0
379401,80.4221,-405.718,0,0
379661,80.7148,-405.726,0,0
379922,80.9634,-405.755,0,0
380182,81.2348,-405.827,0,0
380442,81.5475,-405.889,0,0
380703,81.823,-405.947,0,0
380963,82.095,-406.105,0,0
381223,82.4387,-406.171,0,0
381483,82.6852,-406.404,0,0
381744,82.9508,-406.611,0,0
382004,83.2859,-406.916,0,0
382264,83.4377,-407.252,0,0
382525,83.5765,-407.666,0,0
382785,83.7019,-408.089,0,0
383045,83.7186,-408.533,0,0
383306,83.6514,-409.018,0,0
383566,83.4552,-409.432,0,0
383826,83.3317,-409.887,0,0
384087,83.0811,-410.319,0,0
384347,82.7753,-410.722,0,0
384607,82.3819,-411.117,0,0
384868,81.8432,-411.349,0,0
385128,81.3896,-411.638,0,0
385388,80.8545,-411.849,0,0
385649,80.3058,-412.006,0,0
385909,79.6974,-412.032,0,0
386169,79.2009,-412.073,0,0
386430,78.621,-412.096,0,0
386690,78.0663,-412.079,0,0
386950,77.5163,-411.999,0,0
387211,76.8888,-411.868,0,0
387471,76.2825,-411.743,0,0
387731,75.7145,-411.582,0,0
387992,75.1598,-411.317,0,0
388252,74.5529,-411.028,0,0
388512,74.0387,-410.692,0,0
388773,73.4615,-410.338,0,0
389033,72.9797,-409.905,0,0
389293,72.5259,-409.484,0,0
389554,72.1482,-409.06,0,0
389814,71.7635,-408.589,0,0
390074,71.4831,-408.129,0,0
390335,71.2029,-407.727,0,0
390595,70.9719,-407.315,0,0
390855,70.7362,-406.99,0,0
391116,70.4925,-406.65,0,0
391376,70.2688,-406.363,0,0
391636,70.0562,-406.064,0,0
391896,69.7514,-405.848,0,0
392157,69.4571,-405.612,0,0
392417,69.0965,-405.412,0,0
392677,68.7731,-405.126,0,0
392938,68.3595,-404.957,0,0
393198,67.9214,-404.668,0,0
393458,67.4059,-404.432,0,0
393719,66.9518,-404.132,0,0
393979,66.4133,-403.728,0,0
394239,65.8953,-403.31,0,0
394500,65.367,-402.898,0,0
394760.05,64.8301,-402.357,0,0
395020.375,64.3529,-401.875,0,0
395280.7,63.8912,-401.313,0,0
395541.025,63.4423,-400.713,0,0
395801.35,63.0384,-400.142,0,0
396061.675,62.5838,-399.527,0,0
396322.0,62.1795,-398.913,0,0
396582.325,61.8035,-398.266,0,0
396842.65,61.4768,-397.623,0,0
397102.975,61.1016,-396.931,0,0
397363.3,60.79,-396.31,0,0
397623.625,60.4832,-395.562,0,0
397883.95,60.2146,-394.866,0,0
398144.275,59.894,-394.208,0,0
398404.6,59.6479,-393.499,0,0
398664.925,59.4509,-392.777,0,0
398925.25,59.2443,-392.073,0,0
399185.575,59.0069,-391.343,0,0
399445.9,58.832,-390.6,0,0
399706.225,58.6622,-389.872,0,0
399966.55,58.4704,-389.122,0,0
400006.6,58.4183,-389.017,0,0