File: Accelerated corrosion test data/2025-09-30_08-18-27/sample_2.csv
Frequency (Hz),Impedance (ohms),Phase (Radians),Temperature (C),Humidity (%)
10000.0,226.694,-11384.2,0,0
10260.325,221.123,-11098.3,0,0
10520.65,216.072,-10825.5,0,0
10780.975,211.502,-10565.6,0,0
11041.3,205.781,-10318.9,0,0
11301.625,201.632,-10082.5,0,0
11561.95,198.713,-9855.74,0,0
11822.275,194.723,-9644.34,0,0
12082.6,192.912,-9439.53,0,0
12342.925,185.523,-9242.04,0,0
12603.25,181.752,-9051.58,0,0
12863.575,177.914,-8868.75,0,0
13123.9,176.674,-8696.38,0,0
13384.225,172.081,-8525.75,0,0
13644.55,169.996,-8361.47,0,0
13904.875,183.644,-8212.99,0,0
14165.2,163.478,-8063.92,0,0
14425.525,160.389,-7914.71,0,0
14685.8,162.745,-7770.26,0,0
14946.175,160.343,-7643.16,0,0
15206.5,162.163,-7521.67,0,0
15466.825,163.886,-7385.8,0,0
15727.15,150.278,-7274.15,0,0
15987.5,146.704,-7153.05,0,0
16247.8,146.833,-7038.1,0,0
16508.125,142.225,-6929.33,0,0
16768.45,140.043,-6821.76,0,0
17028.775,138.304,-6718,0,0
17289.1,136.475,-6618.02,0,0
17549.425,133.988,-6519.04,0,0
17809.75,131.891,-6423.38,0,0
18070.075,130.422,-6330.89,0,0
18330.4,128.5,-6240.94,0,0
18590.725,127.56,-6152.8,0,0
18851.05,126.489,-6067.29,0,0
19111.375,128.077,-5986.22,0,0
19371.7,127.591,-5908.69,0,0
19632.025,122.285,-5831.25,0,0
19892.35,119.877,-5753.65,0,0
20152.675,118.141,-5678.23,0,0
20413.0,117.537,-5604.62,0,0
20673.3,116.713,-5532.01,0,0
20933.65,117.265,-5461.08,0,0
21193.975,120.971,-5394.11,0,0
21454.3,129.012,-5331.14,0,0
21714.625,127.188,-5274.92,0,0
21974.9,122.61,-5211.16,0,0
22235.275,118.282,-5158.12,0,0
22495.6,114.235,-5097.4,0,0
22755.925,111.47,-5036.74,0,0
23016.25,111.622,-4981.37,0,0
23276.6,112.019,-4926.72,0,0
23536.9,108.488,-4872.98,0,0
23797.225,105.883,-4818.31,0,0
24057.55,105.641,-4766.34,0,0
24317.875,102.507,-4716.65,0,0
24578.2,100.558,-4665.96,0,0
24838.525,99.6054,-4616.18,0,0
25098.85,98.7456,-4567.2,0,0
25359.175,97.3355,-4519.71,0,0
25619.5,96.6792,-4474.31,0,0
25879.8,95.7827,-4428.26,0,0
26140.1,95.6873,-4383.85,0,0
26400.5,95.8491,-4339.96,0,0
26660.8,95.7641,-4298.97,0,0
26921.1,93.8881,-4256.41,0,0
27181.4,93.8003,-4216.56,0,0
27441.8,91.8623,-4176.69,0,0
27702.1,90.3296,-4136.93,0,0
27962.4,89.5809,-4096.74,0,0
28222.7,90.009,-4058.25,0,0
28483.1,89.384,-4020.6,0,0
28743.4,88.6495,-3983.83,0,0
29003.7,89.9812,-3945.95,0,0
29264,89.7894,-3910.75,0,0
29524.4,93.4013,-3875.09,0,0
29784.7,97.4644,-3846.81,0,0
30045,91.5055,-3815.58,0,0
30305.3,93.8968,-3781.33,0,0
30565.7,90.136,-3753.61,0,0
30826,88.0473,-3721.18,0,0
31086.3,86.8726,-3689.7,0,0
31346.6,84.6397,-3658.66,0,0
31607,84.8811,-3627.72,0,0
31867.3,82.9252,-3598.81,0,0
32127.6,81.6927,-3568.49,0,0
32387.9,81.9632,-3537.69,0,0
32648.3,83.5046,-3510.03,0,0
32908.6,82.7421,-3484.55,0,0
33168.9,81.5533,-3457.24,0,0
33429.2,79.7969,-3429.8,0,0
33689.6,79.4413,-3403.45,0,0
33949.9,78.3433,-3377.7,0,0
34210.2,76.7407,-3351.86,0,0
34470.5,76.0433,-3325.89,0,0
34730.9,75.3714,-3300.03,0,0
34991.2,75.1343,-3275.11,0,0
35251.5,74.5724,-3250.76,0,0
35511.8,74.0637,-3226.53,0,0
35772.2,73.7914,-3202.38,0,0
36032.5,72.9844,-3179.13,0,0
36292.8,72.3417,-3155.66,0,0
36553.1,71.8548,-3132.88,0,0
36813.5,71.5675,-3110.56,0,0
37073.8,71.0267,-3088.13,0,0
37334.1,70.9064,-3066.21,0,0
37594.4,70.5573,-3044.85,0,0
37854.8,70.3142,-3023.39,0,0
38115.1,69.6623,-3002.91,0,0
38375.4,68.9741,-2982.02,0,0
38635.7,68.9239,-2961.49,0,0
38896.1,68.3676,-2941.15,0,0
39156.4,67.9257,-2921.32,0,0
39416.7,67.5864,-2901.65,0,0
39677,67.2856,-2882.23,0,0
39937.4,66.9394,-2862.88,0,0
40197.7,66.6468,-2844.12,0,0
40458,66.1018,-2825.51,0,0
40718.3,65.993,-2806.73,0,0
40978.7,66.0712,-2788.79,0,0
41239,65.2887,-2770.58,0,0
41499.3,65.5072,-2752.68,0,0
41759.6,65.2034,-2735.3,0,0
42020,64.8836,-2718.21,0,0
42280.275,64.9443,-2701.06,0,0
42540.6,64.2827,-2684.19,0,0
42800.925,64.062,-2667.61,0,0
43061.25,63.6745,-2650.89,0,0
43321.575,63.5545,-2634.69,0,0
43581.9,63.3331,-2618.76,0,0
43842.225,62.894,-2602.61,0,0
44102.55,63.0175,-2586.76,0,0
44362.875,62.8198,-2571.61,0,0
44623.2,62.4998,-2556.34,0,0
44883.525,61.5777,-2540.85,0,0
45143.85,61.6653,-2525.44,0,0
45404.175,61.4968,-2510.65,0,0
45664.5,61.3351,-2496.1,0,0
45924.825,61.5215,-2481.01,0,0
46185.15,61.6992,-2467.13,0,0
46445.475,61.1335,-2453.4,0,0
46705.8,60.4731,-2438.87,0,0
46966.125,60.5739,-2424.88,0,0
47226.45,60.5929,-2410.75,0,0
47486.775,60.8571,-2397.24,0,0
47747.1,60.7002,-2384.34,0,0
48007.425,60.4142,-2370.61,0,0
48267.75,61.1107,-2357.15,0,0
48528.075,61.2735,-2345.03,0,0
48788.4,60.8756,-2332.51,0,0
49048.725,60.4731,-2320.36,0,0
49309.05,59.9798,-2308.22,0,0
49569.375,59.126,-2295.62,0,0
49829.7,58.8077,-2283.05,0,0
50090.025,58.2145,-2271.02,0,0
50350.35,57.8211,-2258.47,0,0
50610.675,57.778,-2246.12,0,0
50871.0,57.6958,-2234.33,0,0
51131.325,57.4934,-2222.52,0,0
51391.65,57.2669,-2211.3,0,0
51651.975,56.7891,-2199.66,0,0
51912.3,56.1251,-2188.33,0,0
52172.625,55.8217,-2176.6,0,0
52432.95,55.4371,-2165.25,0,0
52693.275,55.2911,-2153.87,0,0
52953.6,55.072,-2142.68,0,0
53213.925,54.9966,-2131.63,0,0
53474.25,54.7502,-2120.76,0,0
53734.575,54.5485,-2109.85,0,0
53994.9,54.3049,-2098.91,0,0
54255.225,54.2704,-2088.15,0,0
54515.55,54.2821,-2077.63,0,0
54775.875,54.1668,-2067.32,0,0
55036.2,54.0075,-2056.87,0,0
55296.525,54.0154,-2046.6,0,0
55556.85,53.899,-2036.36,0,0
55817.175,53.8826,-2026.33,0,0
56077.5,53.8811,-2016.34,0,0
56337.825,53.7406,-2006.36,0,0
56598.15,53.8104,-1996.64,0,0
56858.475,53.7143,-1986.86,0,0
57118.8,53.98,-1977.2,0,0
57379.125,53.9387,-1967.71,0,0
57639.45,53.9833,-1958.21,0,0
57899.775,54.0668,-1948.89,0,0
58160.1,54.1908,-1939.75,0,0
58420.4,53.9725,-1930.5,0,0
58680.7,54.0288,-1921.09,0,0
58941.1,54.2443,-1912.04,0,0
59201.4,54.3231,-1903.1,0,0
59461.7,54.5511,-1894.03,0,0
59722,54.8888,-1885.06,0,0
59982.4,55.4706,-1876.42,0,0
60242.7,56.0938,-1868.03,0,0
60503,56.1677,-1860.12,0,0
60763.3,55.9977,-1851.62,0,0
61023.7,56.3067,-1842.94,0,0
61284,57.1849,-1834.58,0,0
61544.3,58.271,-1826.88,0,0
61804.6,59.019,-1820.02,0,0
62065,58.9975,-1813.48,0,0
62325.3,57.932,-1806.34,0,0
62585.6,57.5803,-1798.45,0,0
62845.9,57.6314,-1791.19,0,0
63106.3,57,-1784.27,0,0
63366.6,56.1684,-1776.87,0,0
63626.9,55.1528,-1769.38,0,0
63887.2,54.7966,-1761.49,0,0
64147.6,54.3981,-1754.31,0,0
64407.9,53.5765,-1746.82,0,0
64668.2,52.9757,-1739.07,0,0
64928.5,52.2869,-1731.67,0,0
65188.9,51.3949,-1723.99,0,0
65449.2,50.7613,-1715.83,0,0
65709.5,50.7018,-1707.9,0,0
65969.8,50.6251,-1700.08,0,0
66230.2,50.8176,-1692.49,0,0
66490.5,50.9267,-1685.11,0,0
66750.8,50.9381,-1677.78,0,0
67011.1,50.9473,-1670.17,0,0
67271.5,51.1127,-1662.82,0,0
67531.8,51.9804,-1655.43,0,0
67792.1,52.8073,-1648.58,0,0
68052.4,53.2602,-1642.41,0,0
68312.8,53.1127,-1635.57,0,0
68573.1,53.5258,-1628.86,0,0
68833.4,53.9328,-1622.51,0,0
69093.7,54.358,-1616.48,0,0
69354.1,54.6666,-1609.94,0,0
69614.4,55.3963,-1603.83,0,0
69874.7,55.9492,-1598.59,0,0
70135,55.7558,-1593.45,0,0
70395.4,55.236,-1588.25,0,0
70655.7,54.0995,-1582.53,0,0
70916,53.2831,-1576.48,0,0
71176.3,52.9766,-1570.48,0,0
71436.7,52.44,-1564.98,0,0
71697,51.3077,-1559.23,0,0
71957.3,49.9674,-1553.47,0,0
72217.6,48.8073,-1547,0,0
72478,47.7238,-1540.29,0,0
72738.3,47.1859,-1533.73,0,0
72998.6,46.5947,-1527.18,0,0
73258.9,46.1373,-1520.65,0,0
73519.3,45.5993,-1514.04,0,0
73779.6,45.3386,-1507.47,0,0
74039.9,45.1411,-1500.95,0,0
74300.225,45.0698,-1494.51,0,0
74560.55,45.1677,-1488.05,0,0
74820.875,45.1624,-1481.81,0,0
75081.2,45.2377,-1475.46,0,0
75341.525,45.4863,-1469.19,0,0
75601.85,45.8034,-1463.04,0,0
75862.175,46.1036,-1456.97,0,0
76122.5,46.4928,-1451.06,0,0
76382.825,46.9784,-1445.19,0,0
76643.15,47.2781,-1439.52,0,0
76903.475,47.7934,-1433.66,0,0
77163.8,48.3236,-1427.97,0,0
77424.125,48.9373,-1422.46,0,0
77684.45,49.5571,-1417.04,0,0
77944.775,50.3275,-1411.77,0,0
78205.1,51.091,-1406.67,0,0
78465.425,51.8713,-1401.82,0,0
78725.75,52.4008,-1397.17,0,0
78986.075,53.0849,-1392.67,0,0
79246.4,53.1949,-1388.49,0,0
79506.725,53.2909,-1384.01,0,0
79767.05,53.4415,-1380,0,0
80027.375,52.7339,-1375.96,0,0
80287.7,51.9619,-1371.43,0,0
80548.025,51.2406,-1366.56,0,0
80808.35,50.5358,-1361.63,0,0
81068.675,50.1034,-1356.56,0,0
81329.0,49.6537,-1351.53,0,0
81589.325,49.3223,-1346.53,0,0
81849.65,49.0103,-1341.47,0,0
82109.975,48.6274,-1336.37,0,0
82370.3,48.3543,-1331.3,0,0
82630.625,48.1862,-1326.14,0,0
82890.95,48.1016,-1321.01,0,0
83151.275,48.0319,-1315.84,0,0
83411.6,48.1587,-1310.76,0,0
83671.925,48.3626,-1305.83,0,0
83932.25,48.557,-1300.9,0,0
84192.575,48.8217,-1296.19,0,0
84452.9,48.9767,-1291.52,0,0
84713.225,49.0235,-1286.97,0,0
84973.55,49.0901,-1282.18,0,0
85233.875,49.3486,-1277.47,0,0
85494.2,49.6026,-1272.82,0,0
85754.525,49.8709,-1268.36,0,0
86014.85,50.1146,-1263.92,0,0
86275.175,50.2421,-1259.64,0,0
86535.5,50.2691,-1255.27,0,0
86795.825,50.3721,-1250.86,0,0
87056.15,50.4106,-1246.18,0,0
87316.475,51.0774,-1241.97,0,0
87576.8,51.2197,-1238,0,0
87837.125,51.114,-1234.06,0,0
88097.45,50.9206,-1229.73,0,0
88357.775,51.0037,-1225.29,0,0
88618.1,51.2186,-1221.29,0,0
88878.425,50.9557,-1217.31,0,0
89138.75,50.686,-1212.67,0,0
89399.075,50.891,-1208.18,0,0
89659.4,51.3062,-1203.8,0,0
89919.725,51.703,-1199.68,0,0
90180,51.9691,-1195.85,0,0
90440.4,51.9885,-1192,0,0
90700.7,51.587,-1187.95,0,0
90961,51.6605,-1183.33,0,0
91221.3,52.0212,-1178.99,0,0
91481.7,52.582,-1175.16,0,0
91742,52.7409,-1171.01,0,0
92002.3,52.8993,-1166.84,0,0
92262.6,53.5654,-1162.64,0,0
92523,54.4694,-1158.78,0,0
92783.3,54.8067,-1155.31,0,0
93043.6,55.3079,-1151.64,0,0
93303.9,55.9129,-1148.34,0,0
93564.3,56.1239,-1145.08,0,0
93824.6,56.4549,-1142.02,0,0
94084.9,56.3988,-1139.05,0,0
94345.2,55.6869,-1135.88,0,0
94605.6,55.2439,-1132.01,0,0
94865.9,55.1917,-1128.25,0,0
95126.2,55.0742,-1124.73,0,0
95386.5,54.5658,-1120.98,0,0
95646.9,54.168,-1116.76,0,0
95907.2,54.6083,-1112.19,0,0
96167.5,55.618,-1108.33,0,0
96427.8,56.367,-1105.07,0,0
96688.2,56.838,-1101.98,0,0
96948.5,57.0882,-1098.84,0,0
97208.8,57.4601,-1095.49,0,0
97469.1,58.0329,-1092.69,0,0
97729.5,58.1252,-1090.06,0,0
97989.8,57.961,-1087.16,0,0
98250.1,57.9277,-1084.38,0,0
98510.4,57.8308,-1081.55,0,0
98770.8,57.7037,-1078.97,0,0
99031.1,57.1219,-1076.78,0,0
99291.4,55.9733,-1074.16,0,0
99551.7,54.6538,-1071.09,0,0
99812.1,53.3275,-1067.57,0,0
100072,52.2951,-1063.75,0,0
100333,51.6385,-1059.79,0,0
100593,51.4244,-1056.03,0,0
100853,50.9035,-1052.78,0,0
101114,50.0565,-1049.32,0,0
101374,49.0603,-1045.61,0,0
101634,48.135,-1041.5,0,0
101895,47.6918,-1037.1,0,0
102155,47.69,-1033.05,0,0
102415,47.5238,-1029.34,0,0
102676,47.0014,-1025.54,0,0
102936,46.5911,-1021.4,0,0
103196,46.288,-1017.24,0,0
103457,46.2346,-1012.9,0,0
103717,46.2551,-1008.6,0,0
103977,46.48,-1004.18,0,0
104238,47.1276,-999.877,0,0
104498,47.9728,-995.811,0,0
104758,48.7478,-992.104,0,0
105019,49.4551,-988.423,0,0
105279,50.2559,-984.716,0,0
105539,51.1886,-981.209,0,0
105800,52.0665,-977.781,0,0
106060,53.2028,-974.386,0,0
106320.175,54.4211,-971.454,0,0
106580.5,55.5145,-968.738,0,0
106840.825,56.409,-966.42,0,0
107101.15,56.8813,-964.213,0,0
107361.475,57.1733,-961.76,0,0
107621.8,57.6171,-959.395,0,0
107882.125,57.756,-957.255,0,0
108142.45,57.5585,-955.128,0,0
108402.775,57.0724,-952.778,0,0
108663.1,56.659,-950.156,0,0
108923.425,56.1943,-947.613,0,0
109183.75,55.5259,-944.95,0,0
109444.075,54.7813,-941.932,0,0
109704.4,54.166,-938.824,0,0
109964.725,53.5133,-935.741,0,0
110225.05,52.918,-932.409,0,0
110485.375,52.321,-928.885,0,0
110745.7,52.0721,-925.275,0,0
111006.025,52.0561,-921.701,0,0
111266.35,51.7714,-918.394,0,0
111526.675,51.7324,-914.829,0,0
111787.0,51.6581,-911.306,0,0
112047.325,51.8337,-907.72,0,0
112307.65,51.9692,-904.404,0,0
112567.975,51.9241,-901.026,0,0
112828.3,51.9756,-897.544,0,0
113088.625,52.1271,-893.955,0,0
113348.95,52.4893,-890.442,0,0
113609.275,52.8295,-887.098,0,0
113869.6,53.2324,-883.626,0,0
114129.925,53.6435,-880.217,0,0
114390.25,54.2207,-877.052,0,0
114650.575,54.6105,-873.763,0,0
114910.9,55.038,-870.54,0,0
115171.225,55.5053,-867.284,0,0
115431.55,56.1282,-864.026,0,0
115691.875,56.7055,-860.968,0,0
115952.2,57.2336,-857.767,0,0
116212.525,57.8593,-854.654,0,0
116472.85,58.5136,-851.525,0,0
116733.175,59.2954,-848.481,0,0
116993.5,60.0451,-845.581,0,0
117253.825,60.7531,-842.732,0,0
117514.15,61.4788,-839.854,0,0
117774.475,62.2204,-837.007,0,0
118034.8,63.0329,-834.225,0,0
118295.125,63.8513,-831.555,0,0
118555.45,64.6372,-828.917,0,0
118815.775,65.5282,-826.377,0,0
119076.1,66.3389,-823.975,0,0
119336.425,67.0421,-821.592,0,0
119596.75,67.8919,-819.212,0,0
119857.075,68.7554,-817.263,0,0
120117.4,69.1448,-815.373,0,0
120377.725,69.4775,-813.398,0,0
120638.05,69.8164,-811.478,0,0
120898.375,69.7475,-809.704,0,0
121158.7,69.3387,-807.459,0,0
121419.025,69.2051,-804.989,0,0
121679.35,69.1333,-802.534,0,0
121939.675,69.1186,-800.089,0,0
122200.0,69.0141,-797.631,0,0
122460,68.8988,-795.07,0,0
122721,68.8556,-792.479,0,0
122981,68.8264,-789.857,0,0
123241,68.8212,-787.163,0,0
123502,68.8742,-784.586,0,0
123762,68.8491,-781.996,0,0
124022,68.7654,-779.332,0,0
124283,68.7175,-776.667,0,0
124543,68.654,-773.935,0,0
124803,68.5847,-771.192,0,0
125064,68.5122,-768.342,0,0
125324,68.4816,-765.451,0,0
125584,68.5353,-762.524,0,0
125845,68.5457,-759.58,0,0
126105,68.6321,-756.548,0,0
126365,68.8327,-753.499,0,0
126626,69.0719,-750.46,0,0
126886,69.4129,-747.374,0,0
127146,69.812,-744.317,0,0
127406,70.1785,-741.173,0,0
127667,70.7439,-738.227,0,0
127927,71.4486,-735.255,0,0
128187,72.0722,-732.447,0,0
128448,72.7646,-729.638,0,0
128708,73.4477,-726.903,0,0
128968,74.1249,-724.238,0,0
129229,74.7642,-721.629,0,0
129489,75.4391,-719.009,0,0
129749,76.0545,-716.445,0,0
130010,76.673,-713.868,0,0
130270,77.3694,-711.386,0,0
130530,78.0037,-709.04,0,0
130791,78.5349,-706.675,0,0
131051,79.0209,-704.312,0,0
131311,79.4379,-701.943,0,0
131572,79.8433,-699.527,0,0
131832,80.2481,-697.176,0,0
132092,80.5856,-694.848,0,0
132353,80.8342,-692.467,0,0
132613,81.0447,-690.099,0,0
132873,81.1756,-687.627,0,0
133134,81.3066,-685.023,0,0
133394,81.4386,-682.383,0,0
133654,81.6713,-679.665,0,0
133915,81.9077,-676.959,0,0
134175,82.1697,-674.298,0,0
134435,82.3628,-671.557,0,0
134696,82.5946,-668.717,0,0
134956,82.9323,-665.837,0,0
135216,83.2961,-663.036,0,0
135477,83.6511,-660.253,0,0
135737,83.9759,-657.46,0,0
135997,84.2713,-654.555,0,0
136258,84.6514,-651.596,0,0
136518,85.0367,-648.611,0,0
136778,85.5022,-645.625,0,0
137039,85.9494,-642.615,0,0
137299,86.6198,-639.594,0,0
137559,87.2359,-636.768,0,0
137819,87.691,-633.892,0,0
138080,88.1389,-630.925,0,0
138340.125,88.6434,-627.901,0,0
138600.45,89.1668,-624.852,0,0
138860.775,89.641,-621.778,0,0
139121.1,90.1191,-618.616,0,0
139381.425,90.6471,-615.331,0,0
139641.75,91.3059,-612.03,0,0
139902.075,91.8924,-608.716,0,0
140162.4,92.4794,-605.243,0,0
140422.725,93.2202,-601.614,0,0
140683.05,94.2199,-597.89,0,0
140943.375,95.3786,-594.337,0,0
141203.7,96.4372,-590.763,0,0
141464.025,97.5992,-586.992,0,0
141724.35,99.1266,-583.175,0,0
141984.675,100.827,-579.532,0,0
142245.0,102.629,-576.023,0,0
142505.325,104.461,-572.659,0,0
142765.65,106.348,-569.26,0,0
143025.975,108.381,-566.027,0,0
143286.3,110.343,-562.998,0,0
143546.625,112.148,-559.933,0,0
143806.95,113.998,-556.784,0,0
144067.275,115.931,-553.584,0,0
144327.6,117.955,-550.408,0,0
144587.925,120.07,-547.206,0,0
144848.25,122.272,-544.004,0,0
145108.575,124.569,-540.949,0,0
145368.9,127.009,-537.898,0,0
145629.225,129.442,-535.029,0,0
145889.55,131.806,-532.172,0,0
146149.875,134.16,-529.297,0,0
146410.2,136.514,-526.332,0,0
146670.525,138.976,-523.272,0,0
146930.85,141.577,-520.154,0,0
147191.175,144.378,-516.993,0,0
147451.5,147.391,-513.865,0,0
147711.825,150.573,-510.832,0,0
147972.15,153.914,-507.86,0,0
148232.475,157.373,-504.945,0,0
148492.8,160.975,-502.031,0,0
148753.125,164.796,-499.073,0,0
149013.45,169.019,-496.056,0,0
149273.775,173.914,-493.196,0,0
149534.1,179.313,-490.963,0,0
149794.425,184.849,-489.354,0,0
150054.75,190.511,-488.34,0,0
150315.075,196.076,-487.882,0,0
150575.4,201.584,-487.786,0,0
150835.725,207.215,-488.257,0,0
151096.05,212.673,-489.52,0,0
151356.375,217.578,-491.445,0,0
151616.7,221.909,-493.578,0,0
151877.025,226.007,-495.978,0,0
152137.35,229.597,-498.928,0,0
152397.675,232.432,-502.021,0,0
152658.0,234.712,-505.031,0,0
152918.325,236.562,-508.057,0,0
153178.65,237.906,-511.024,0,0
153438.975,238.803,-513.912,0,0
153699.3,239.137,-516.52,0,0
153959.625,239.223,-518.778,0,0
154219.95,238.988,-520.811,0,0
154480,238.539,-522.374,0,0
154741,238.092,-523.66,0,0
155001,237.713,-524.725,0,0
155261,237.218,-525.683,0,0
155522,236.741,-526.389,0,0
155782,236.166,-527.158,0,0
156042,235.561,-527.689,0,0
156303,234.91,-528.117,0,0
156563,234.265,-528.399,0,0
156823,233.419,-528.711,0,0
157084,232.24,-528.693,0,0
157344,231.449,-528.182,0,0
157604,230.645,-527.963,0,0
157864,229.812,-527.23,0,0
158125,229.104,-526.588,0,0
158385,228.536,-525.909,0,0
158645,227.754,-525.336,0,0
158906,226.633,-524.247,0,0
159166,225.979,-522.736,0,0
159426,225.41,-521.379,0,0
159687,224.87,-519.569,0,0
159947,225.071,-517.415,0,0
160207,225.757,-515.931,0,0
160468,226.081,-514.711,0,0
160728,226.439,-513.265,0,0
160988,226.791,-511.791,0,0
161249,227.634,-509.766,0,0
161509,229.125,-508.15,0,0
161769,231.312,-507.112,0,0
162030,233.589,-507.149,0,0
162290,235.43,-507.987,0,0
162550,236.578,-509.301,0,0
162811,237.421,-510.874,0,0
163071,237.655,-513.388,0,0
163331,236.09,-515.849,0,0
163592,233.774,-517.39,0,0
163852,231.182,-518.145,0,0
164112,228.478,-518.347,0,0
164373,225.849,-518.47,0,0
164633,222.664,-518.214,0,0
164893,219.133,-517.209,0,0
165154,215.947,-515.575,0,0
165414,212.688,-513.823,0,0
165674,209.177,-511.507,0,0
165935,205.795,-508.26,0,0
166195,203.056,-504.351,0,0
166455,201.109,-500.205,0,0
166716,199.653,-496.386,0,0
166976,198.349,-492.752,0,0
167236,196.979,-489.033,0,0
167497,195.777,-485.163,0,0
167757,194.637,-481.187,0,0
168017,193.662,-477.129,0,0
168277,192.551,-472.857,0,0
168538,191.705,-468.274,0,0
168798,191.369,-463.384,0,0
169058,191.59,-458.56,0,0
169319,192.013,-453.956,0,0
169579,192.584,-449.518,0,0
169839,193.309,-445.207,0,0
170100,194.001,-441.022,0,0
170360.075,194.843,-436.846,0,0
170620.4,195.572,-432.962,0,0
170880.725,195.939,-428.864,0,0
171141.05,196.341,-424.225,0,0
171401.375,197.172,-419.258,0,0
171661.7,198.401,-414.32,0,0
171922.025,199.979,-409.468,0,0
172182.35,201.671,-404.824,0,0
172442.675,203.336,-400.294,0,0
172703.0,205,-395.409,0,0
172963.325,207.089,-390.482,0,0
173223.65,209.485,-385.729,0,0
173483.975,211.864,-381.027,0,0
173744.3,214.448,-376.181,0,0
174004.625,217.228,-371.426,0,0
174264.95,220.188,-366.682,0,0
174525.275,223.313,-361.834,0,0
174785.6,226.899,-356.851,0,0
175045.925,230.977,-352.074,0,0
175306.25,235.397,-347.665,0,0
175566.575,240.017,-343.744,0,0
175826.9,244.585,-340.108,0,0
176087.225,249.116,-336.627,0,0
176347.55,253.766,-333.248,0,0
176607.875,258.453,-329.882,0,0
176868.2,263.416,-326.478,0,0
177128.525,269.102,-323.289,0,0
177388.85,275.276,-321.042,0,0
177649.175,281.257,-319.758,0,0
177909.5,286.846,-319.274,0,0
178169.825,290.767,-318.954,0,0
178430.15,294.752,-318.388,0,0
178690.475,298.588,-317.439,0,0
178950.8,302.748,-316.568,0,0
179211.125,306.842,-316.019,0,0
179471.45,310.808,-315.909,0,0
179731.775,314.33,-316.42,0,0
179992.1,316.71,-317.143,0,0
180252.425,318.262,-317.33,0,0
180512.75,319.271,-316.97,0,0
180773.075,319.814,-315.941,0,0
181033.4,320.076,-313.914,0,0
181293.725,320.683,-310.941,0,0
181554.05,321.666,-307.368,0,0
181814.375,323.298,-303.277,0,0
182074.7,325.501,-299.096,0,0
182335.025,327.869,-294.767,0,0
182595.35,330.652,-290.116,0,0
182855.675,334.038,-285.238,0,0
183116.0,338.046,-280.591,0,0
183376.325,342.213,-276.19,0,0
183636.65,346.416,-271.731,0,0
183896.975,350.915,-267.04,0,0
184157.3,355.732,-262.133,0,0
184417.625,361.212,-257.146,0,0
184677.95,367.255,-252.226,0,0
184938.275,373.72,-247.473,0,0
185198.6,380.865,-242.926,0,0
185458.925,388.525,-238.815,0,0
185719.25,396.496,-235.122,0,0
185979.575,404.992,-231.695,0,0
186239.9,414.102,-229.267,0,0
186500,422.902,-228.23,0,0
186761,430.688,-227.732,0,0
187021,437.672,-226.815,0,0
187281,444.449,-224.925,0,0
187542,452.183,-222.513,0,0
187802,460.977,-220.852,0,0
188062,469.668,-220.127,0,0
188322,477.982,-219.997,0,0
188583,485.499,-219.87,0,0
188843,492.916,-219.11,0,0
189103,500.806,-217.915,0,0
189364,509.292,-216.998,0,0
189624,517.749,-216.373,0,0
189884,526.152,-216.035,0,0
190145,534.525,-215.198,0,0
190405,543.305,-214.173,0,0
190665,552.654,-212.98,0,0
190926,562.679,-211.794,0,0
191186,573.598,-210.761,0,0
191446,585.481,-210.388,0,0
191707,597.738,-211.065,0,0
191967,609.95,-212.461,0,0
192227,622.285,-214.177,0,0
192488,634.939,-216.183,0,0
192748,648.231,-218.593,0,0
193008,662.303,-221.935,0,0
193269,676.67,-226.633,0,0
193529,691.08,-232.566,0,0
193789,705.026,-239.891,0,0
194050,718.221,-248.033,0,0
194310,731.039,-256.746,0,0
194570,743.27,-266.31,0,0
194831,754.671,-276.297,0,0
195091,765.698,-286.37,0,0
195351,776.678,-296.807,0,0
195612,787.472,-307.992,0,0
195872,797.647,-319.952,0,0
196132,807.035,-332.458,0,0
196393,815.683,-344.881,0,0
196653,824.206,-357.274,0,0
196913,832.814,-370.228,0,0
197174,841.025,-383.989,0,0
197434,848.568,-398.584,0,0
197694,854.965,-413.734,0,0
197955,860.322,-428.657,0,0
198215,865.283,-443.109,0,0
198475,870.515,-457.761,0,0
198735,875.703,-473.181,0,0
198996,880.065,-489.725,0,0
199256,883.297,-506.901,0,0
199516,885.109,-524.133,0,0
199777,885.708,-541.027,0,0
200037,885.745,-557.078,0,0
200297,886.156,-573.254,0,0
200558,885.752,-590.225,0,0
200818,884.412,-607.583,0,0
201078,882.066,-624.701,0,0
201339,879.114,-642.028,0,0
201599,874.92,-659.766,0,0
201859,869.046,-677.291,0,0
202120,861.671,-694.046,0,0
202380.025,853.534,-709.846,0,0
202640.35,844.323,-724.939,0,0
202900.675,833.873,-739.289,0,0
203161.0,822.577,-751.697,0,0
203421.325,811.3,-762.537,0,0
203681.65,800.553,-772.427,0,0
203941.975,789.891,-781.733,0,0
204202.3,779.246,-790.264,0,0
204462.625,768.78,-797.75,0,0
204722.95,759.123,-804.626,0,0
204983.275,750.238,-811.79,0,0
205243.6,740.81,-819.493,0,0
205503.925,730.983,-826.987,0,0
205764.25,720.441,-834.139,0,0
206024.575,709.198,-840.154,0,0
206284.9,698.112,-845.142,0,0
206545.225,687.34,-849.47,0,0
206805.55,677.047,-852.855,0,0
207065.875,667.204,-856.138,0,0
207326.2,657.504,-859.054,0,0
207586.525,648.071,-861.624,0,0
207846.85,639.014,-863.838,0,0
208107.175,630.129,-865.708,0,0
208367.5,621.604,-867.048,0,0
208627.825,614.01,-868.357,0,0
208888.15,607.076,-870.007,0,0
209148.475,600.266,-872.285,0,0
209408.8,593.176,-874.891,0,0
209669.125,585.742,-877.916,0,0
209929.45,577.833,-880.736,0,0
210189.775,569.328,-883.41,0,0
210450.1,560.792,-885.761,0,0
210710.425,551.972,-887.766,0,0
210970.75,542.737,-889.283,0,0
211231.075,533.303,-890.423,0,0
211491.4,523.546,-890.799,0,0
211751.725,513.977,-890.457,0,0
212012.05,504.632,-888.945,0,0
212272.375,495.939,-886.958,0,0
212532.7,488.112,-884.668,0,0
212793.025,480.763,-882.511,0,0
213053.35,473.594,-880.408,0,0
213313.675,466.478,-878.067,0,0
213574.0,459.679,-875.297,0,0
213834.325,453.351,-872.411,0,0
214094.65,447.601,-869.456,0,0
214354.975,442.04,-866.606,0,0
214615.3,436.695,-863.91,0,0
214875.625,431.505,-860.96,0,0
215135.95,426.778,-858.217,0,0
215396.275,421.96,-855.538,0,0
215656.6,417.284,-852.743,0,0
215916.925,412.635,-849.871,0,0
216177.25,408.26,-846.856,0,0
216437.575,404.169,-843.721,0,0
216697.9,400.339,-840.606,0,0
216958.225,396.671,-837.519,0,0
217218.55,393.249,-834.346,0,0
217478.875,390.031,-831.168,0,0
217739.2,387.134,-828.131,0,0
217999.525,384.398,-825.106,0,0
218259.85,381.886,-822.277,0,0
218520,379.491,-819.448,0,0
218780,377.178,-816.604,0,0
219041,375.147,-813.83,0,0
219301,373.316,-811.227,0,0
219561,371.697,-808.55,0,0
219822,370.101,-806.367,0,0
220082,368.599,-804.284,0,0
220342,367.106,-802.157,0,0
220603,365.473,-800.275,0,0
220863,363.841,-798.358,0,0
221123,362.344,-796.243,0,0
221384,360.983,-793.972,0,0
221644,359.931,-791.865,0,0
221904,359.007,-789.732,0,0
222165,358.376,-787.723,0,0
222425,357.911,-785.958,0,0
222685,357.743,-784.312,0,0
222946,357.635,-783.225,0,0
223206,357.507,-782.299,0,0
223466,357.375,-781.52,0,0
223727,357.062,-781.127,0,0
223987,356.598,-780.767,0,0
224247,355.997,-780.572,0,0
224508,355.23,-780.458,0,0
224768,354.403,-780.125,0,0
225028,353.419,-779.926,0,0
225289,352.648,-779.486,0,0
225549,351.826,-779.352,0,0
225809,350.951,-779.164,0,0
226070,350.145,-778.644,0,0
226330,349.8,-778.372,0,0
226590,349.423,-778.359,0,0
226851,349.147,-778.632,0,0
227111,348.694,-779.004,0,0
227371,348.051,-779.504,0,0
227632,347.51,-780.089,0,0
227892,346.842,-780.759,0,0
228152,346.345,-781.559,0,0
228413,345.715,-782.599,0,0
228673,344.978,-783.876,0,0
228933,344.066,-785.213,0,0
229193,343.015,-786.848,0,0
229454,341.738,-788.583,0,0
229714,340.153,-790.388,0,0
229974,338.32,-792.276,0,0
230235,336.169,-794.01,0,0
230495,333.842,-795.783,0,0
230755,331.342,-797.28,0,0
231016,328.68,-798.841,0,0
231276,325.782,-800.377,0,0
231536,322.597,-801.712,0,0
231797,319.278,-802.719,0,0
232057,315.97,-803.54,0,0
232317,312.748,-804.2,0,0
232578,309.446,-804.812,0,0
232838,306.123,-805.287,0,0
233098,302.758,-805.728,0,0
233359,299.401,-806.039,0,0
233619,295.825,-806.244,0,0
233879,292.441,-806.112,0,0
234140,289,-805.883,0,0
234400,285.771,-805.815,0,0
234660.3,282.475,-805.632,0,0
234920.625,279.22,-805.364,0,0
235180.95,275.974,-805.194,0,0
235441.275,272.444,-804.856,0,0
235701.6,268.844,-804.461,0,0
235961.925,265.405,-803.798,0,0
236222.25,261.896,-803.042,0,0
236482.575,258.475,-802.218,0,0
236742.9,255.06,-801.317,0,0
237003.225,251.744,-800.293,0,0
237263.55,248.354,-799.291,0,0
237523.875,244.963,-798.16,0,0
237784.2,241.542,-796.875,0,0
238044.525,238.222,-795.416,0,0
238304.85,235.043,-793.814,0,0
238565.175,232.034,-792.214,0,0
238825.5,229.061,-790.57,0,0
239085.825,226.078,-788.961,0,0
239346.15,223.155,-787.173,0,0
239606.475,220.237,-785.439,0,0
239866.8,217.486,-783.442,0,0
240127.125,214.65,-781.463,0,0
240387.45,212.073,-779.613,0,0
240647.775,209.57,-777.512,0,0
240908.1,207.099,-775.411,0,0
241168.425,204.732,-773.338,0,0
241428.75,202.514,-771.119,0,0
241689.075,200.401,-768.909,0,0
241949.4,198.463,-766.756,0,0
242209.725,196.573,-764.698,0,0
242470.05,194.72,-762.678,0,0
242730.375,192.962,-760.555,0,0
242990.7,191.399,-758.518,0,0
243251.025,189.83,-756.567,0,0
243511.35,188.409,-754.779,0,0
243771.675,187.133,-753.097,0,0
244032.0,185.701,-751.552,0,0
244292.325,184.365,-750.125,0,0
244552.65,182.807,-748.853,0,0
244812.975,181.124,-747.772,0,0
245073.3,179.403,-746.399,0,0
245333.625,177.631,-745.158,0,0
245593.95,175.921,-744.011,0,0
245854.275,174.049,-742.823,0,0
246114.6,172.051,-741.773,0,0
246374.925,169.834,-740.81,0,0
246635.25,167.324,-739.705,0,0
246895.575,164.698,-738.404,0,0
247155.9,161.819,-736.904,0,0
247416.225,159.097,-735.078,0,0
247676.55,156.318,-733,0,0
247936.875,153.669,-730.778,0,0
248197.2,151.097,-728.326,0,0
248457.525,148.599,-725.926,0,0
248717.85,146.114,-723.423,0,0
248978.175,143.818,-720.655,0,0
249238.5,141.471,-717.93,0,0
249498.825,139.187,-714.868,0,0
249759.15,137.217,-711.904,0,0
250019.475,135.228,-708.73,0,0
250279.8,133.474,-705.555,0,0
250540,131.809,-702.29,0,0
250800,130.34,-699.022,0,0
251061,128.962,-695.697,0,0
251321,127.691,-692.371,0,0
251581,126.61,-689.051,0,0
251842,125.58,-685.739,0,0
252102,124.691,-682.475,0,0
252362,123.87,-679.117,0,0
252623,123.221,-675.811,0,0
252883,122.685,-672.555,0,0
253143,122.217,-669.334,0,0
253404,121.867,-666.132,0,0
253664,121.544,-663.017,0,0
253924,121.312,-659.852,0,0
254185,121.06,-656.774,0,0
254445,120.986,-653.659,0,0
254705,120.918,-650.632,0,0
254966,120.959,-647.473,0,0
255226,121.072,-644.342,0,0
255486,121.348,-641.264,0,0
255747,121.685,-638.214,0,0
256007,122.14,-635.201,0,0
256267,122.704,-632.221,0,0
256528,123.367,-629.336,0,0
256788,124.091,-626.507,0,0
257048,124.889,-623.713,0,0
257309,125.814,-620.944,0,0
257569,126.81,-618.264,0,0
257829,127.939,-615.66,0,0
258090,129.153,-613.18,0,0
258350,130.407,-610.853,0,0
258610,131.698,-608.61,0,0
258871,132.956,-606.442,0,0
259131,134.225,-604.341,0,0
259391,135.536,-602.227,0,0
259651,136.913,-600.178,0,0
259912,138.406,-598.216,0,0
260172,139.973,-596.276,0,0
260432,141.6,-594.487,0,0
260693,143.28,-592.802,0,0
260953,144.977,-591.234,0,0
261213,146.763,-589.784,0,0
261474,148.534,-588.436,0,0
261734,150.343,-587.216,0,0
261994,152.132,-586.151,0,0
262255,153.946,-585.181,0,0
262515,155.731,-584.377,0,0
262775,157.454,-583.677,0,0
263036,159.084,-582.992,0,0
263296,160.724,-582.414,0,0
263556,162.45,-581.885,0,0
263817,164.155,-581.499,0,0
264077,165.905,-581.311,0,0
264337,167.487,-581.319,0,0
264598,169.011,-581.501,0,0
264858,170.36,-581.762,0,0
265118,171.491,-582.131,0,0
265379,172.45,-582.485,0,0
265639,173.272,-582.829,0,0
265899,173.959,-583.15,0,0
266160,174.529,-583.402,0,0
266420,174.994,-583.544,0,0
266680.25,175.482,-583.597,0,0
266940.575,176.03,-583.606,0,0
267200.9,176.595,-583.639,0,0
267461.225,177.137,-583.735,0,0
267721.55,177.699,-583.897,0,0
267981.875,178.101,-584.112,0,0
268242.2,178.441,-584.4,0,0
268502.525,178.601,-584.698,0,0
268762.85,178.623,-585.01,0,0
269023.175,178.501,-585.151,0,0
269283.5,178.2,-585.197,0,0
269543.825,177.749,-584.949,0,0
269804.15,177.359,-584.48,0,0
270064.475,177.045,-583.697,0,0
270324.8,176.875,-582.797,0,0
270585.125,176.906,-581.734,0,0
270845.45,177.189,-580.601,0,0
271105.775,177.673,-579.394,0,0
271366.1,178.334,-578.254,0,0
271626.425,179.248,-577.155,0,0
271886.75,180.264,-576.173,0,0
272147.075,181.457,-575.259,0,0
272407.4,182.699,-574.477,0,0
272667.725,184.058,-573.69,0,0
272928.05,185.5,-572.958,0,0
273188.375,187.141,-572.286,0,0
273448.7,188.969,-571.706,0,0
273709.025,191.039,-571.19,0,0
273969.35,193.384,-570.9,0,0
274229.675,195.995,-570.898,0,0
274490.0,198.848,-571.366,0,0
274750.325,201.757,-572.289,0,0
275010.65,204.598,-573.722,0,0
275270.975,207.311,-575.677,0,0
275531.3,209.794,-578.085,0,0
275791.625,211.98,-580.869,0,0
276051.95,213.813,-584.084,0,0
276312.275,215.149,-587.544,0,0
276572.6,215.995,-591.23,0,0
276832.925,216.346,-595.031,0,0
277093.25,216.076,-598.838,0,0
277353.575,215.343,-602.506,0,0
277613.9,214.139,-605.94,0,0
277874.225,212.676,-609.089,0,0
278134.55,210.918,-612.023,0,0
278394.875,208.951,-614.65,0,0
278655.2,206.817,-617.023,0,0
278915.525,204.647,-619.109,0,0
279175.85,202.383,-621.012,0,0
279436.175,200.095,-622.705,0,0
279696.5,197.789,-624.255,0,0
279956.825,195.436,-625.709,0,0
280217.15,193.133,-627.025,0,0
280477.475,190.783,-628.178,0,0
280737.8,188.371,-629.34,0,0
280998.125,185.876,-630.417,0,0
281258.45,183.268,-631.407,0,0
281518.775,180.56,-632.243,0,0
281779.1,177.788,-632.966,0,0
282039.425,174.96,-633.528,0,0
282299.75,172.028,-633.978,0,0
282560,168.974,-634.228,0,0
282820,165.784,-634.289,0,0
283081,162.527,-634.016,0,0
283341,159.315,-633.378,0,0
283601,156.228,-632.357,0,0
283862,153.483,-631.036,0,0
284122,151.117,-629.611,0,0
284382,149.106,-628.272,0,0
284643,147.326,-627.188,0,0
284903,145.501,-626.45,0,0
285163,143.41,-625.766,0,0
285424,141.03,-625.148,0,0
285684,138.428,-624.176,0,0
285944,135.772,-622.967,0,0
286205,133.107,-621.57,0,0
286465,130.439,-619.913,0,0
286725,127.789,-617.998,0,0
286986,125.208,-615.769,0,0
287246,122.756,-613.316,0,0
287506,120.475,-610.545,0,0
287767,118.363,-607.502,0,0
288027,116.512,-604.176,0,0
288287,114.994,-600.616,0,0
288548,113.855,-596.848,0,0
288808,113.166,-592.889,0,0
289068,112.97,-588.897,0,0
289329,113.229,-584.911,0,0
289589,114,-580.994,0,0
289849,115.263,-577.271,0,0
290109,117.041,-573.724,0,0
290370,119.304,-570.572,0,0
290630,121.973,-567.887,0,0
290890,124.898,-565.835,0,0
291151,127.976,-564.379,0,0
291411,130.983,-563.464,0,0
291671,133.858,-563.07,0,0
291932,136.533,-563.102,0,0
292192,139.062,-563.465,0,0
292452,141.333,-564.162,0,0
292713,143.38,-565.161,0,0
292973,145.17,-566.447,0,0
293233,146.606,-567.993,0,0
293494,147.614,-569.826,0,0
293754,148.028,-571.721,0,0
294014,147.955,-573.449,0,0
294275,147.367,-574.859,0,0
294535,146.589,-575.848,0,0
294795,145.679,-576.325,0,0
295056,144.942,-576.314,0,0
295316,144.606,-575.933,0,0
295576,144.905,-575.447,0,0
295837,145.76,-575.229,0,0
296097,146.957,-575.593,0,0
296357,148.195,-576.583,0,0
296618,149.235,-578.204,0,0
296878,149.775,-580.318,0,0
297138,149.756,-582.693,0,0
297399,149.115,-585.102,0,0
297659,147.87,-587.373,0,0
297919,146.145,-589.322,0,0
298180,144.146,-590.836,0,0
298440,142.037,-591.936,0,0
298700.2,139.89,-592.697,0,0
298960.525,137.84,-593.162,0,0
299220.85,135.873,-593.446,0,0
299481.175,133.995,-593.561,0,0
299741.5,132.216,-593.62,0,0
300001.825,130.454,-593.583,0,0
300262.15,128.7,-593.534,0,0
300522.475,126.916,-593.323,0,0
300782.8,125.182,-592.99,0,0
301043.125,123.487,-592.516,0,0
301303.45,121.899,-591.928,0,0
301563.775,120.415,-591.227,0,0
301824.1,119.096,-590.442,0,0
302084.425,117.925,-589.624,0,0
302344.75,116.989,-588.84,0,0
302605.075,116.209,-588.125,0,0
302865.4,115.537,-587.621,0,0
303125.725,114.917,-587.276,0,0
303386.05,114.253,-587.097,0,0
303646.375,113.474,-587.069,0,0
303906.7,112.574,-587.141,0,0
304167.025,111.545,-587.269,0,0
304427.35,110.34,-587.375,0,0
304687.675,109.068,-587.452,0,0
304948.0,107.646,-587.504,0,0
305208.325,106.13,-587.533,0,0
305468.65,104.466,-587.461,0,0
305728.975,102.701,-587.181,0,0
305989.3,100.874,-586.803,0,0
306249.625,99.0916,-586.278,0,0
306509.95,97.25,-585.626,0,0
306770.275,95.5103,-584.858,0,0
307030.6,93.7561,-583.956,0,0
307290.925,92.1164,-582.946,0,0
307551.25,90.5541,-581.867,0,0
307811.575,89.0772,-580.744,0,0
308071.9,87.6587,-579.591,0,0
308332.225,86.3188,-578.431,0,0
308592.55,85.0261,-577.253,0,0
308852.875,83.7693,-576.075,0,0
309113.2,82.5461,-574.849,0,0
309373.525,81.3535,-573.617,0,0
309633.85,80.2007,-572.368,0,0
309894.175,79.1055,-571.101,0,0
310154.5,78.0203,-569.83,0,0
310414.825,76.9787,-568.532,0,0
310675.15,75.9711,-567.206,0,0
310935.475,74.9959,-565.875,0,0
311195.8,74.0486,-564.516,0,0
311456.125,73.1617,-563.134,0,0
311716.45,72.3443,-561.731,0,0
311976.775,71.5846,-560.323,0,0
312237.1,70.874,-558.944,0,0
312497.425,70.225,-557.565,0,0
312757.75,69.5959,-556.242,0,0
313018.075,69.0109,-554.941,0,0
313278.4,68.4308,-553.651,0,0
313538.725,67.8602,-552.392,0,0
313799.05,67.2968,-551.145,0,0
314059.375,66.7353,-549.905,0,0
314319.7,66.2019,-548.642,0,0
314580,65.5944,-547.519,0,0
314840,65.1077,-546.179,0,0
315101,64.6603,-545.046,0,0
315361,64.1654,-543.8,0,0
315621,63.6838,-542.582,0,0
315882,63.1142,-541.315,0,0
316142,62.6618,-540.011,0,0
316402,62.2672,-538.734,0,0
316663,61.7876,-537.447,0,0
316923,61.4815,-536.231,0,0
317183,61.0739,-534.884,0,0
317444,60.7807,-533.598,0,0
317704,60.4684,-532.318,0,0
317964,60.3073,-531.052,0,0
318225,60.0481,-529.87,0,0
318485,59.8676,-528.673,0,0
318745,59.6399,-527.516,0,0
319006,59.5582,-526.407,0,0
319266,59.3243,-525.322,0,0
319526,59.1167,-524.128,0,0
319787,58.9633,-523.115,0,0
320047,58.7886,-522.048,0,0
320307,58.5495,-520.929,0,0
320567,58.3622,-519.881,0,0
320828,58.1245,-518.839,0,0
321088,57.929,-517.723,0,0
321348,57.7324,-516.605,0,0
321609,57.5743,-515.542,0,0
321869,57.327,-514.476,0,0
322129,57.1806,-513.401,0,0
322390,57.0879,-512.284,0,0
322650,56.8524,-511.212,0,0
322910,56.6495,-510.092,0,0
323171,56.5322,-508.955,0,0
323431,56.2826,-507.86,0,0
323691,56.0885,-506.609,0,0
323952,55.9886,-505.368,0,0
324212,55.8367,-504.096,0,0
324472,55.8619,-502.73,0,0
324733,55.8935,-501.329,0,0
324993,55.9914,-499.957,0,0
325253,56.2351,-498.623,0,0
325514,56.5446,-497.234,0,0
325774,56.9837,-495.959,0,0
326034,57.5061,-494.734,0,0
326295,58.0903,-493.595,0,0
326555,58.724,-492.579,0,0
326815,59.4126,-491.736,0,0
327076,60.0771,-490.927,0,0
327336,60.7342,-490.288,0,0
327596,61.3011,-489.684,0,0
327857,61.8032,-489.158,0,0
328117,62.2974,-488.667,0,0
328377,62.6535,-488.256,0,0
328638,63.006,-487.735,0,0
328898,63.3604,-487.297,0,0
329158,63.7175,-486.891,0,0
329419,64.0782,-486.449,0,0
329679,64.3663,-486.118,0,0
329939,64.6982,-485.755,0,0
330200,65.0034,-485.451,0,0
330460,65.2499,-485.272,0,0
330720.15,65.4757,-485.048,0,0
330980.475,65.6993,-484.903,0,0
331240.8,65.7286,-484.683,0,0
331501.125,65.7791,-484.62,0,0
331761.45,65.8033,-484.521,0,0
332021.775,65.7958,-484.453,0,0
332282.1,65.6767,-484.315,0,0
332542.425,65.4559,-484.247,0,0
332802.75,65.2803,-484.162,0,0
333063.075,64.8931,-484.002,0,0
333323.4,64.5215,-483.819,0,0
333583.725,64.0758,-483.619,0,0
333844.05,63.6419,-483.263,0,0
334104.375,63.1393,-482.975,0,0
334364.7,62.5961,-482.534,0,0
334625.025,62.1555,-482.016,0,0
334885.35,61.6894,-481.557,0,0
335145.675,61.2171,-480.948,0,0
335406.0,60.7235,-480.428,0,0
335666.325,60.3833,-479.84,0,0
335926.65,59.893,-479.247,0,0
336186.975,59.5369,-478.496,0,0
336447.3,59.0572,-477.862,0,0
336707.625,58.677,-477.193,0,0
336967.95,58.2917,-476.451,0,0
337228.275,57.8287,-475.676,0,0
337488.6,57.548,-474.858,0,0
337748.925,57.1822,-474.059,0,0
338009.25,56.9099,-473.28,0,0
338269.575,56.6037,-472.432,0,0
338529.9,56.3659,-471.59,0,0
338790.225,56.1375,-470.802,0,0
339050.55,55.8765,-469.952,0,0
339310.875,55.7147,-469.067,0,0
339571.2,55.4566,-468.279,0,0
339831.525,55.34,-467.489,0,0
340091.85,55.1446,-466.617,0,0
340352.175,55.0345,-465.78,0,0
340612.5,54.958,-464.985,0,0
340872.825,54.7604,-464.133,0,0
341133.15,54.6277,-463.253,0,0
341393.475,54.5503,-462.395,0,0
341653.8,54.412,-461.572,0,0
341914.125,54.3691,-460.701,0,0
342174.45,54.2736,-459.845,0,0
342434.775,54.2608,-458.965,0,0
342695.1,54.1845,-458.091,0,0
342955.425,54.1899,-457.215,0,0
343215.75,54.1736,-456.365,0,0
343476.075,54.2031,-455.471,0,0
343736.4,54.2688,-454.602,0,0
343996.725,54.3232,-453.716,0,0
344257.05,54.4234,-452.829,0,0
344517.375,54.4784,-451.999,0,0
344777.7,54.6447,-451.172,0,0
345038.025,54.7723,-450.314,0,0
345298.35,54.9273,-449.482,0,0
345558.675,55.0934,-448.682,0,0
345819.0,55.2786,-447.871,0,0
346079.325,55.4866,-447.098,0,0
346339.65,55.6999,-446.252,0,0
346599.975,55.9919,-445.508,0,0
346860,56.1955,-444.737,0,0
347121,56.4564,-444.011,0,0
347381,56.6962,-443.271,0,0
347641,56.9942,-442.587,0,0
347902,57.2382,-441.929,0,0
348162,57.5617,-441.24,0,0
348422,57.8446,-440.509,0,0
348683,58.1237,-439.897,0,0
348943,58.4655,-439.261,0,0
349203,58.8085,-438.604,0,0
349464,59.1447,-437.99,0,0
349724,59.5285,-437.424,0,0
349984,59.846,-436.871,0,0
350245,60.2888,-436.316,0,0
350505,60.6846,-435.881,0,0
350765,61.0597,-435.415,0,0
351025,61.4115,-435.017,0,0
351286,61.6718,-434.665,0,0
351546,61.9929,-434.286,0,0
351806,62.2875,-433.908,0,0
352067,62.506,-433.496,0,0
352327,62.7532,-433.178,0,0
352587,62.9202,-432.763,0,0
352848,63.1656,-432.366,0,0
353108,63.3324,-432.008,0,0
353368,63.614,-431.565,0,0
353629,63.7871,-431.138,0,0
353889,64.0027,-430.755,0,0
354149,64.2525,-430.34,0,0
354410,64.485,-429.905,0,0
354670,64.7285,-429.546,0,0
354930,65.0009,-429.105,0,0
355191,65.2454,-428.767,0,0
355451,65.4947,-428.442,0,0
355711,65.7472,-428.123,0,0
355972,65.9772,-427.766,0,0
356232,66.2102,-427.401,0,0
356492,66.5039,-427.095,0,0
356753,66.6635,-426.77,0,0
357013,66.9939,-426.404,0,0
357273,67.2448,-426.1,0,0
357534,67.5376,-425.751,0,0
357794,67.8608,-425.482,0,0
358054,68.1937,-425.187,0,0
358315,68.5052,-424.904,0,0
358575,68.8458,-424.698,0,0
358835,69.1638,-424.495,0,0
359096,69.5596,-424.307,0,0
359356,69.9178,-424.215,0,0
359616,70.2049,-424.122,0,0
359877,70.5264,-424.139,0,0
360137,70.8253,-424.164,0,0
360397,71.0507,-424.214,0,0
360658,71.2216,-424.325,0,0
360918,71.3467,-424.371,0,0
361178,71.4619,-424.468,0,0
361438,71.5239,-424.54,0,0
361699,71.5233,-424.651,0,0
361959,71.4582,-424.683,0,0
362219,71.4299,-424.725,0,0
362480,71.3685,-424.714,0,0
362740.1,71.2592,-424.727,0,0
363000.425,71.19,-424.733,0,0
363260.75,71.0896,-424.727,0,0
363521.075,70.9664,-424.69,0,0
363781.4,70.8214,-424.671,0,0
364041.725,70.6729,-424.64,0,0
364302.05,70.4659,-424.607,0,0
364562.375,70.2284,-424.54,0,0
364822.7,69.9875,-424.47,0,0
365083.025,69.75,-424.35,0,0
365343.35,69.5487,-424.129,0,0
365603.675,69.3088,-424.01,0,0
365864.0,69.1088,-423.815,0,0
366124.325,68.8369,-423.584,0,0
366384.65,68.5988,-423.329,0,0
366644.975,68.3832,-423.138,0,0
366905.3,68.1757,-422.782,0,0
367165.625,68.036,-422.498,0,0
367425.95,67.8629,-422.192,0,0
367686.275,67.7939,-421.88,0,0
367946.6,67.7225,-421.617,0,0
368206.925,67.6597,-421.343,0,0
368467.25,67.6074,-421.074,0,0
368727.575,67.6048,-420.834,0,0
368987.9,67.5949,-420.697,0,0
369248.225,67.5582,-420.586,0,0
369508.55,67.482,-420.443,0,0
369768.875,67.4061,-420.398,0,0
370029.2,67.3094,-420.333,0,0
370289.525,67.0567,-420.272,0,0
370549.85,66.8761,-420.154,0,0
370810.175,66.6299,-420.038,0,0
371070.5,66.3579,-419.918,0,0
371330.825,66.0956,-419.731,0,0
371591.15,65.8504,-419.536,0,0
371851.475,65.6049,-419.32,0,0
372111.8,65.385,-419.124,0,0
372372.125,65.1199,-418.957,0,0
372632.45,64.934,-418.75,0,0
372892.775,64.7098,-418.542,0,0
373153.1,64.4734,-418.323,0,0
373413.425,64.2407,-418.167,0,0
373673.75,63.9866,-417.977,0,0
373934.075,63.7318,-417.854,0,0
374194.4,63.4837,-417.651,0,0
374454.725,63.1921,-417.489,0,0
374715.05,62.8664,-417.309,0,0
374975.375,62.5414,-417.089,0,0
375235.7,62.2163,-416.881,0,0
375496.025,61.8342,-416.651,0,0
375756.35,61.4528,-416.402,0,0
376016.675,61.099,-416.119,0,0
376277.0,60.7582,-415.795,0,0
376537.325,60.4193,-415.458,0,0
376797.65,60.1266,-415.113,0,0
377057.975,59.8462,-414.796,0,0
377318.3,59.6267,-414.44,0,0
377578.625,59.3902,-414.189,0,0
377838.95,59.2123,-413.978,0,0
378099.275,58.9025,-413.82,0,0
378359.6,58.5238,-413.694,0,0
378619.925,58.0998,-413.554,0,0
378880,57.5993,-413.441,0,0
379141,57.0014,-413.208,0,0
379401,56.3474,-412.963,0,0
379661,55.6786,-412.483,0,0
379922,54.9744,-411.963,0,0
380182,54.3314,-411.267,0,0
380442,53.8261,-410.516,0,0
380703,53.4766,-409.666,0,0
380963,53.2034,-408.842,0,0
381223,53.0892,-408.081,0,0
381483,53.0713,-407.443,0,0
381744,53.071,-406.871,0,0
382004,53.0953,-406.413,0,0
382264,53.0817,-406.09,0,0
382525,52.9488,-405.751,0,0
382785,52.7493,-405.483,0,0
383045,52.5614,-405.229,0,0
383306,52.2606,-404.915,0,0
383566,51.9488,-404.61,0,0
383826,51.5861,-404.251,0,0
384087,51.1867,-403.886,0,0
384347,50.75,-403.488,0,0
384607,50.3862,-403.047,0,0
384868,49.9932,-402.536,0,0
385128,49.6556,-402.022,0,0
385388,49.2548,-401.483,0,0
385649,48.8546,-400.909,0,0
385909,48.559,-400.365,0,0
386169,48.1554,-399.794,0,0
386430,47.8672,-399.192,0,0
386690,47.55,-398.618,0,0
386950,47.2101,-398.002,0,0
387211,46.9296,-397.397,0,0
387471,46.6224,-396.726,0,0
387731,46.3498,-396.046,0,0
387992,46.0525,-395.365,0,0
388252,45.7968,-394.665,0,0
388512,45.5812,-393.917,0,0
388773,45.372,-393.189,0,0
389033,45.2479,-392.472,0,0
389293,45.0994,-391.722,0,0
389554,45.0471,-390.969,0,0
389814,45.039,-390.204,0,0
390074,45.0413,-389.53,0,0
390335,45.0799,-388.874,0,0
390595,45.2058,-388.264,0,0
390855,45.2765,-387.774,0,0
391116,45.3444,-387.23,0,0
391376,45.4463,-386.778,0,0
391636,45.4471,-386.432,0,0
391896,45.4641,-386.063,0,0
392157,45.368,-385.766,0,0
392417,45.1938,-385.433,0,0
392677,45.0153,-385.12,0,0
392938,44.7132,-384.774,0,0
393198,44.3954,-384.357,0,0
393458,44.0689,-383.946,0,0
393719,43.6949,-383.437,0,0
393979,43.3137,-382.826,0,0
394239,42.9796,-382.217,0,0
394500,42.6449,-381.581,0,0
394760.05,42.2478,-380.85,0,0
395020.375,41.9894,-380.097,0,0
395280.7,41.7449,-379.301,0,0
395541.025,41.5766,-378.53,0,0
395801.35,41.3536,-377.662,0,0
396061.675,41.2502,-376.862,0,0
396322.0,41.1495,-376.047,0,0
396582.325,41.075,-375.291,0,0
396842.65,41.0371,-374.473,0,0
397102.975,41.042,-373.654,0,0
397363.3,41.0352,-372.859,0,0
397623.625,41.0821,-372.116,0,0
397883.95,41.1138,-371.31,0,0
398144.275,41.206,-370.547,0,0
398404.6,41.2613,-369.815,0,0
398664.925,41.3402,-369.058,0,0
398925.25,41.4703,-368.343,0,0
399185.575,41.588,-367.641,0,0
399445.9,41.7114,-366.941,0,0
399706.225,41.8747,-366.292,0,0
399966.55,42.0103,-365.628,0,0
400006.6,42.0673,-365.549,0,0