File: Accelerated corrosion test data/2025-09-30_08-18-27/sample_4.csv
Frequency (Hz),Impedance (ohms),Phase (Radians),Temperature (C),Humidity (%)
10000.0,265.621,-11844.9,0,0
10260.325,261.889,-11545.2,0,0
10520.65,252.928,-11263.9,0,0
10780.975,246.995,-10993.7,0,0
11041.3,241.419,-10736,0,0
11301.625,236.631,-10493.6,0,0
11561.95,230.686,-10257.7,0,0
11822.275,225.878,-10033.4,0,0
12082.6,221.644,-9818.81,0,0
12342.925,217.403,-9613.2,0,0
12603.25,213.964,-9414.56,0,0
12863.575,210.957,-9228.22,0,0
13123.9,211.498,-9048.34,0,0
13384.225,201.56,-8871.47,0,0
13644.55,197.995,-8700.69,0,0
13904.875,195.322,-8535.85,0,0
14165.2,196.253,-8374.26,0,0
14425.525,202.055,-8221.43,0,0
14685.8,206.131,-8113.74,0,0
14946.175,184.003,-7957.72,0,0
15206.5,182.835,-7813.45,0,0
15466.825,188.377,-7670.76,0,0
15727.15,193.129,-7569.84,0,0
15987.5,189.823,-7454.16,0,0
16247.8,172.53,-7327.72,0,0
16508.125,184.511,-7197.46,0,0
16768.45,179.619,-7100.95,0,0
17028.775,174.434,-7012.74,0,0
17289.1,162.38,-6899.21,0,0
17549.425,160.154,-6794.74,0,0
17809.75,157.596,-6693.81,0,0
18070.075,154.004,-6596.58,0,0
18330.4,155.331,-6499.53,0,0
18590.725,155.806,-6411.66,0,0
18851.05,151.449,-6327.38,0,0
19111.375,146.647,-6238.61,0,0
19371.7,144.351,-6153.39,0,0
19632.025,143.123,-6069.47,0,0
19892.35,144.969,-5988.31,0,0
20152.675,145.537,-5911.74,0,0
20413.0,142.8,-5839.96,0,0
20673.3,141.571,-5764.04,0,0
20933.65,138.911,-5691.42,0,0
21193.975,141.459,-5617.13,0,0
21454.3,152.283,-5550.48,0,0
21714.625,145.897,-5494,0,0
21974.9,151.14,-5424.28,0,0
22235.275,149.977,-5375.81,0,0
22495.6,138.763,-5321.86,0,0
22755.925,130.242,-5257.63,0,0
23016.25,126.781,-5195.46,0,0
23276.6,124.196,-5135.55,0,0
23536.9,122.779,-5077.98,0,0
23797.225,120.502,-5021.47,0,0
24057.55,119.043,-4965.97,0,0
24317.875,117.473,-4911.65,0,0
24578.2,116.274,-4858.38,0,0
24838.525,115.902,-4806.07,0,0
25098.85,115.813,-4756.42,0,0
25359.175,114.687,-4708.72,0,0
25619.5,113.613,-4658.86,0,0
25879.8,112.632,-4615.06,0,0
26140.1,109.528,-4566.54,0,0
26400.5,108.196,-4519.77,0,0
26660.8,108.426,-4474.36,0,0
26921.1,108.274,-4430.69,0,0
27181.4,106.721,-4385.46,0,0
27441.8,107.549,-4340.97,0,0
27702.1,109.913,-4297.18,0,0
27962.4,118.343,-4256.69,0,0
28222.7,120.026,-4223.52,0,0
28483.1,117.022,-4193.67,0,0
28743.4,111.759,-4153.92,0,0
29003.7,112.42,-4112.59,0,0
29264,116.661,-4078.37,0,0
29524.4,114.146,-4048.57,0,0
29784.7,109.063,-4016.29,0,0
30045,109.094,-3980.41,0,0
30305.3,103.159,-3946.88,0,0
30565.7,101.955,-3911.43,0,0
30826,100.493,-3877.26,0,0
31086.3,99.7934,-3843.29,0,0
31346.6,100.781,-3810.48,0,0
31607,99.7996,-3780.39,0,0
31867.3,98.1151,-3748.92,0,0
32127.6,100.099,-3717.46,0,0
32387.9,99.1696,-3690.94,0,0
32648.3,98.0213,-3660.69,0,0
32908.6,96.4149,-3634.49,0,0
33168.9,93.6166,-3605.22,0,0
33429.2,91.551,-3576.66,0,0
33689.6,90.1672,-3548.16,0,0
33949.9,88.7472,-3519.43,0,0
34210.2,89.1522,-3491.82,0,0
34470.5,87.6925,-3466.33,0,0
34730.9,86.2561,-3438.91,0,0
34991.2,85.9462,-3412.23,0,0
35251.5,85.2616,-3386.76,0,0
35511.8,84.4058,-3361.19,0,0
35772.2,83.8868,-3336.32,0,0
36032.5,82.9642,-3311.75,0,0
36292.8,82.223,-3287.06,0,0
36553.1,81.9446,-3262.47,0,0
36813.5,81.5731,-3238.53,0,0
37073.8,81.6804,-3215.89,0,0
37334.1,80.8963,-3193,0,0
37594.4,80.3476,-3170.29,0,0
37854.8,80.2615,-3147.91,0,0
38115.1,79.3266,-3126.18,0,0
38375.4,78.5603,-3103.79,0,0
38635.7,78.3754,-3081.49,0,0
38896.1,78.4657,-3060.2,0,0
39156.4,78.2413,-3039.38,0,0
39416.7,77.4908,-3018.67,0,0
39677,77.4688,-2997.2,0,0
39937.4,78.0671,-2976.14,0,0
40197.7,79.2863,-2955.41,0,0
40458,81.9399,-2937.44,0,0
40718.3,79.8831,-2920.21,0,0
40978.7,79.6871,-2899.91,0,0
41239,80.5432,-2881.01,0,0
41499.3,83.9025,-2864.42,0,0
41759.6,80.8578,-2849.78,0,0
42020,78.8059,-2831.11,0,0
42280.275,78.1144,-2811.6,0,0
42540.6,79.4928,-2794.72,0,0
42800.925,78.465,-2779.45,0,0
43061.25,76.6779,-2761.2,0,0
43321.575,77.1108,-2744.85,0,0
43581.9,75.7067,-2728.27,0,0
43842.225,74.8344,-2710.92,0,0
44102.55,75.2693,-2694.81,0,0
44362.875,73.5791,-2678.54,0,0
44623.2,73.2986,-2661.76,0,0
44883.525,73.0149,-2645.88,0,0
45143.85,72.2968,-2629.9,0,0
45404.175,71.5183,-2613.36,0,0
45664.5,72.6195,-2596.8,0,0
45924.825,73.4946,-2582.79,0,0
46185.15,72.3386,-2569.31,0,0
46445.475,71.7056,-2553.01,0,0
46705.8,72.4127,-2537.88,0,0
46966.125,72.708,-2524.26,0,0
47226.45,72.8957,-2509.81,0,0
47486.775,72.5157,-2497.43,0,0
47747.1,71.0229,-2483.66,0,0
48007.425,70.1035,-2469.61,0,0
48267.75,69.3319,-2455.36,0,0
48528.075,68.8613,-2441.79,0,0
48788.4,68.14,-2428.24,0,0
49048.725,67.0833,-2414.44,0,0
49309.05,67.0613,-2400.01,0,0
49569.375,66.4992,-2387.53,0,0
49829.7,66.0535,-2373.69,0,0
50090.025,65.7958,-2360.25,0,0
50350.35,65.4817,-2347.16,0,0
50610.675,65.4747,-2334.03,0,0
50871.0,65.0886,-2321.34,0,0
51131.325,64.607,-2308.28,0,0
51391.65,64.7374,-2295.24,0,0
51651.975,65.0464,-2282.53,0,0
51912.3,64.8553,-2270.25,0,0
52172.625,65.1882,-2257.43,0,0
52432.95,65.2192,-2245.08,0,0
52693.275,65.6581,-2232.14,0,0
52953.6,66.8235,-2219.72,0,0
53213.925,67.7631,-2208.59,0,0
53474.25,68.2675,-2196.72,0,0
53734.575,69.8029,-2184.37,0,0
53994.9,72.4561,-2173.05,0,0
54255.225,74.5502,-2163.48,0,0
54515.55,77.0907,-2154.72,0,0
54775.875,77.1791,-2148.13,0,0
55036.2,74.914,-2139.33,0,0
55296.525,74.1433,-2129.53,0,0
55556.85,72.6248,-2120.24,0,0
55817.175,71.4652,-2110.15,0,0
56077.5,69.6243,-2100.37,0,0
56337.825,68.1062,-2089.5,0,0
56598.15,66.9695,-2078.31,0,0
56858.475,66.5747,-2067.19,0,0
57118.8,66.4293,-2056.08,0,0
57379.125,66.8426,-2045.39,0,0
57639.45,66.9992,-2035.19,0,0
57899.775,67.0768,-2024.99,0,0
58160.1,67.3688,-2014.66,0,0
58420.4,68.1359,-2004.47,0,0
58680.7,68.6673,-1995.41,0,0
58941.1,68.4625,-1984.94,0,0
59201.4,69.3479,-1974.12,0,0
59461.7,71.5772,-1964.02,0,0
59722,74.186,-1955.03,0,0
59982.4,77.1203,-1947.39,0,0
60242.7,78.0106,-1941.15,0,0
60503,78.8864,-1933.23,0,0
60763.3,81.1225,-1926.55,0,0
61023.7,81.6482,-1923.02,0,0
61284,79.0214,-1917.76,0,0
61544.3,75.4486,-1911.51,0,0
61804.6,72.2714,-1902.02,0,0
62065,70.7548,-1893.49,0,0
62325.3,69.5745,-1885.22,0,0
62585.6,66.9349,-1876.68,0,0
62845.9,65.789,-1866.26,0,0
63106.3,65.2458,-1856.95,0,0
63366.6,65.3457,-1847.57,0,0
63626.9,65.5774,-1839.24,0,0
63887.2,65.096,-1831.05,0,0
64147.6,64.4508,-1822.2,0,0
64407.9,64.5225,-1813.15,0,0
64668.2,65.2475,-1804.52,0,0
64928.5,65.722,-1796.74,0,0
65188.9,65.6581,-1788.72,0,0
65449.2,66.4037,-1780.52,0,0
65709.5,66.3991,-1772.77,0,0
65969.8,67.206,-1764.36,0,0
66230.2,68.2282,-1757.1,0,0
66490.5,68.7172,-1749.81,0,0
66750.8,69.4331,-1742.45,0,0
67011.1,69.8998,-1735.43,0,0
67271.5,70.8957,-1728.07,0,0
67531.8,71.9508,-1721.58,0,0
67792.1,73.0799,-1715.26,0,0
68052.4,74.1622,-1709.66,0,0
68312.8,74.4509,-1704.5,0,0
68573.1,74.3047,-1699.45,0,0
68833.4,73.7001,-1694.39,0,0
69093.7,72.1912,-1689.26,0,0
69354.1,70.3587,-1683.33,0,0
69614.4,68.4711,-1676.84,0,0
69874.7,66.9509,-1669.5,0,0
70135,66.1163,-1662.17,0,0
70395.4,65.2526,-1655.3,0,0
70655.7,64.7646,-1647.23,0,0
70916,65.8751,-1640.49,0,0
71176.3,65.91,-1635.06,0,0
71436.7,65.1331,-1629.3,0,0
71697,64.8236,-1623.29,0,0
71957.3,63.6396,-1618.05,0,0
72217.6,61.2709,-1611.63,0,0
72478,59.7771,-1604.1,0,0
72738.3,59.1032,-1596.76,0,0
72998.6,58.2832,-1589.69,0,0
73258.9,57.6414,-1581.92,0,0
73519.3,58.0317,-1574.44,0,0
73779.6,58.3625,-1567.47,0,0
74039.9,58.7337,-1560.63,0,0
74300.225,59.2377,-1554.19,0,0
74560.55,59.5524,-1547.7,0,0
74820.875,59.9364,-1541.32,0,0
75081.2,60.4887,-1534.94,0,0
75341.525,61.1496,-1528.93,0,0
75601.85,61.6374,-1523.14,0,0
75862.175,61.9888,-1517.39,0,0
76122.5,62.4268,-1511.61,0,0
76382.825,62.9492,-1506.1,0,0
76643.15,62.8723,-1500.84,0,0
76903.475,62.5565,-1494.81,0,0
77163.8,63.2308,-1488.37,0,0
77424.125,64.5624,-1482.84,0,0
77684.45,65.5961,-1478.13,0,0
77944.775,66.2139,-1473.81,0,0
78205.1,66.1918,-1469.54,0,0
78465.425,65.8748,-1465.05,0,0
78725.75,65.3809,-1460.45,0,0
78986.075,64.6122,-1455.81,0,0
79246.4,63.719,-1450.89,0,0
79506.725,62.8817,-1445.56,0,0
79767.05,62.2927,-1440.14,0,0
80027.375,61.8557,-1434.6,0,0
80287.7,61.4586,-1429.13,0,0
80548.025,61.2874,-1423.76,0,0
80808.35,61.1833,-1418.46,0,0
81068.675,61.0945,-1413.26,0,0
81329.0,61.0213,-1408.06,0,0
81589.325,60.8568,-1403.1,0,0
81849.65,60.692,-1398.18,0,0
82109.975,60.3928,-1393.18,0,0
82370.3,60.0788,-1388.12,0,0
82630.625,59.8103,-1383.11,0,0
82890.95,59.6319,-1378.14,0,0
83151.275,59.3853,-1373.16,0,0
83411.6,59.0932,-1368.2,0,0
83671.925,58.8713,-1363.15,0,0
83932.25,58.6663,-1358.29,0,0
84192.575,58.4757,-1353.37,0,0
84452.9,58.2866,-1348.47,0,0
84713.225,58.082,-1343.63,0,0
84973.55,57.8785,-1338.62,0,0
85233.875,57.8517,-1333.81,0,0
85494.2,57.7106,-1329.12,0,0
85754.525,57.4246,-1324.33,0,0
86014.85,57.3027,-1319.47,0,0
86275.175,57.0944,-1314.81,0,0
86535.5,57.022,-1310.05,0,0
86795.825,56.9772,-1305.4,0,0
87056.15,56.8701,-1300.92,0,0
87316.475,56.6754,-1296.46,0,0
87576.8,56.3991,-1291.9,0,0
87837.125,56.1123,-1287.49,0,0
88097.45,55.6812,-1283.03,0,0
88357.775,55.0993,-1278.44,0,0
88618.1,54.5546,-1273.48,0,0
88878.425,54.2097,-1268.52,0,0
89138.75,54.0905,-1263.71,0,0
89399.075,54.0534,-1258.88,0,0
89659.4,54.0438,-1254.06,0,0
89919.725,54.1953,-1249.34,0,0
90180,54.1814,-1244.84,0,0
90440.4,54.0379,-1240.32,0,0
90700.7,53.973,-1235.73,0,0
90961,53.9726,-1231.17,0,0
91221.3,53.9219,-1226.53,0,0
91481.7,53.9665,-1221.87,0,0
91742,54.0967,-1217.29,0,0
92002.3,54.2244,-1212.66,0,0
92262.6,54.5891,-1208.19,0,0
92523,54.9714,-1203.87,0,0
92783.3,55.297,-1199.73,0,0
93043.6,55.5136,-1195.77,0,0
93303.9,55.5925,-1191.92,0,0
93564.3,55.5291,-1187.99,0,0
93824.6,55.4141,-1184.06,0,0
94084.9,55.0179,-1180.13,0,0
94345.2,54.6364,-1175.96,0,0
94605.6,54.2691,-1171.65,0,0
94865.9,53.8882,-1167.28,0,0
95126.2,53.7555,-1162.78,0,0
95386.5,53.5877,-1158.3,0,0
95646.9,53.5466,-1153.79,0,0
95907.2,53.5989,-1149.22,0,0
96167.5,53.8058,-1144.89,0,0
96427.8,53.9534,-1140.56,0,0
96688.2,54.1006,-1136.33,0,0
96948.5,54.2132,-1132,0,0
97208.8,54.4409,-1127.68,0,0
97469.1,54.6974,-1123.44,0,0
97729.5,54.9137,-1119.28,0,0
97989.8,55.0467,-1115.05,0,0
98250.1,55.3273,-1110.72,0,0
98510.4,55.5657,-1106.45,0,0
98770.8,55.9511,-1102.16,0,0
99031.1,56.3674,-1097.94,0,0
99291.4,56.9444,-1093.7,0,0
99551.7,57.6732,-1089.68,0,0
99812.1,58.1701,-1085.79,0,0
100072,58.5989,-1081.75,0,0
100333,59.1793,-1077.62,0,0
100593,60.294,-1073.58,0,0
100853,61.4447,-1070.17,0,0
101114,62.2002,-1067.05,0,0
101374,62.879,-1063.97,0,0
101634,63.4212,-1061.24,0,0
101895,63.3868,-1058.76,0,0
102155,62.5458,-1056.1,0,0
102415,61.4278,-1052.58,0,0
102676,60.6841,-1048.68,0,0
102936,59.8627,-1044.72,0,0
103196,58.9809,-1040.31,0,0
103457,58.4183,-1035.51,0,0
103717,58.3262,-1030.47,0,0
103977,58.6125,-1025.45,0,0
104238,59.3128,-1020.68,0,0
104498,59.9055,-1016.03,0,0
104758,60.7823,-1011.31,0,0
105019,61.935,-1006.75,0,0
105279,63.2079,-1002.5,0,0
105539,64.4297,-998.407,0,0
105800,65.6884,-994.331,0,0
106060,66.9464,-990.463,0,0
106320.175,68.1583,-986.627,0,0
106580.5,69.4186,-982.844,0,0
106840.825,70.7801,-979.17,0,0
107101.15,72.0943,-975.658,0,0
107361.475,73.2856,-972.132,0,0
107621.8,74.5828,-968.569,0,0
107882.125,75.7789,-964.905,0,0
108142.45,77.3223,-961.297,0,0
108402.775,78.8952,-957.811,0,0
108663.1,80.5686,-954.511,0,0
108923.425,82.4155,-951.409,0,0
109183.75,84.1474,-948.51,0,0
109444.075,85.8315,-945.704,0,0
109704.4,87.4602,-943.139,0,0
109964.725,88.8655,-940.681,0,0
110225.05,90.2471,-938.21,0,0
110485.375,91.6059,-935.711,0,0
110745.7,92.9164,-933.323,0,0
111006.025,94.2589,-930.981,0,0
111266.35,95.556,-928.773,0,0
111526.675,96.6694,-926.435,0,0
111787.0,97.8422,-924.186,0,0
112047.325,99.0069,-921.903,0,0
112307.65,100.194,-919.84,0,0
112567.975,101.325,-917.895,0,0
112828.3,102.446,-915.976,0,0
113088.625,103.459,-914.055,0,0
113348.95,104.471,-912.259,0,0
113609.275,105.332,-910.673,0,0
113869.6,106.043,-908.95,0,0
114129.925,106.66,-907.239,0,0
114390.25,107.323,-905.589,0,0
114650.575,107.918,-903.896,0,0
114910.9,108.487,-902.31,0,0
115171.225,108.967,-900.754,0,0
115431.55,109.255,-899.336,0,0
115691.875,109.456,-897.841,0,0
115952.2,109.439,-896.304,0,0
116212.525,109.372,-894.631,0,0
116472.85,109.487,-892.921,0,0
116733.175,109.303,-891.405,0,0
116993.5,108.948,-889.731,0,0
117253.825,108.461,-887.906,0,0
117514.15,107.94,-885.838,0,0
117774.475,107.416,-883.573,0,0
118034.8,107.035,-881.086,0,0
118295.125,106.834,-878.53,0,0
118555.45,106.709,-875.846,0,0
118815.775,106.834,-872.98,0,0
119076.1,107.366,-870.048,0,0
119336.425,108.448,-867.328,0,0
119596.75,109.937,-865.155,0,0
119857.075,111.326,-863.771,0,0
120117.4,112.435,-862.782,0,0
120377.725,113.337,-862.355,0,0
120638.05,113.52,-862.426,0,0
120898.375,112.597,-862.479,0,0
121158.7,110.988,-861.728,0,0
121419.025,109.384,-860.451,0,0
121679.35,107.781,-858.646,0,0
121939.675,106.42,-856.543,0,0
122200.0,105.196,-854.365,0,0
122460,104.021,-852.029,0,0
122721,102.938,-849.586,0,0
122981,102.055,-846.988,0,0
123241,101.268,-844.48,0,0
123502,100.568,-841.904,0,0
123762,99.9562,-839.337,0,0
124022,99.4123,-836.849,0,0
124283,98.8794,-834.473,0,0
124543,98.2335,-832.074,0,0
124803,97.5876,-829.586,0,0
125064,96.9786,-827.044,0,0
125324,96.5078,-824.502,0,0
125584,96.0431,-822.051,0,0
125845,95.5599,-819.573,0,0
126105,95.1937,-817.146,0,0
126365,94.8339,-814.913,0,0
126626,94.3289,-812.821,0,0
126886,93.5204,-810.767,0,0
127146,92.6465,-808.515,0,0
127406,91.6167,-806.11,0,0
127667,90.7097,-803.614,0,0
127927,89.8187,-801.183,0,0
128187,88.8589,-798.732,0,0
128448,87.7866,-796.251,0,0
128708,86.5668,-793.525,0,0
128968,85.448,-790.735,0,0
129229,84.3324,-787.99,0,0
129489,83.0085,-785.034,0,0
129749,81.6886,-781.866,0,0
130010,80.5489,-778.487,0,0
130270,79.5293,-775.034,0,0
130530,78.6225,-771.531,0,0
130791,77.7573,-768.006,0,0
131051,76.9342,-764.409,0,0
131311,76.1998,-760.711,0,0
131572,75.6375,-756.956,0,0
131832,75.2124,-753.249,0,0
132092,74.7896,-749.581,0,0
132353,74.3476,-745.925,0,0
132613,73.9835,-742.147,0,0
132873,73.7925,-738.347,0,0
133134,73.6179,-734.588,0,0
133394,73.5033,-730.806,0,0
133654,73.4137,-727.074,0,0
133915,73.364,-723.281,0,0
134175,73.3941,-719.446,0,0
134435,73.5691,-715.666,0,0
134696,73.7347,-711.849,0,0
134956,73.9434,-708.038,0,0
135216,74.2945,-704.263,0,0
135477,74.7001,-700.491,0,0
135737,75.1946,-696.777,0,0
135997,75.7348,-693.217,0,0
136258,76.2013,-689.65,0,0
136518,76.6636,-686.019,0,0
136778,77.2446,-682.398,0,0
137039,77.8934,-678.866,0,0
137299,78.6079,-675.433,0,0
137559,79.216,-672.126,0,0
137819,79.7167,-668.861,0,0
138080,80.0512,-665.56,0,0
138340.125,80.3569,-662.051,0,0
138600.45,80.7366,-658.433,0,0
138860.775,81.2204,-654.793,0,0
139121.1,81.7065,-651.117,0,0
139381.425,82.2554,-647.374,0,0
139641.75,82.8968,-643.612,0,0
139902.075,83.5872,-639.866,0,0
140162.4,84.3307,-636.073,0,0
140422.725,85.146,-632.24,0,0
140683.05,86.0351,-628.419,0,0
140943.375,87.0144,-624.563,0,0
141203.7,88.1097,-620.704,0,0
141464.025,89.325,-616.98,0,0
141724.35,90.5667,-613.342,0,0
141984.675,91.7396,-609.776,0,0
142245.0,92.8955,-606.173,0,0
142505.325,94.096,-602.518,0,0
142765.65,95.3671,-598.908,0,0
143025.975,96.654,-595.292,0,0
143286.3,97.898,-591.712,0,0
143546.625,99.2374,-588.1,0,0
143806.95,100.514,-584.489,0,0
144067.275,101.847,-580.813,0,0
144327.6,103.244,-577.112,0,0
144587.925,104.693,-573.373,0,0
144848.25,106.258,-569.599,0,0
145108.575,107.887,-565.871,0,0
145368.9,109.595,-562.168,0,0
145629.225,111.303,-558.459,0,0
145889.55,113.109,-554.78,0,0
146149.875,114.959,-551.089,0,0
146410.2,116.83,-547.356,0,0
146670.525,118.857,-543.621,0,0
146930.85,120.979,-539.949,0,0
147191.175,123.125,-536.382,0,0
147451.5,125.255,-532.783,0,0
147711.825,127.466,-529.18,0,0
147972.15,129.75,-525.638,0,0
148232.475,131.977,-522.102,0,0
148492.8,134.247,-518.446,0,0
148753.125,136.639,-514.706,0,0
149013.45,139.207,-510.971,0,0
149273.775,141.905,-507.211,0,0
149534.1,144.771,-503.508,0,0
149794.425,147.77,-499.843,0,0
150054.75,150.939,-496.257,0,0
150315.075,154.235,-492.792,0,0
150575.4,157.525,-489.425,0,0
150835.725,160.926,-486,0,0
151096.05,164.6,-482.639,0,0
151356.375,168.385,-479.447,0,0
151616.7,172.414,-476.426,0,0
151877.025,176.448,-473.674,0,0
152137.35,180.485,-471.033,0,0
152397.675,184.638,-468.439,0,0
152658.0,188.959,-466.025,0,0
152918.325,193.379,-463.851,0,0
153178.65,197.817,-461.916,0,0
153438.975,202.359,-460.241,0,0
153699.3,206.869,-458.937,0,0
153959.625,211.242,-457.99,0,0
154219.95,215.291,-457.202,0,0
154480,219.134,-456.514,0,0
154741,222.871,-456,0,0
155001,226.277,-455.448,0,0
155261,229.399,-454.821,0,0
155522,232.598,-453.93,0,0
155782,235.832,-453.047,0,0
156042,239.167,-452.16,0,0
156303,242.57,-451.391,0,0
156563,246.055,-450.736,0,0
156823,249.321,-450.473,0,0
157084,251.917,-450.065,0,0
157344,254.834,-449.148,0,0
157604,258.046,-448.468,0,0
157864,260.799,-447.811,0,0
158125,263.677,-446.807,0,0
158385,266.879,-445.517,0,0
158645,270.61,-444.562,0,0
158906,274.275,-443.729,0,0
159166,278.166,-442.977,0,0
159426,282.543,-442.502,0,0
159687,287.061,-442.753,0,0
159947,291.293,-443.627,0,0
160207,295.103,-444.803,0,0
160468,298.504,-446.351,0,0
160728,301.332,-447.784,0,0
160988,304.147,-449.012,0,0
161249,307.095,-450.713,0,0
161509,309.258,-452.782,0,0
161769,310.553,-454.545,0,0
162030,311.602,-455.91,0,0
162290,312.187,-456.89,0,0
162550,312.737,-457.24,0,0
162811,313.525,-457.135,0,0
163071,314.419,-457.045,0,0
163331,315.251,-456.548,0,0
163592,316.245,-455.804,0,0
163852,317.39,-454.779,0,0
164112,318.588,-453.433,0,0
164373,320.251,-451.695,0,0
164633,322.529,-449.784,0,0
164893,325.42,-448.009,0,0
165154,328.717,-446.519,0,0
165414,332.322,-445.507,0,0
165674,335.804,-444.801,0,0
165935,339.291,-444.061,0,0
166195,342.922,-443.413,0,0
166455,346.791,-442.776,0,0
166716,350.968,-441.945,0,0
166976,356.008,-441.467,0,0
167236,361.316,-441.601,0,0
167497,366.891,-442.299,0,0
167757,372.752,-443.471,0,0
168017,378.951,-445.431,0,0
168277,385.284,-448.563,0,0
168538,391.17,-452.84,0,0
168798,396.233,-457.969,0,0
169058,400.44,-463.543,0,0
169319,403.979,-469.309,0,0
169579,407.046,-475.411,0,0
169839,409.335,-481.853,0,0
170100,410.879,-488.239,0,0
170360.075,412.162,-494.642,0,0
170620.4,413.048,-501.504,0,0
170880.725,413.175,-508.986,0,0
171141.05,412.07,-516.932,0,0
171401.375,409.323,-524.557,0,0
171661.7,405.474,-531.308,0,0
171922.025,400.954,-537.326,0,0
172182.35,395.784,-542.597,0,0
172442.675,390.218,-546.932,0,0
172703.0,384.54,-550.799,0,0
172963.325,378.118,-554.28,0,0
173223.65,370.958,-556.567,0,0
173483.975,363.861,-557.525,0,0
173744.3,357.066,-557.624,0,0
174004.625,350.45,-556.916,0,0
174264.95,344.368,-555.475,0,0
174525.275,338.639,-553.765,0,0
174785.6,333.006,-551.465,0,0
175045.925,327.798,-548.542,0,0
175306.25,323.074,-545.241,0,0
175566.575,318.764,-541.63,0,0
175826.9,314.764,-537.779,0,0
176087.225,311.17,-533.588,0,0
176347.55,308.049,-529.133,0,0
176607.875,305.369,-524.514,0,0
176868.2,303.193,-519.795,0,0
177128.525,301.404,-515.062,0,0
177388.85,300.029,-510.309,0,0
177649.175,298.976,-505.577,0,0
177909.5,298.379,-500.813,0,0
178169.825,298.257,-496.3,0,0
178430.15,298.331,-492.147,0,0
178690.475,298.416,-488.169,0,0
178950.8,298.597,-484.226,0,0
179211.125,298.91,-480.434,0,0
179471.45,299.268,-476.727,0,0
179731.775,299.701,-473.08,0,0
179992.1,300.211,-469.45,0,0
180252.425,300.814,-465.897,0,0
180512.75,301.479,-462.421,0,0
180773.075,302.12,-459.03,0,0
181033.4,302.759,-455.665,0,0
181293.725,303.447,-452.235,0,0
181554.05,304.21,-448.858,0,0
181814.375,304.947,-445.515,0,0
182074.7,305.679,-442.16,0,0
182335.025,306.368,-438.778,0,0
182595.35,307.01,-435.309,0,0
182855.675,307.684,-431.755,0,0
183116.0,308.376,-428.073,0,0
183376.325,309.041,-424.257,0,0
183636.65,309.782,-420.252,0,0
183896.975,310.668,-416.064,0,0
184157.3,311.755,-411.723,0,0
184417.625,312.994,-407.337,0,0
184677.95,314.393,-402.863,0,0
184938.275,315.928,-398.356,0,0
185198.6,317.569,-393.782,0,0
185458.925,319.297,-389.086,0,0
185719.25,321.171,-384.209,0,0
185979.575,323.292,-379.172,0,0
186239.9,325.665,-374.04,0,0
186500,328.363,-368.886,0,0
186761,331.231,-363.729,0,0
187021,334.386,-358.486,0,0
187281,337.721,-353.312,0,0
187542,341.273,-347.989,0,0
187802,345.134,-342.749,0,0
188062,349.122,-337.422,0,0
188322,353.489,-332.153,0,0
188583,358.151,-326.825,0,0
188843,363.003,-321.623,0,0
189103,368.12,-316.279,0,0
189364,373.622,-311.033,0,0
189624,379.364,-305.881,0,0
189884,385.407,-300.829,0,0
190145,391.788,-295.671,0,0
190405,398.619,-290.645,0,0
190665,405.73,-285.785,0,0
190926,413.296,-281.073,0,0
191186,421.254,-276.547,0,0
191446,429.578,-272.242,0,0
191707,438.349,-268.234,0,0
191967,447.351,-264.591,0,0
192227,456.731,-261.301,0,0
192488,466.364,-258.474,0,0
192748,476.04,-255.985,0,0
193008,486.028,-253.788,0,0
193269,496.199,-252.009,0,0
193529,506.572,-250.651,0,0
193789,516.959,-249.746,0,0
194050,527.351,-249.115,0,0
194310,537.78,-248.612,0,0
194570,548.388,-248.361,0,0
194831,559.271,-248.39,0,0
195091,570.321,-248.792,0,0
195351,581.534,-249.59,0,0
195612,592.898,-250.695,0,0
195872,604.389,-252.138,0,0
196132,616.101,-253.875,0,0
196393,628.031,-256.047,0,0
196653,640.167,-258.682,0,0
196913,652.464,-261.704,0,0
197174,665.049,-265.158,0,0
197434,677.976,-269.176,0,0
197694,691.193,-273.931,0,0
197955,704.576,-279.381,0,0
198215,718.221,-285.764,0,0
198475,731.783,-293.124,0,0
198735,745.185,-301.455,0,0
198996,758.37,-310.552,0,0
199256,771.579,-320.611,0,0
199516,784.487,-331.906,0,0
199777,796.68,-344.398,0,0
200037,808.056,-357.847,0,0
200297,818.586,-372.049,0,0
200558,828.002,-387.011,0,0
200818,836.544,-402.38,0,0
201078,844.183,-418.226,0,0
201339,850.972,-434.609,0,0
201599,856.479,-451.489,0,0
201859,860.583,-468.466,0,0
202120,863.689,-485.255,0,0
202380.025,866.074,-501.892,0,0
202640.35,867.241,-518.685,0,0
202900.675,867.226,-535.29,0,0
203161.0,865.996,-551.06,0,0
203421.325,864.024,-565.755,0,0
203681.65,862.202,-579.896,0,0
203941.975,860.196,-593.609,0,0
204202.3,858.156,-607.238,0,0
204462.625,855.789,-621.145,0,0
204722.95,852.499,-635.17,0,0
204983.275,848.265,-648.477,0,0
205243.6,843.892,-661.145,0,0
205503.925,839.468,-673.465,0,0
205764.25,834.817,-685.556,0,0
206024.575,830.051,-697.49,0,0
206284.9,824.815,-709.406,0,0
206545.225,819.163,-721.547,0,0
206805.55,812.944,-733.036,0,0
207065.875,806.542,-744.349,0,0
207326.2,799.803,-755.43,0,0
207586.525,792.502,-766.745,0,0
207846.85,784.37,-777.72,0,0
208107.175,775.528,-788.317,0,0
208367.5,766.292,-798.327,0,0
208627.825,756.099,-807.916,0,0
208888.15,745.265,-816.601,0,0
209148.475,733.898,-823.986,0,0
209408.8,722.472,-830.478,0,0
209669.125,711.153,-836.182,0,0
209929.45,699.935,-840.743,0,0
210189.775,688.601,-844.474,0,0
210450.1,677.73,-847.264,0,0
210710.425,667.594,-849.268,0,0
210970.75,657.862,-850.931,0,0
211231.075,648.77,-852.391,0,0
211491.4,639.823,-853.652,0,0
211751.725,631.044,-854.527,0,0
212012.05,622.455,-854.948,0,0
212272.375,614.171,-854.886,0,0
212532.7,606.344,-854.313,0,0
212793.025,599.009,-853.471,0,0
213053.35,592.396,-852.3,0,0
213313.675,586.306,-851.04,0,0
213574.0,580.732,-849.809,0,0
213834.325,575.564,-848.492,0,0
214094.65,570.859,-847.069,0,0
214354.975,566.915,-845.786,0,0
214615.3,563.444,-844.816,0,0
214875.625,560.523,-844.152,0,0
215135.95,558.009,-844.098,0,0
215396.275,555.44,-844.621,0,0
215656.6,552.861,-845.655,0,0
215916.925,550.161,-846.901,0,0
216177.25,547.272,-848.449,0,0
216437.575,544.215,-850.306,0,0
216697.9,540.834,-852.32,0,0
216958.225,537.107,-854.31,0,0
217218.55,533.255,-856.287,0,0
217478.875,529.344,-858.056,0,0
217739.2,525.246,-860.006,0,0
217999.525,521.059,-861.993,0,0
218259.85,516.577,-863.704,0,0
218520,511.894,-865.418,0,0
218780,507.066,-866.76,0,0
219041,502.356,-867.838,0,0
219301,497.722,-868.642,0,0
219561,493.41,-869.418,0,0
219822,489.37,-870.016,0,0
220082,485.409,-871.053,0,0
220342,481.456,-872.255,0,0
220603,477.235,-873.612,0,0
220863,472.85,-874.861,0,0
221123,468.339,-876.023,0,0
221384,463.919,-877.108,0,0
221644,459.271,-878.265,0,0
221904,454.669,-879.4,0,0
222165,449.829,-880.441,0,0
222425,444.681,-881.345,0,0
222685,439.519,-881.785,0,0
222946,434.461,-882.065,0,0
223206,429.667,-882.238,0,0
223466,424.888,-882.393,0,0
223727,420.402,-882.672,0,0
223987,415.721,-882.927,0,0
224247,410.948,-883.129,0,0
224508,406.172,-883.354,0,0
224768,401.333,-883.573,0,0
225028,396.471,-883.815,0,0
225289,391.505,-884.028,0,0
225549,386.499,-884.197,0,0
225809,381.233,-884.331,0,0
226070,375.806,-884.249,0,0
226330,370.015,-884.037,0,0
226590,364.224,-883.42,0,0
226851,358.319,-882.576,0,0
227111,352.564,-881.229,0,0
227371,346.974,-879.727,0,0
227632,341.497,-878.218,0,0
227892,336.133,-876.51,0,0
228152,330.652,-874.736,0,0
228413,325.14,-872.863,0,0
228673,319.633,-870.44,0,0
228933,314.234,-867.823,0,0
229193,309.098,-865.026,0,0
229454,304.098,-861.875,0,0
229714,299.383,-858.608,0,0
229974,294.73,-855.23,0,0
230235,290.498,-851.737,0,0
230495,286.317,-848.042,0,0
230755,282.457,-844.277,0,0
231016,278.88,-840.313,0,0
231276,275.617,-836.496,0,0
231536,272.586,-832.533,0,0
231797,269.844,-828.839,0,0
232057,267.369,-825.154,0,0
232317,264.901,-821.602,0,0
232578,262.504,-818.179,0,0
232838,260.123,-814.639,0,0
233098,257.962,-811.276,0,0
233359,255.965,-807.836,0,0
233619,253.936,-804.449,0,0
233879,252.101,-801.038,0,0
234140,250.461,-797.631,0,0
234400,248.953,-794.362,0,0
234660.3,247.523,-791.214,0,0
234920.625,246.177,-788.237,0,0
235180.95,244.797,-785.161,0,0
235441.275,243.554,-782.139,0,0
235701.6,242.366,-779.229,0,0
235961.925,241.33,-776.433,0,0
236222.25,240.299,-773.774,0,0
236482.575,239.22,-771.084,0,0
236742.9,238.102,-768.428,0,0
237003.225,237.127,-765.727,0,0
237263.55,236.177,-763.083,0,0
237523.875,235.265,-760.364,0,0
237784.2,234.561,-757.697,0,0
238044.525,233.868,-755.08,0,0
238304.85,233.342,-752.49,0,0
238565.175,232.875,-749.98,0,0
238825.5,232.69,-747.669,0,0
239085.825,232.452,-745.393,0,0
239346.15,232.236,-743.303,0,0
239606.475,232.051,-741.328,0,0
239866.8,231.843,-739.518,0,0
240127.125,231.617,-737.769,0,0
240387.45,231.395,-736.151,0,0
240647.775,231.127,-734.577,0,0
240908.1,230.916,-733.19,0,0
241168.425,230.579,-731.891,0,0
241428.75,230.106,-730.672,0,0
241689.075,229.601,-729.567,0,0
241949.4,229.004,-728.368,0,0
242209.725,228.326,-727.253,0,0
242470.05,227.57,-726.1,0,0
242730.375,226.771,-725.009,0,0
242990.7,225.859,-723.896,0,0
243251.025,224.873,-722.853,0,0
243511.35,223.857,-721.57,0,0
243771.675,222.851,-720.349,0,0
244032.0,221.797,-719.117,0,0
244292.325,220.734,-717.929,0,0
244552.65,219.579,-716.692,0,0
244812.975,218.314,-715.329,0,0
245073.3,217.037,-714.008,0,0
245333.625,215.619,-712.563,0,0
245593.95,214.242,-710.953,0,0
245854.275,212.898,-709.245,0,0
246114.6,211.561,-707.391,0,0
246374.925,210.375,-705.404,0,0
246635.25,209.284,-703.418,0,0
246895.575,208.358,-701.217,0,0
247155.9,207.506,-699.232,0,0
247416.225,206.77,-697.184,0,0
247676.55,206.102,-695.082,0,0
247936.875,205.669,-693.125,0,0
248197.2,205.237,-691.362,0,0
248457.525,204.798,-689.647,0,0
248717.85,204.376,-687.958,0,0
248978.175,203.758,-686.388,0,0
249238.5,203.239,-684.849,0,0
249498.825,202.713,-683.361,0,0
249759.15,202.103,-681.886,0,0
250019.475,201.364,-680.368,0,0
250279.8,200.606,-678.877,0,0
250540,199.835,-677.191,0,0
250800,199.151,-675.471,0,0
251061,198.575,-673.87,0,0
251321,197.942,-672.37,0,0
251581,197.242,-670.94,0,0
251842,196.377,-669.501,0,0
252102,195.45,-668.063,0,0
252362,194.362,-666.551,0,0
252623,193.125,-664.96,0,0
252883,191.817,-663.205,0,0
253143,190.336,-661.249,0,0
253404,188.832,-659.062,0,0
253664,187.369,-656.493,0,0
253924,186.093,-653.699,0,0
254185,185.055,-650.808,0,0
254445,184.177,-647.785,0,0
254705,183.423,-644.687,0,0
254966,182.829,-641.501,0,0
255226,182.42,-638.227,0,0
255486,182.204,-634.974,0,0
255747,182.018,-631.661,0,0
256007,182.013,-628.305,0,0
256267,182.077,-624.833,0,0
256528,182.33,-621.226,0,0
256788,182.879,-617.54,0,0
257048,183.683,-613.865,0,0
257309,184.763,-610.236,0,0
257569,186.03,-606.686,0,0
257829,187.516,-603.166,0,0
258090,189.185,-599.778,0,0
258350,191.017,-596.512,0,0
258610,192.918,-593.24,0,0
258871,195.051,-590.01,0,0
259131,197.382,-586.827,0,0
259391,199.893,-583.722,0,0
259651,202.716,-580.674,0,0
259912,205.87,-577.739,0,0
260172,209.256,-575.096,0,0
260432,212.843,-572.677,0,0
260693,216.595,-570.422,0,0
260953,220.588,-568.507,0,0
261213,224.849,-566.876,0,0
261474,229.226,-565.681,0,0
261734,233.673,-564.919,0,0
261994,238.07,-564.538,0,0
262255,242.292,-564.577,0,0
262515,246.391,-564.721,0,0
262775,250.452,-565.063,0,0
263036,254.587,-565.706,0,0
263296,258.549,-566.629,0,0
263556,262.687,-567.672,0,0
263817,266.703,-569.292,0,0
264077,270.335,-571.175,0,0
264337,273.708,-573.134,0,0
264598,277.056,-575.156,0,0
264858,280.364,-577.311,0,0
265118,283.668,-579.688,0,0
265379,286.928,-582.276,0,0
265639,290.155,-585.238,0,0
265899,293.304,-588.633,0,0
266160,296.086,-592.5,0,0
266420,298.521,-596.706,0,0
266680.25,300.536,-601.211,0,0
266940.575,302.097,-606.008,0,0
267200.9,302.981,-611.009,0,0
267461.225,303.204,-615.948,0,0
267721.55,302.845,-620.666,0,0
267981.875,302.087,-625.074,0,0
268242.2,301.036,-629.187,0,0
268502.525,299.713,-632.963,0,0
268762.85,298.378,-636.583,0,0
269023.175,296.99,-640.054,0,0
269283.5,295.439,-643.489,0,0
269543.825,293.722,-646.939,0,0
269804.15,291.697,-650.411,0,0
270064.475,289.06,-653.761,0,0
270324.8,285.927,-656.506,0,0
270585.125,282.777,-658.73,0,0
270845.45,279.72,-660.277,0,0
271105.775,276.933,-661.573,0,0
271366.1,274.437,-662.6,0,0
271626.425,272.21,-663.554,0,0
271886.75,270.176,-664.485,0,0
272147.075,268.322,-665.47,0,0
272407.4,266.597,-666.492,0,0
272667.725,264.932,-667.736,0,0
272928.05,263.309,-669.216,0,0
273188.375,261.449,-670.789,0,0
273448.7,259.402,-672.395,0,0
273709.025,257.292,-674.003,0,0
273969.35,254.995,-675.674,0,0
274229.675,252.453,-677.357,0,0
274490.0,249.695,-678.936,0,0
274750.325,246.822,-680.446,0,0
275010.65,243.715,-681.915,0,0
275270.975,240.266,-683.219,0,0
275531.3,236.646,-684.302,0,0
275791.625,232.749,-685.183,0,0
276051.95,228.644,-685.708,0,0
276312.275,224.41,-685.829,0,0
276572.6,220.199,-685.53,0,0
276832.925,215.959,-684.857,0,0
277093.25,211.709,-683.848,0,0
277353.575,207.639,-682.357,0,0
277613.9,203.79,-680.497,0,0
277874.225,200.261,-678.311,0,0
278134.55,197.027,-675.892,0,0
278394.875,194.152,-673.344,0,0
278655.2,191.53,-670.761,0,0
278915.525,189.11,-668.025,0,0
279175.85,186.962,-665.151,0,0
279436.175,185.161,-662.159,0,0
279696.5,183.731,-659.183,0,0
279956.825,182.707,-656.232,0,0
280217.15,181.969,-653.461,0,0
280477.475,181.528,-650.886,0,0
280737.8,181.257,-648.535,0,0
280998.125,181.106,-646.421,0,0
281258.45,181.002,-644.559,0,0
281518.775,180.927,-642.836,0,0
281779.1,180.912,-641.286,0,0
282039.425,180.788,-639.953,0,0
282299.75,180.555,-638.684,0,0
282560,180.248,-637.381,0,0
282820,179.911,-636.069,0,0
283081,179.572,-634.692,0,0
283341,179.368,-633.234,0,0
283601,179.377,-631.756,0,0
283862,179.638,-630.468,0,0
284122,179.984,-629.472,0,0
284382,180.304,-628.763,0,0
284643,180.398,-628.254,0,0
284903,180.344,-627.878,0,0
285163,180.188,-627.59,0,0
285424,179.789,-627.25,0,0
285684,179.277,-626.887,0,0
285944,178.65,-626.479,0,0
286205,177.961,-626.021,0,0
286465,177.21,-625.593,0,0
286725,176.294,-625.12,0,0
286986,175.25,-624.56,0,0
287246,174.043,-623.852,0,0
287506,172.746,-622.978,0,0
287767,171.265,-621.825,0,0
288027,169.743,-620.365,0,0
288287,168.317,-618.421,0,0
288548,167.153,-616.174,0,0
288808,166.382,-613.63,0,0
289068,165.965,-610.94,0,0
289329,165.962,-608.216,0,0
289589,166.395,-605.442,0,0
289849,167.208,-602.733,0,0
290109,168.412,-600.226,0,0
290370,170.028,-597.886,0,0
290630,171.973,-595.944,0,0
290890,174.094,-594.413,0,0
291151,176.31,-593.167,0,0
291411,178.673,-592.205,0,0
291671,181.118,-591.6,0,0
291932,183.669,-591.395,0,0
292192,186.2,-591.592,0,0
292452,188.654,-592.215,0,0
292713,190.925,-593.238,0,0
292973,193.011,-594.55,0,0
293233,194.838,-596.18,0,0
293494,196.46,-598.018,0,0
293754,197.836,-600.141,0,0
294014,198.84,-602.531,0,0
294275,199.5,-605.07,0,0
294535,199.761,-607.702,0,0
294795,199.608,-610.355,0,0
295056,199.156,-613.052,0,0
295316,198.23,-615.631,0,0
295576,196.967,-618.096,0,0
295837,195.332,-620.321,0,0
296097,193.475,-622.302,0,0
296357,191.483,-623.977,0,0
296618,189.326,-625.457,0,0
296878,187.076,-626.698,0,0
297138,184.734,-627.704,0,0
297399,182.335,-628.43,0,0
297659,179.926,-628.895,0,0
297919,177.559,-629.172,0,0
298180,175.247,-629.231,0,0
298440,173.048,-629.092,0,0
298700.2,170.962,-628.784,0,0
298960.525,169.039,-628.378,0,0
299220.85,167.231,-627.992,0,0
299481.175,165.538,-627.577,0,0
299741.5,163.883,-627.191,0,0
300001.825,162.212,-626.777,0,0
300262.15,160.563,-626.379,0,0
300522.475,158.947,-625.895,0,0
300782.8,157.347,-625.43,0,0
301043.125,155.713,-624.902,0,0
301303.45,154.129,-624.333,0,0
301563.775,152.56,-623.747,0,0
301824.1,150.987,-623.119,0,0
302084.425,149.373,-622.424,0,0
302344.75,147.757,-621.673,0,0
302605.075,146.17,-620.788,0,0
302865.4,144.625,-619.867,0,0
303125.725,143.179,-618.872,0,0
303386.05,141.792,-617.836,0,0
303646.375,140.441,-616.77,0,0
303906.7,139.166,-615.674,0,0
304167.025,137.954,-614.536,0,0
304427.35,136.796,-613.381,0,0
304687.675,135.714,-612.221,0,0
304948.0,134.682,-611.028,0,0
305208.325,133.667,-609.916,0,0
305468.65,132.701,-608.769,0,0
305728.975,131.777,-607.573,0,0
305989.3,130.893,-606.345,0,0
306249.625,130.102,-605.114,0,0
306509.95,129.377,-603.855,0,0
306770.275,128.741,-602.616,0,0
307030.6,128.212,-601.42,0,0
307290.925,127.769,-600.275,0,0
307551.25,127.367,-599.254,0,0
307811.575,126.992,-598.316,0,0
308071.9,126.564,-597.447,0,0
308332.225,126.129,-596.621,0,0
308592.55,125.682,-595.783,0,0
308852.875,125.249,-595.03,0,0
309113.2,124.808,-594.3,0,0
309373.525,124.339,-593.613,0,0
309633.85,123.792,-592.934,0,0
309894.175,123.255,-592.299,0,0
310154.5,122.682,-591.624,0,0
310414.825,122.097,-590.961,0,0
310675.15,121.443,-590.306,0,0
310935.475,120.809,-589.635,0,0
311195.8,120.145,-588.951,0,0
311456.125,119.456,-588.239,0,0
311716.45,118.75,-587.47,0,0
311976.775,118.061,-586.732,0,0
312237.1,117.371,-585.929,0,0
312497.425,116.644,-585.12,0,0
312757.75,115.95,-584.245,0,0
313018.075,115.267,-583.346,0,0
313278.4,114.638,-582.385,0,0
313538.725,114.049,-581.424,0,0
313799.05,113.531,-580.447,0,0
314059.375,113.044,-579.457,0,0
314319.7,112.613,-578.506,0,0
314580,112.207,-577.575,0,0
314840,111.839,-576.622,0,0
315101,111.464,-575.634,0,0
315361,111.208,-574.808,0,0
315621,111.044,-573.925,0,0
315882,110.786,-573.175,0,0
316142,110.618,-572.411,0,0
316402,110.402,-571.631,0,0
316663,110.27,-571.058,0,0
316923,110.127,-570.51,0,0
317183,109.929,-569.96,0,0
317444,109.688,-569.472,0,0
317704,109.469,-569.005,0,0
317964,109.262,-568.517,0,0
318225,109.015,-568.213,0,0
318485,108.782,-567.923,0,0
318745,108.41,-567.702,0,0
319006,108.055,-567.49,0,0
319266,107.574,-567.349,0,0
319526,107.061,-567.15,0,0
319787,106.441,-567.008,0,0
320047,105.636,-566.963,0,0
320307,104.869,-566.731,0,0
320567,104.057,-566.443,0,0
320828,103.188,-566.243,0,0
321088,102.285,-565.983,0,0
321348,101.267,-565.688,0,0
321609,100.198,-565.495,0,0
321869,99.009,-565.145,0,0
322129,97.7955,-564.68,0,0
322390,96.352,-564.177,0,0
322650,94.9577,-563.492,0,0
322910,93.4855,-562.643,0,0
323171,92.1771,-561.684,0,0
323431,90.7362,-560.553,0,0
323691,89.5004,-559.313,0,0
323952,88.2608,-557.989,0,0
324212,87.2141,-556.544,0,0
324472,86.1713,-555.143,0,0
324733,85.419,-553.616,0,0
324993,84.681,-552.172,0,0
325253,84.0411,-550.752,0,0
325514,83.449,-549.368,0,0
325774,82.8939,-547.958,0,0
326034,82.3999,-546.693,0,0
326295,81.8828,-545.411,0,0
326555,81.3281,-544.042,0,0
326815,80.7948,-542.808,0,0
327076,80.2898,-541.409,0,0
327336,79.7711,-540.036,0,0
327596,79.3709,-538.691,0,0
327857,78.9157,-537.339,0,0
328117,78.5643,-535.891,0,0
328377,78.2256,-534.49,0,0
328638,77.938,-533.044,0,0
328898,77.75,-531.555,0,0
329158,77.5802,-530.153,0,0
329419,77.5167,-528.715,0,0
329679,77.5124,-527.282,0,0
329939,77.584,-525.858,0,0
330200,77.7391,-524.496,0,0
330460,77.9107,-523.251,0,0
330720.15,78.1222,-521.996,0,0
330980.475,78.4475,-520.853,0,0
331240.8,78.7614,-519.845,0,0
331501.125,79.1359,-518.825,0,0
331761.45,79.4067,-517.951,0,0
332021.775,79.7078,-517.226,0,0
332282.1,79.9649,-516.549,0,0
332542.425,80.0981,-515.842,0,0
332802.75,80.192,-515.223,0,0
333063.075,80.2144,-514.613,0,0
333323.4,80.2182,-514.001,0,0
333583.725,80.1814,-513.34,0,0
333844.05,80.0565,-512.766,0,0
334104.375,79.9485,-512.105,0,0
334364.7,79.7357,-511.511,0,0
334625.025,79.5768,-510.83,0,0
334885.35,79.3608,-510.154,0,0
335145.675,79.0811,-509.49,0,0
335406.0,78.7912,-508.772,0,0
335666.325,78.4709,-507.998,0,0
335926.65,78.1578,-507.212,0,0
336186.975,77.7718,-506.401,0,0
336447.3,77.4995,-505.505,0,0
336707.625,77.1643,-504.583,0,0
336967.95,76.8022,-503.647,0,0
337228.275,76.4101,-502.607,0,0
337488.6,76.1449,-501.541,0,0
337748.925,75.8058,-500.492,0,0
338009.25,75.5297,-499.265,0,0
338269.575,75.2824,-498.062,0,0
338529.9,75.1556,-496.834,0,0
338790.225,75.0416,-495.539,0,0
339050.55,75.0281,-494.101,0,0
339310.875,75.1106,-492.823,0,0
339571.2,75.2249,-491.482,0,0
339831.525,75.5457,-490.156,0,0
340091.85,75.8131,-488.916,0,0
340352.175,76.1266,-487.634,0,0
340612.5,76.5589,-486.419,0,0
340872.825,77.0567,-485.289,0,0
341133.15,77.5518,-484.099,0,0
341393.475,78.1176,-482.983,0,0
341653.8,78.7703,-481.945,0,0
341914.125,79.4776,-480.969,0,0
342174.45,80.219,-479.946,0,0
342434.775,80.9961,-479.171,0,0
342695.1,81.831,-478.336,0,0
342955.425,82.7792,-477.7,0,0
343215.75,83.6952,-477.173,0,0
343476.075,84.581,-476.741,0,0
343736.4,85.3763,-476.47,0,0
343996.725,86.2727,-476.286,0,0
344257.05,86.9588,-476.218,0,0
344517.375,87.5948,-476.17,0,0
344777.7,88.1961,-476.186,0,0
345038.025,88.6544,-476.266,0,0
345298.35,89.0746,-476.356,0,0
345558.675,89.3488,-476.514,0,0
345819.0,89.5427,-476.727,0,0
346079.325,89.7133,-476.817,0,0
346339.65,89.7398,-476.954,0,0
346599.975,89.7501,-477.099,0,0
346860,89.6481,-477.172,0,0
347121,89.5493,-477.208,0,0
347381,89.4486,-477.252,0,0
347641,89.1941,-477.25,0,0
347902,88.9514,-477.181,0,0
348162,88.6812,-477.097,0,0
348422,88.331,-477.001,0,0
348683,87.9763,-476.878,0,0
348943,87.6629,-476.678,0,0
349203,87.2122,-476.452,0,0
349464,86.8577,-476.165,0,0
349724,86.4077,-475.891,0,0
349984,85.9788,-475.569,0,0
350245,85.5798,-475.26,0,0
350505,85.097,-474.85,0,0
350765,84.6333,-474.345,0,0
351025,84.1426,-473.821,0,0
351286,83.7166,-473.223,0,0
351546,83.3369,-472.64,0,0
351806,82.9395,-472.016,0,0
352067,82.5628,-471.336,0,0
352327,82.2434,-470.633,0,0
352587,81.8542,-469.956,0,0
352848,81.5749,-469.178,0,0
353108,81.3454,-468.442,0,0
353368,81.1446,-467.63,0,0
353629,80.994,-466.837,0,0
353889,80.889,-465.967,0,0
354149,80.8222,-465.153,0,0
354410,80.8732,-464.318,0,0
354670,80.9729,-463.566,0,0
354930,81.0656,-462.899,0,0
355191,81.2369,-462.242,0,0
355451,81.4143,-461.667,0,0
355711,81.5535,-461.201,0,0
355972,81.5991,-460.741,0,0
356232,81.6536,-460.296,0,0
356492,81.6727,-459.91,0,0
356753,81.6445,-459.502,0,0
357013,81.5654,-459.08,0,0
357273,81.5481,-458.623,0,0
357534,81.4377,-458.269,0,0
357794,81.29,-457.858,0,0
358054,81.1877,-457.453,0,0
358315,80.9852,-457.075,0,0
358575,80.6784,-456.64,0,0
358835,80.4182,-456.201,0,0
359096,80.0046,-455.668,0,0
359356,79.6419,-455.015,0,0
359616,79.2748,-454.368,0,0
359877,78.9978,-453.587,0,0
360137,78.6817,-452.811,0,0
360397,78.4799,-452.006,0,0
360658,78.3435,-451.071,0,0
360918,78.215,-450.177,0,0
361178,78.1331,-449.271,0,0
361438,78.1473,-448.441,0,0
361699,78.163,-447.531,0,0
361959,78.2598,-446.669,0,0
362219,78.3739,-445.862,0,0
362480,78.5016,-445.03,0,0
362740.1,78.6977,-444.273,0,0
363000.425,78.8981,-443.539,0,0
363260.75,79.1188,-442.828,0,0
363521.075,79.3425,-442.062,0,0
363781.4,79.5543,-441.475,0,0
364041.725,79.814,-440.835,0,0
364302.05,79.9402,-440.26,0,0
364562.375,80.1232,-439.73,0,0
364822.7,80.2731,-439.253,0,0
365083.025,80.3742,-438.663,0,0
365343.35,80.3725,-438.089,0,0
365603.675,80.3766,-437.484,0,0
365864.0,80.3751,-436.91,0,0
366124.325,80.3084,-436.165,0,0
366384.65,80.2723,-435.403,0,0
366644.975,80.2596,-434.5,0,0
366905.3,80.3564,-433.637,0,0
367165.625,80.5645,-432.701,0,0
367425.95,80.7663,-431.735,0,0
367686.275,81.0027,-430.785,0,0
367946.6,81.3544,-429.836,0,0
368206.925,81.6677,-428.878,0,0
368467.25,82.147,-427.835,0,0
368727.575,82.711,-426.871,0,0
368987.9,83.341,-425.888,0,0
369248.225,84.0884,-424.957,0,0
369508.55,84.9409,-424.119,0,0
369768.875,85.8683,-423.32,0,0
370029.2,86.857,-422.646,0,0
370289.525,87.9082,-422.075,0,0
370549.85,88.9776,-421.595,0,0
370810.175,89.9597,-421.268,0,0
371070.5,91.093,-420.962,0,0
371330.825,92.1165,-420.768,0,0
371591.15,93.1616,-420.682,0,0
371851.475,94.2444,-420.634,0,0
372111.8,95.3101,-420.716,0,0
372372.125,96.3696,-420.963,0,0
372632.45,97.3172,-421.279,0,0
372892.775,98.2186,-421.765,0,0
373153.1,99.082,-422.268,0,0
373413.425,99.7971,-422.966,0,0
373673.75,100.374,-423.706,0,0
373934.075,100.819,-424.491,0,0
374194.4,101.076,-425.326,0,0
374454.725,101.165,-426.109,0,0
374715.05,101.161,-426.778,0,0
374975.375,100.96,-427.397,0,0
375235.7,100.791,-427.891,0,0
375496.025,100.53,-428.312,0,0
375756.35,100.197,-428.583,0,0
376016.675,99.9642,-428.785,0,0
376277.0,99.774,-428.943,0,0
376537.325,99.5964,-429.13,0,0
376797.65,99.4793,-429.24,0,0
377057.975,99.32,-429.398,0,0
377318.3,99.2206,-429.525,0,0
377578.625,99.0742,-429.752,0,0
377838.95,98.9255,-429.922,0,0
378099.275,98.7443,-430.098,0,0
378359.6,98.5126,-430.275,0,0
378619.925,98.1952,-430.438,0,0
378880,97.9149,-430.567,0,0
379141,97.5901,-430.619,0,0
379401,97.2954,-430.623,0,0
379661,96.9809,-430.618,0,0
379922,96.7257,-430.627,0,0
380182,96.4547,-430.572,0,0
380442,96.2446,-430.53,0,0
380703,96.012,-430.432,0,0
380963,95.8001,-430.391,0,0
381223,95.6311,-430.37,0,0
381483,95.4513,-430.32,0,0
381744,95.3232,-430.323,0,0
382004,95.1015,-430.3,0,0
382264,94.9325,-430.313,0,0
382525,94.8007,-430.283,0,0
382785,94.7291,-430.296,0,0
383045,94.6258,-430.425,0,0
383306,94.5794,-430.509,0,0
383566,94.4318,-430.746,0,0
383826,94.3201,-431.047,0,0
384087,94.1198,-431.387,0,0
384347,93.8266,-431.838,0,0
384607,93.3281,-432.272,0,0
384868,92.7984,-432.737,0,0
385128,92.1122,-433.115,0,0
385388,91.3329,-433.441,0,0
385649,90.4642,-433.76,0,0
385909,89.4646,-433.919,0,0
386169,88.5244,-433.952,0,0
386430,87.4534,-433.852,0,0
386690,86.4694,-433.694,0,0
386950,85.4065,-433.385,0,0
387211,84.4136,-433.033,0,0
387471,83.4907,-432.568,0,0
387731,82.5848,-432.015,0,0
387992,81.6941,-431.387,0,0
388252,80.8409,-430.693,0,0
388512,80.086,-429.872,0,0
388773,79.4389,-429.043,0,0
389033,78.9078,-428.153,0,0
389293,78.4291,-427.272,0,0
389554,78.1933,-426.372,0,0
389814,78.0281,-425.538,0,0
390074,77.9373,-424.737,0,0
390335,77.9477,-424.002,0,0
390595,78.021,-423.399,0,0
390855,78.1404,-422.951,0,0
391116,78.3049,-422.629,0,0
391376,78.3963,-422.395,0,0
391636,78.4686,-422.271,0,0
391896,78.4344,-422.302,0,0
392157,78.2615,-422.373,0,0
392417,77.9563,-422.439,0,0
392677,77.5611,-422.616,0,0
392938,77.0754,-422.68,0,0
393198,76.4445,-422.732,0,0
393458,75.7589,-422.733,0,0
393719,74.9821,-422.659,0,0
393979,74.1084,-422.499,0,0
394239,73.2044,-422.27,0,0
394500,72.2317,-421.899,0,0
394760.05,71.3011,-421.48,0,0
395020.375,70.366,-420.918,0,0
395280.7,69.4608,-420.256,0,0
395541.025,68.6198,-419.536,0,0
395801.35,67.8096,-418.773,0,0
396061.675,67.0751,-417.94,0,0
396322.0,66.3611,-417.073,0,0
396582.325,65.7411,-416.176,0,0
396842.65,65.1224,-415.257,0,0
397102.975,64.5997,-414.339,0,0
397363.3,64.0266,-413.333,0,0
397623.625,63.5645,-412.406,0,0
397883.95,63.1389,-411.405,0,0
398144.275,62.7553,-410.458,0,0
398404.6,62.4018,-409.479,0,0
398664.925,62.071,-408.506,0,0
398925.25,61.7369,-407.534,0,0
399185.575,61.4719,-406.566,0,0
399445.9,61.2162,-405.668,0,0
399706.225,60.9539,-404.64,0,0
399966.55,60.7286,-403.679,0,0
400006.6,60.6992,-403.532,0,0