File: Accelerated corrosion test data/2025-09-30_08-18-27/sample_7.csv
Frequency (Hz),Impedance (ohms),Phase (Radians),Temperature (C),Humidity (%)
10000.0,277.69,-12067.2,0,0
10260.325,279.215,-11777.5,0,0
10520.65,261.699,-11478.7,0,0
10780.975,255.686,-11197.7,0,0
11041.3,252.632,-10930.4,0,0
11301.625,250.215,-10675.7,0,0
11561.95,251.748,-10427.5,0,0
11822.275,260.507,-10198.8,0,0
12082.6,265.54,-9974.56,0,0
12342.925,326.535,-9792.85,0,0
12603.25,266.247,-9630.65,0,0
12863.575,273.262,-9432.72,0,0
13123.9,241.277,-9256.66,0,0
13384.225,235.75,-9082.43,0,0
13644.55,225.391,-8898.42,0,0
13904.875,211.68,-8735.02,0,0
14165.2,209.295,-8564.74,0,0
14425.525,210.344,-8425.97,0,0
14685.8,207.44,-8273.46,0,0
14946.175,201.346,-8127.37,0,0
15206.5,201.866,-7996.81,0,0
15466.825,187.988,-7856.78,0,0
15727.15,187.851,-7728.69,0,0
15987.5,182.014,-7599.9,0,0
16247.8,182.319,-7479.86,0,0
16508.125,174.257,-7359.17,0,0
16768.45,173.893,-7240.74,0,0
17028.775,173.343,-7130.99,0,0
17289.1,169.458,-7022.67,0,0
17549.425,168.983,-6913.7,0,0
17809.75,171.303,-6804.04,0,0
18070.075,172.786,-6708.6,0,0
18330.4,181.253,-6602.58,0,0
18590.725,200.611,-6517.97,0,0
18851.05,195.934,-6452.24,0,0
19111.375,183.868,-6369.48,0,0
19371.7,206.507,-6291.74,0,0
19632.025,172.938,-6224.16,0,0
19892.35,159.083,-6127.11,0,0
20152.675,171.691,-6040.98,0,0
20413.0,174.702,-5970.04,0,0
20673.3,170.504,-5892.87,0,0
20933.65,179.44,-5830.4,0,0
21193.975,162.655,-5770.2,0,0
21454.3,154.29,-5695.8,0,0
21714.625,157.333,-5627.64,0,0
21974.9,149.172,-5565.35,0,0
22235.275,143.677,-5497.19,0,0
22495.6,142.299,-5433.98,0,0
22755.925,136.757,-5371.02,0,0
23016.25,132.996,-5307.88,0,0
23276.6,130.785,-5245.24,0,0
23536.9,131.129,-5184.58,0,0
23797.225,130.569,-5129.22,0,0
24057.55,126.911,-5073.07,0,0
24317.875,125.047,-5015.49,0,0
24578.2,126.041,-4960.53,0,0
24838.525,124.341,-4907.49,0,0
25098.85,123.113,-4856.2,0,0
25359.175,121.878,-4803.23,0,0
25619.5,121.2,-4752.29,0,0
25879.8,121.603,-4702.27,0,0
26140.1,122.233,-4650.74,0,0
26400.5,126.346,-4602.67,0,0
26660.8,124.919,-4558.22,0,0
26921.1,125.413,-4507.64,0,0
27181.4,131.375,-4459.79,0,0
27441.8,134.771,-4415.88,0,0
27702.1,146.36,-4367.87,0,0
27962.4,161.247,-4326.34,0,0
28222.7,182.011,-4301.91,0,0
28483.1,182.422,-4284.46,0,0
28743.4,176.014,-4266.27,0,0
29003.7,160.929,-4238.61,0,0
29264,145.677,-4202.44,0,0
29524.4,137.746,-4161.87,0,0
29784.7,133.52,-4124.28,0,0
30045,129.185,-4081.1,0,0
30305.3,132.995,-4043.36,0,0
30565.7,134.344,-4010.63,0,0
30826,136.341,-3978.09,0,0
31086.3,138.216,-3950.63,0,0
31346.6,134.241,-3923.66,0,0
31607,132.624,-3897.18,0,0
31867.3,122.998,-3866.52,0,0
32127.6,119.775,-3834.42,0,0
32387.9,115.893,-3804.54,0,0
32648.3,112.304,-3773.96,0,0
32908.6,109.096,-3742.62,0,0
33168.9,106.533,-3713.05,0,0
33429.2,103.731,-3683.27,0,0
33689.6,101.196,-3653.67,0,0
33949.9,99.6404,-3624.45,0,0
34210.2,97.5639,-3595.89,0,0
34470.5,95.8636,-3567.37,0,0
34730.9,94.9514,-3539.28,0,0
34991.2,93.4517,-3511.81,0,0
35251.5,92.7056,-3485.24,0,0
35511.8,91.2711,-3457.93,0,0
35772.2,90.8542,-3431.65,0,0
36032.5,90.4601,-3405.92,0,0
36292.8,89.8534,-3380.92,0,0
36553.1,88.8349,-3356,0,0
36813.5,88.3956,-3330.88,0,0
37073.8,88.146,-3306.18,0,0
37334.1,88.0613,-3282.48,0,0
37594.4,87.9369,-3259.18,0,0
37854.8,87.2469,-3235.73,0,0
38115.1,86.854,-3211.84,0,0
38375.4,87.5461,-3188.61,0,0
38635.7,88.3426,-3166.02,0,0
38896.1,89.6241,-3143.3,0,0
39156.4,91.325,-3122.05,0,0
39416.7,94.2459,-3100.58,0,0
39677,97.6813,-3081.82,0,0
39937.4,98.9026,-3065.75,0,0
40197.7,98.7131,-3049.5,0,0
40458,96.9626,-3033.58,0,0
40718.3,94.0905,-3015.58,0,0
40978.7,91.492,-2997.05,0,0
41239,88.8518,-2978.38,0,0
41499.3,86.8025,-2958.92,0,0
41759.6,85.4485,-2939.8,0,0
42020,84.1101,-2921.42,0,0
42280.275,82.6038,-2901.8,0,0
42540.6,82.1064,-2882.68,0,0
42800.925,82.1986,-2864.43,0,0
43061.25,81.7494,-2846.15,0,0
43321.575,82.7449,-2829.47,0,0
43581.9,81.1979,-2812.2,0,0
43842.225,81.0858,-2793.88,0,0
44102.55,82.2378,-2776.26,0,0
44362.875,83.9916,-2760.76,0,0
44623.2,84.2471,-2745.75,0,0
44883.525,83.9551,-2732.19,0,0
45143.85,81.9079,-2716.84,0,0
45404.175,81.081,-2701.01,0,0
45664.5,81.1255,-2684.13,0,0
45924.825,82.3482,-2670.66,0,0
46185.15,81.3954,-2657.4,0,0
46445.475,79.4012,-2643.85,0,0
46705.8,76.8263,-2629.43,0,0
46966.125,74.6664,-2613.94,0,0
47226.45,73.47,-2598,0,0
47486.775,72.9232,-2583.01,0,0
47747.1,72.5766,-2568.02,0,0
48007.425,72.201,-2553.61,0,0
48267.75,71.7387,-2539.75,0,0
48528.075,71.1617,-2525.8,0,0
48788.4,70.5871,-2511.79,0,0
49048.725,70.0516,-2498,0,0
49309.05,69.374,-2484.35,0,0
49569.375,69.0045,-2470.73,0,0
49829.7,68.5923,-2457.37,0,0
50090.025,68.2926,-2444.13,0,0
50350.35,67.8654,-2430.97,0,0
50610.675,67.5753,-2417.95,0,0
50871.0,67.2249,-2405.2,0,0
51131.325,66.9423,-2392.64,0,0
51391.65,66.525,-2379.93,0,0
51651.975,66.1614,-2367.52,0,0
51912.3,65.8906,-2355.16,0,0
52172.625,65.7324,-2342.89,0,0
52432.95,65.5556,-2330.88,0,0
52693.275,65.4884,-2318.93,0,0
52953.6,65.3344,-2306.99,0,0
53213.925,65.1627,-2295.49,0,0
53474.25,65.1079,-2284.15,0,0
53734.575,64.8249,-2272.91,0,0
53994.9,64.4098,-2261.6,0,0
54255.225,64.0303,-2250.34,0,0
54515.55,63.827,-2239.2,0,0
54775.875,63.4555,-2228.17,0,0
55036.2,63.2662,-2217.23,0,0
55296.525,63.1015,-2206.25,0,0
55556.85,62.8176,-2195.54,0,0
55817.175,62.6719,-2184.98,0,0
56077.5,62.3477,-2174.35,0,0
56337.825,62.3479,-2163.76,0,0
56598.15,62.4168,-2153.59,0,0
56858.475,62.1237,-2143.41,0,0
57118.8,61.891,-2133.29,0,0
57379.125,61.6989,-2123.22,0,0
57639.45,61.5238,-2113.15,0,0
57899.775,61.2958,-2103.11,0,0
58160.1,61.4016,-2092.99,0,0
58420.4,61.6304,-2083.19,0,0
58680.7,61.835,-2074.02,0,0
58941.1,61.6411,-2064.75,0,0
59201.4,61.3581,-2055.33,0,0
59461.7,61.4147,-2045.83,0,0
59722,61.7684,-2036.84,0,0
59982.4,61.5801,-2028.04,0,0
60242.7,61.6847,-2019.18,0,0
60503,61.3651,-2010.65,0,0
60763.3,61.0393,-2001.94,0,0
61023.7,60.6485,-1993.28,0,0
61284,60.1387,-1984.47,0,0
61544.3,59.8888,-1975.93,0,0
61804.6,59.5169,-1967.49,0,0
62065,59.0094,-1958.79,0,0
62325.3,58.6697,-1950.05,0,0
62585.6,58.4678,-1941.53,0,0
62845.9,58.2355,-1933.04,0,0
63106.3,58.0379,-1924.67,0,0
63366.6,57.8966,-1916.27,0,0
63626.9,57.8141,-1908.21,0,0
63887.2,57.5036,-1900.09,0,0
64147.6,57.2226,-1891.89,0,0
64407.9,56.896,-1883.78,0,0
64668.2,56.7583,-1875.55,0,0
64928.5,56.8004,-1867.67,0,0
65188.9,56.8254,-1859.63,0,0
65449.2,56.9814,-1851.85,0,0
65709.5,57.1535,-1844.53,0,0
65969.8,56.9665,-1837.27,0,0
66230.2,56.6631,-1829.72,0,0
66490.5,56.3639,-1822.44,0,0
66750.8,56.1164,-1815.14,0,0
67011.1,55.7432,-1807.92,0,0
67271.5,55.2728,-1800.53,0,0
67531.8,54.9354,-1792.96,0,0
67792.1,54.5804,-1785.7,0,0
68052.4,54.2128,-1778.54,0,0
68312.8,54.0733,-1770.96,0,0
68573.1,54.0797,-1763.75,0,0
68833.4,53.7798,-1756.57,0,0
69093.7,53.6422,-1749.43,0,0
69354.1,53.6294,-1742.27,0,0
69614.4,53.5887,-1735.45,0,0
69874.7,53.4213,-1728.45,0,0
70135,53.4834,-1721.56,0,0
70395.4,53.3427,-1714.95,0,0
70655.7,53.2952,-1708.07,0,0
70916,53.3166,-1701.44,0,0
71176.3,53.2054,-1694.98,0,0
71436.7,53.0423,-1688.48,0,0
71697,52.8557,-1682.04,0,0
71957.3,52.5902,-1675.66,0,0
72217.6,52.3679,-1669.11,0,0
72478,52.1979,-1662.67,0,0
72738.3,51.9292,-1656.24,0,0
72998.6,51.7798,-1649.91,0,0
73258.9,51.616,-1643.51,0,0
73519.3,51.4831,-1637.16,0,0
73779.6,51.3505,-1630.91,0,0
74039.9,51.1999,-1624.66,0,0
74300.225,51.0833,-1618.45,0,0
74560.55,51.0437,-1612.31,0,0
74820.875,50.8713,-1606.21,0,0
75081.2,50.8062,-1600.15,0,0
75341.525,50.7532,-1594.09,0,0
75601.85,50.6762,-1588.16,0,0
75862.175,50.5653,-1582.23,0,0
76122.5,50.3904,-1576.3,0,0
76382.825,50.3064,-1570.41,0,0
76643.15,50.3026,-1564.59,0,0
76903.475,50.1868,-1558.83,0,0
77163.8,50.1007,-1553.03,0,0
77424.125,50.002,-1547.24,0,0
77684.45,50.0701,-1541.54,0,0
77944.775,49.9467,-1535.97,0,0
78205.1,49.8593,-1530.32,0,0
78465.425,49.749,-1524.7,0,0
78725.75,49.7782,-1519.15,0,0
78986.075,49.7172,-1513.65,0,0
79246.4,49.6337,-1508.11,0,0
79506.725,49.6061,-1502.63,0,0
79767.05,49.6271,-1497.25,0,0
80027.375,49.6682,-1491.91,0,0
80287.7,49.6062,-1486.59,0,0
80548.025,49.5202,-1481.29,0,0
80808.35,49.4827,-1476.04,0,0
81068.675,49.4061,-1470.79,0,0
81329.0,49.2786,-1465.48,0,0
81589.325,49.316,-1460.33,0,0
81849.65,49.2808,-1455.1,0,0
82109.975,49.247,-1449.99,0,0
82370.3,49.1375,-1444.85,0,0
82630.625,49.2945,-1439.73,0,0
82890.95,49.2535,-1434.71,0,0
83151.275,49.2151,-1429.71,0,0
83411.6,49.0671,-1424.67,0,0
83671.925,49.1339,-1419.69,0,0
83932.25,49.1492,-1414.62,0,0
84192.575,49.2644,-1409.74,0,0
84452.9,49.1855,-1404.79,0,0
84713.225,49.2431,-1399.92,0,0
84973.55,49.3647,-1395.13,0,0
85233.875,49.3823,-1390.39,0,0
85494.2,49.4673,-1385.67,0,0
85754.525,49.3745,-1380.92,0,0
86014.85,49.4317,-1376.18,0,0
86275.175,49.4189,-1371.5,0,0
86535.5,49.5372,-1366.89,0,0
86795.825,49.4429,-1362.28,0,0
87056.15,49.4684,-1357.6,0,0
87316.475,49.5168,-1352.98,0,0
87576.8,49.5782,-1348.41,0,0
87837.125,49.6084,-1343.8,0,0
88097.45,49.7926,-1339.38,0,0
88357.775,49.7962,-1334.96,0,0
88618.1,49.775,-1330.54,0,0
88878.425,49.6507,-1326.05,0,0
89138.75,49.763,-1321.65,0,0
89399.075,49.7364,-1317.18,0,0
89659.4,49.7441,-1312.81,0,0
89919.725,49.7233,-1308.26,0,0
90180,49.7814,-1303.89,0,0
90440.4,49.873,-1299.5,0,0
90700.7,50.1329,-1295.21,0,0
90961,50.2122,-1290.98,0,0
91221.3,50.2454,-1286.6,0,0
91481.7,50.4227,-1282.43,0,0
91742,50.5558,-1278.3,0,0
92002.3,50.5631,-1274.01,0,0
92262.6,50.8491,-1269.89,0,0
92523,50.9814,-1265.9,0,0
92783.3,50.9838,-1261.94,0,0
93043.6,50.8485,-1257.83,0,0
93303.9,50.9049,-1253.6,0,0
93564.3,50.9898,-1249.29,0,0
93824.6,51.2366,-1244.98,0,0
94084.9,51.8228,-1240.82,0,0
94345.2,52.3854,-1237.19,0,0
94605.6,52.6634,-1233.66,0,0
94865.9,52.551,-1230.12,0,0
95126.2,52.5304,-1226.21,0,0
95386.5,52.7693,-1222.47,0,0
95646.9,52.7366,-1219.04,0,0
95907.2,52.2808,-1215.35,0,0
96167.5,52.1527,-1211.3,0,0
96427.8,52.196,-1207.56,0,0
96688.2,51.9201,-1203.7,0,0
96948.5,51.8626,-1199.73,0,0
97208.8,51.8629,-1195.78,0,0
97469.1,51.7545,-1191.82,0,0
97729.5,51.8374,-1187.7,0,0
97989.8,52.2174,-1183.74,0,0
98250.1,52.4283,-1180.12,0,0
98510.4,52.7243,-1176.34,0,0
98770.8,52.9686,-1172.93,0,0
99031.1,52.8293,-1169.41,0,0
99291.4,52.744,-1165.63,0,0
99551.7,52.784,-1162.05,0,0
99812.1,52.5462,-1158.13,0,0
100072,52.8464,-1154.14,0,0
100333,53.2193,-1150.42,0,0
100593,53.3067,-1146.91,0,0
100853,53.2683,-1143.14,0,0
101114,53.5539,-1139.13,0,0
101374,54.0925,-1135.48,0,0
101634,54.4299,-1132.1,0,0
101895,54.5965,-1128.57,0,0
102155,54.8105,-1124.93,0,0
102415,55.0769,-1121.28,0,0
102676,55.477,-1117.68,0,0
102936,55.9093,-1114.1,0,0
103196,56.5207,-1110.47,0,0
103457,57.265,-1107.12,0,0
103717,58.0218,-1104.04,0,0
103977,58.5807,-1101.43,0,0
104238,58.3259,-1098.53,0,0
104498,58.5033,-1095.04,0,0
104758,59.1011,-1091.95,0,0
105019,59.3303,-1089.31,0,0
105279,59.2164,-1086.37,0,0
105539,59.1141,-1083.28,0,0
105800,59.1111,-1080.21,0,0
106060,58.9672,-1077.06,0,0
106320.175,58.7324,-1073.79,0,0
106580.5,58.6732,-1070.27,0,0
106840.825,58.9045,-1066.72,0,0
107101.15,59.3002,-1063.36,0,0
107361.475,59.6137,-1060.32,0,0
107621.8,59.7703,-1057.05,0,0
107882.125,60.0242,-1053.96,0,0
108142.45,60.2848,-1050.86,0,0
108402.775,60.4594,-1047.86,0,0
108663.1,60.5623,-1044.82,0,0
108923.425,60.5169,-1041.76,0,0
109183.75,60.4503,-1038.48,0,0
109444.075,60.6437,-1035.21,0,0
109704.4,60.7062,-1032.02,0,0
109964.725,60.7203,-1028.75,0,0
110225.05,60.7024,-1025.23,0,0
110485.375,60.9364,-1021.54,0,0
110745.7,61.416,-1017.88,0,0
111006.025,62.0135,-1014.33,0,0
111266.35,62.8582,-1011.1,0,0
111526.675,63.509,-1007.93,0,0
111787.0,64.057,-1004.71,0,0
112047.325,64.7325,-1001.41,0,0
112307.65,65.4877,-998.129,0,0
112567.975,66.3984,-994.999,0,0
112828.3,67.2039,-991.766,0,0
113088.625,68.5177,-988.704,0,0
113348.95,69.7689,-985.911,0,0
113609.275,70.841,-983.46,0,0
113869.6,71.6123,-980.911,0,0
114129.925,72.5068,-978.247,0,0
114390.25,73.4241,-975.595,0,0
114650.575,74.373,-973.024,0,0
114910.9,75.2844,-970.485,0,0
115171.225,76.2639,-967.856,0,0
115431.55,77.392,-965.325,0,0
115691.875,78.484,-962.731,0,0
115952.2,80.0107,-960.193,0,0
116212.525,81.7022,-957.997,0,0
116472.85,83.3875,-956.319,0,0
116733.175,84.9123,-954.886,0,0
116993.5,86.2667,-953.723,0,0
117253.825,87.3381,-952.759,0,0
117514.15,88.1302,-951.829,0,0
117774.475,88.6568,-950.965,0,0
118034.8,88.8144,-949.972,0,0
118295.125,88.9885,-948.581,0,0
118555.45,89.7015,-946.971,0,0
118815.775,90.6807,-946.134,0,0
119076.1,91.1678,-945.602,0,0
119336.425,91.4565,-945.116,0,0
119596.75,91.8252,-945,0,0
119857.075,91.5882,-945.463,0,0
120117.4,90.0832,-945.842,0,0
120377.725,88.3537,-945.371,0,0
120638.05,86.5084,-944.621,0,0
120898.375,84.5093,-943.609,0,0
121158.7,82.1362,-942.402,0,0
121419.025,79.6114,-940.295,0,0
121679.35,77.6888,-937.538,0,0
121939.675,76.3189,-934.968,0,0
122200.0,74.9213,-932.617,0,0
122460,73.401,-930.072,0,0
122721,72.089,-927.327,0,0
122981,70.933,-924.586,0,0
123241,69.7804,-921.906,0,0
123502,68.5941,-919.159,0,0
123762,67.4974,-916.167,0,0
124022,66.6734,-913.147,0,0
124283,65.9921,-910.157,0,0
124543,65.3861,-907.239,0,0
124803,65.0117,-904.42,0,0
125064,64.5918,-901.926,0,0
125324,63.8267,-899.592,0,0
125584,62.8286,-896.931,0,0
125845,61.9401,-893.999,0,0
126105,61.337,-891.001,0,0
126365,60.7863,-888.122,0,0
126626,60.1809,-885.332,0,0
126886,59.5866,-882.461,0,0
127146,58.9252,-879.58,0,0
127406,58.2888,-876.502,0,0
127667,57.9189,-873.384,0,0
127927,57.6259,-870.51,0,0
128187,57.2425,-867.565,0,0
128448,56.9443,-864.643,0,0
128708,56.5877,-861.671,0,0
128968,56.3126,-858.745,0,0
129229,56.0157,-855.714,0,0
129489,55.8966,-852.809,0,0
129749,55.6325,-849.993,0,0
130010,55.3387,-847.064,0,0
130270,55.1782,-844.041,0,0
130530,55.084,-841.049,0,0
130791,55.0723,-838.164,0,0
131051,54.9583,-835.453,0,0
131311,54.7069,-832.655,0,0
131572,54.3895,-829.684,0,0
131832,54.1786,-826.579,0,0
132092,54.1175,-823.45,0,0
132353,54.1214,-820.393,0,0
132613,54.1754,-817.327,0,0
132873,54.2552,-814.21,0,0
133134,54.3429,-811.165,0,0
133394,54.529,-808.051,0,0
133654,54.8464,-804.917,0,0
133915,55.2552,-801.838,0,0
134175,55.7142,-798.748,0,0
134435,56.2223,-795.782,0,0
134696,56.8502,-792.832,0,0
134956,57.5106,-789.973,0,0
135216,58.2411,-787.057,0,0
135477,59.1692,-784.347,0,0
135737,60.0852,-781.821,0,0
135997,61.1789,-779.36,0,0
136258,62.2681,-777.368,0,0
136518,63.0539,-775.691,0,0
136778,63.5475,-774.035,0,0
137039,63.8099,-772.536,0,0
137299,63.5917,-770.824,0,0
137559,63.3479,-768.749,0,0
137819,63.2456,-766.609,0,0
138080,63.025,-764.484,0,0
138340.125,62.7422,-762.312,0,0
138600.45,62.3689,-759.96,0,0
138860.775,62.0005,-757.471,0,0
139121.1,61.6728,-754.725,0,0
139381.425,61.6446,-751.88,0,0
139641.75,61.7344,-749.249,0,0
139902.075,61.732,-746.638,0,0
140162.4,61.791,-743.905,0,0
140422.725,61.9795,-741.224,0,0
140683.05,62.1428,-738.695,0,0
140943.375,62.1936,-736.122,0,0
141203.7,62.2794,-733.462,0,0
141464.025,62.3859,-730.849,0,0
141724.35,62.4115,-728.188,0,0
141984.675,62.4803,-725.354,0,0
142245.0,62.7785,-722.536,0,0
142505.325,63.026,-719.847,0,0
142765.65,63.251,-717.094,0,0
143025.975,63.5365,-714.255,0,0
143286.3,64.0097,-711.416,0,0
143546.625,64.4812,-708.712,0,0
143806.95,65.0009,-706.105,0,0
144067.275,65.4833,-703.555,0,0
144327.6,65.951,-701.045,0,0
144587.925,66.3873,-698.542,0,0
144848.25,66.7606,-696.116,0,0
145108.575,67.1205,-693.6,0,0
145368.9,67.5016,-691.209,0,0
145629.225,67.7503,-688.897,0,0
145889.55,67.7588,-686.443,0,0
146149.875,67.8035,-683.703,0,0
146410.2,68.0618,-680.895,0,0
146670.525,68.4156,-678.195,0,0
146930.85,68.696,-675.486,0,0
147191.175,69.0977,-672.7,0,0
147451.5,69.5483,-670.107,0,0
147711.825,69.7859,-667.521,0,0
147972.15,70.0486,-664.715,0,0
148232.475,70.4763,-661.977,0,0
148492.8,70.8718,-659.331,0,0
148753.125,71.2161,-656.71,0,0
149013.45,71.441,-654.093,0,0
149273.775,71.5385,-651.403,0,0
149534.1,71.5812,-648.534,0,0
149794.425,71.6935,-645.515,0,0
150054.75,71.8406,-642.394,0,0
150315.075,72.1021,-639.209,0,0
150575.4,72.4217,-635.99,0,0
150835.725,72.7452,-632.741,0,0
151096.05,73.1223,-629.377,0,0
151356.375,73.5583,-625.94,0,0
151616.7,74.1208,-622.412,0,0
151877.025,74.795,-618.854,0,0
152137.35,75.5597,-615.269,0,0
152397.675,76.423,-611.687,0,0
152658.0,77.3969,-608.043,0,0
152918.325,78.4965,-604.393,0,0
153178.65,79.7467,-600.78,0,0
153438.975,81.0832,-597.265,0,0
153699.3,82.4035,-593.854,0,0
153959.625,83.6642,-590.313,0,0
154219.95,85.0513,-586.674,0,0
154480,86.585,-583.029,0,0
154741,88.4039,-579.438,0,0
155001,90.2154,-575.863,0,0
155261,92.1877,-572.321,0,0
155522,94.2034,-568.945,0,0
155782,96.3083,-565.619,0,0
156042,98.5575,-562.271,0,0
156303,100.941,-559.067,0,0
156563,103.344,-556.125,0,0
156823,105.793,-553.163,0,0
157084,108.245,-550.314,0,0
157344,110.727,-547.545,0,0
157604,113.326,-544.88,0,0
157864,116.038,-542.572,0,0
158125,118.45,-540.492,0,0
158385,120.699,-538.278,0,0
158645,122.976,-536.241,0,0
158906,125.14,-534.27,0,0
159166,127.228,-532.55,0,0
159426,128.816,-530.904,0,0
159687,130.058,-529.238,0,0
159947,130.731,-527.198,0,0
160207,131.257,-524.55,0,0
160468,131.872,-521.405,0,0
160728,132.647,-517.82,0,0
160988,133.734,-513.879,0,0
161249,134.943,-509.752,0,0
161509,136.378,-505.203,0,0
161769,138.428,-500.224,0,0
162030,141.078,-495.299,0,0
162290,144.165,-490.48,0,0
162550,147.61,-485.714,0,0
162811,151.238,-481.174,0,0
163071,155.103,-476.65,0,0
163331,159.185,-471.961,0,0
163592,163.808,-467.283,0,0
163852,168.997,-462.802,0,0
164112,174.571,-458.784,0,0
164373,180.18,-455.146,0,0
164633,185.917,-451.608,0,0
164893,192.049,-448.325,0,0
165154,198.162,-445.529,0,0
165414,204.065,-442.867,0,0
165674,210.015,-439.98,0,0
165935,215.976,-436.784,0,0
166195,222.523,-433.244,0,0
166455,230.032,-429.427,0,0
166716,238.902,-425.984,0,0
166976,248.766,-423.814,0,0
167236,258.623,-422.765,0,0
167497,268.673,-422.452,0,0
167757,278.87,-423.06,0,0
168017,288.929,-424.381,0,0
168277,298.933,-426.252,0,0
168538,309.175,-428.861,0,0
168798,319.441,-432.786,0,0
169058,329.193,-437.525,0,0
169319,338.518,-443.151,0,0
169579,346.993,-449.857,0,0
169839,354.238,-456.589,0,0
170100,361.286,-462.787,0,0
170360.075,368.703,-469.163,0,0
170620.4,376.903,-476.546,0,0
170880.725,384.697,-486.273,0,0
171141.05,390.318,-497.257,0,0
171401.375,394.046,-508.163,0,0
171661.7,396.582,-518.572,0,0
171922.025,398.345,-528.307,0,0
172182.35,400.321,-537.688,0,0
172442.675,402.196,-547.879,0,0
172703.0,403.083,-559.09,0,0
172963.325,402.244,-570.697,0,0
173223.65,399.681,-582.15,0,0
173483.975,395.335,-592.797,0,0
173744.3,389.774,-602.148,0,0
174004.625,383.471,-609.918,0,0
174264.95,377.212,-616.737,0,0
174525.275,370.202,-622.825,0,0
174785.6,362.968,-627.499,0,0
175045.925,355.658,-631.177,0,0
175306.25,348.213,-633.583,0,0
175566.575,340.981,-634.71,0,0
175826.9,333.782,-634.355,0,0
176087.225,327.884,-631.59,0,0
176347.55,324.881,-627.976,0,0
176607.875,324.224,-625.161,0,0
176868.2,324.806,-623.675,0,0
177128.525,325.848,-623.42,0,0
177388.85,327.33,-623.791,0,0
177649.175,329.53,-625.222,0,0
177909.5,331.821,-628.024,0,0
178169.825,334.273,-631.905,0,0
178430.15,336.687,-637.724,0,0
178690.475,337.772,-645.746,0,0
178950.8,336.2,-655.184,0,0
179211.125,331.665,-664.173,0,0
179471.45,325.214,-671.596,0,0
179731.775,317.963,-677.517,0,0
179992.1,309.984,-682.242,0,0
180252.425,301.827,-685.053,0,0
180512.75,294.65,-686.666,0,0
180773.075,288.325,-688.207,0,0
181033.4,282.368,-690.027,0,0
181293.725,276.443,-692.785,0,0
181554.05,268.546,-696.05,0,0
181814.375,259.203,-697.452,0,0
182074.7,249.969,-697.225,0,0
182335.025,241.148,-695.95,0,0
182595.35,232.623,-694.008,0,0
182855.675,224.295,-691.149,0,0
183116.0,216.502,-687.31,0,0
183376.325,209.811,-682.813,0,0
183636.65,204.005,-678.426,0,0
183896.975,198.462,-674.255,0,0
184157.3,192.852,-669.832,0,0
184417.625,187.496,-664.755,0,0
184677.95,182.937,-659.068,0,0
184938.275,179.582,-653.224,0,0
185198.6,177.23,-648.256,0,0
185458.925,174.724,-644.243,0,0
185719.25,171.657,-640.518,0,0
185979.575,168.109,-636.515,0,0
186239.9,164.497,-631.8,0,0
186500,161.394,-626.474,0,0
186761,159,-621.132,0,0
187021,156.831,-616.012,0,0
187281,154.748,-610.664,0,0
187542,153.206,-604.996,0,0
187802,152.468,-599.454,0,0
188062,152.204,-594.342,0,0
188322,152.422,-589.68,0,0
188583,152.891,-585.939,0,0
188843,152.86,-583.128,0,0
189103,151.774,-580.515,0,0
189364,150.096,-577.411,0,0
189624,148.252,-573.747,0,0
189884,146.475,-569.664,0,0
190145,144.827,-565.273,0,0
190405,143.407,-560.519,0,0
190665,142.396,-555.682,0,0
190926,141.417,-550.917,0,0
191186,140.469,-545.753,0,0
191446,140.059,-540.272,0,0
191707,140.198,-534.942,0,0
191967,140.612,-529.916,0,0
192227,141.08,-525.122,0,0
192488,141.487,-520.409,0,0
192748,141.851,-515.541,0,0
193008,142.513,-510.592,0,0
193269,143.373,-505.725,0,0
193529,144.352,-500.946,0,0
193789,145.376,-496.231,0,0
194050,146.417,-491.466,0,0
194310,147.624,-486.528,0,0
194570,149.099,-481.528,0,0
194831,150.901,-476.57,0,0
195091,152.969,-471.762,0,0
195351,155.258,-467.22,0,0
195612,157.597,-462.935,0,0
195872,159.855,-458.739,0,0
196132,162.136,-454.417,0,0
196393,164.71,-450.191,0,0
196653,167.346,-446.25,0,0
196913,170.053,-442.434,0,0
197174,172.784,-438.819,0,0
197434,175.316,-435.191,0,0
197694,177.831,-431.526,0,0
197955,180.431,-427.858,0,0
198215,183.069,-424.228,0,0
198475,185.681,-420.531,0,0
198735,188.44,-416.739,0,0
198996,191.285,-412.938,0,0
199256,194.218,-409.34,0,0
199516,197.047,-405.585,0,0
199777,199.89,-401.669,0,0
200037,202.926,-397.542,0,0
200297,206.287,-393.255,0,0
200558,209.992,-388.841,0,0
200818,214.144,-384.712,0,0
201078,218.492,-380.808,0,0
201339,222.828,-377.109,0,0
201599,227.04,-373.222,0,0
201859,231.586,-369.041,0,0
202120,236.703,-364.837,0,0
202380.025,242.419,-360.852,0,0
202640.35,248.487,-357.453,0,0
202900.675,254.491,-354.351,0,0
203161.0,260.593,-351.253,0,0
203421.325,267.043,-348.334,0,0
203681.65,273.917,-345.681,0,0
203941.975,281.004,-343.395,0,0
204202.3,288.362,-341.63,0,0
204462.625,295.668,-340.361,0,0
204722.95,302.967,-339.486,0,0
204983.275,310.247,-338.885,0,0
205243.6,317.408,-338.527,0,0
205503.925,324.711,-338.312,0,0
205764.25,332.319,-338.523,0,0
206024.575,340.063,-339.4,0,0
206284.9,347.511,-341.057,0,0
206545.225,354.605,-342.997,0,0
206805.55,361.24,-345.435,0,0
207065.875,367.383,-348.305,0,0
207326.2,372.585,-351.247,0,0
207586.525,377.099,-353.837,0,0
207846.85,381.198,-355.874,0,0
208107.175,385,-357.226,0,0
208367.5,388.791,-357.59,0,0
208627.825,393.236,-356.762,0,0
208888.15,399.212,-355.043,0,0
209148.475,407.203,-353.588,0,0
209408.8,416.815,-353.337,0,0
209669.125,427.409,-354.666,0,0
209929.45,438.281,-357.951,0,0
210189.775,448.685,-362.945,0,0
210450.1,458.434,-369.063,0,0
210710.425,467.592,-376.108,0,0
210970.75,476.041,-384.245,0,0
211231.075,483.599,-393.15,0,0
211491.4,490.224,-402.88,0,0
211751.725,495.43,-413.363,0,0
212012.05,498.813,-423.93,0,0
212272.375,500.901,-433.583,0,0
212532.7,502.482,-442.337,0,0
212793.025,504.149,-450.44,0,0
213053.35,506.124,-458.724,0,0
213313.675,507.592,-467.537,0,0
213574.0,508.271,-476.299,0,0
213834.325,508.557,-484.878,0,0
214094.65,508.498,-493.561,0,0
214354.975,507.628,-502.363,0,0
214615.3,505.925,-511.075,0,0
214875.625,503.192,-519.267,0,0
215135.95,499.778,-526.309,0,0
215396.275,496.286,-532.304,0,0
215656.6,493.266,-537.379,0,0
215916.925,490.977,-542.329,0,0
216177.25,488.928,-547.483,0,0
216437.575,486.949,-552.909,0,0
216697.9,484.746,-558.585,0,0
216958.225,482.291,-564.445,0,0
217218.55,479.364,-570.586,0,0
217478.875,475.698,-576.688,0,0
217739.2,471.279,-582.572,0,0
217999.525,466.212,-587.863,0,0
218259.85,460.732,-592.45,0,0
218520,455.098,-596.326,0,0
218780,449.596,-599.851,0,0
219041,443.79,-603.246,0,0
219301,437.389,-606.191,0,0
219561,430.367,-608.198,0,0
219822,423.26,-608.823,0,0
220082,416.675,-608.409,0,0
220342,410.769,-607.253,0,0
220603,405.447,-605.483,0,0
220863,400.745,-603.271,0,0
221123,396.741,-600.682,0,0
221384,393.513,-598.101,0,0
221644,390.654,-595.502,0,0
221904,388.167,-592.758,0,0
222165,386.253,-589.801,0,0
222425,384.955,-586.729,0,0
222685,384.319,-583.867,0,0
222946,384.301,-581.497,0,0
223206,384.4,-579.585,0,0
223466,384.489,-577.779,0,0
223727,384.658,-576.068,0,0
223987,385.001,-574.269,0,0
224247,385.663,-572.594,0,0
224508,386.601,-571.04,0,0
224768,387.563,-569.611,0,0
225028,388.706,-568.123,0,0
225289,390.334,-566.248,0,0
225549,392.579,-564.622,0,0
225809,395.379,-563.454,0,0
226070,398.576,-562.74,0,0
226330,402.083,-562.505,0,0
226590,405.953,-562.942,0,0
226851,409.811,-564.244,0,0
227111,413.256,-566.259,0,0
227371,416.314,-568.443,0,0
227632,419.188,-570.672,0,0
227892,422.138,-572.965,0,0
228152,425.366,-575.479,0,0
228413,428.866,-578.512,0,0
228673,432.425,-582.382,0,0
228933,435.723,-586.981,0,0
229193,438.563,-592.256,0,0
229454,440.826,-598.229,0,0
229714,442.139,-604.429,0,0
229974,442.736,-610.684,0,0
230235,442.923,-616.566,0,0
230495,443.265,-622.472,0,0
230755,443.412,-629.112,0,0
231016,442.566,-636.344,0,0
231276,440.526,-643.323,0,0
231536,438.033,-649.656,0,0
231797,435.371,-655.696,0,0
232057,432.417,-661.747,0,0
232317,429.06,-667.622,0,0
232578,425.637,-673.25,0,0
232838,422.035,-678.951,0,0
233098,418.1,-684.805,0,0
233359,413.713,-690.834,0,0
233619,408.756,-697.131,0,0
233879,402.599,-703.62,0,0
234140,394.942,-709.718,0,0
234400,386.352,-714.537,0,0
234660.3,377.093,-718.242,0,0
234920.625,367.464,-720.619,0,0
235180.95,357.645,-721.729,0,0
235441.275,347.95,-721.359,0,0
235701.6,338.982,-719.589,0,0
235961.925,331.286,-717.019,0,0
236222.25,324.56,-714.084,0,0
236482.575,318.557,-711.107,0,0
236742.9,313.276,-707.909,0,0
237003.225,308.938,-704.908,0,0
237263.55,305.031,-702.744,0,0
237523.875,300.718,-701.061,0,0
237784.2,296.088,-699.181,0,0
238044.525,291.29,-697.105,0,0
238304.85,286.216,-694.622,0,0
238565.175,281.028,-691.445,0,0
238825.5,276.329,-687.334,0,0
239085.825,272.501,-682.58,0,0
239346.15,269.77,-677.661,0,0
239606.475,267.928,-673.007,0,0
239866.8,266.645,-668.834,0,0
240127.125,265.866,-664.944,0,0
240387.45,265.702,-661.432,0,0
240647.775,266.05,-658.911,0,0
240908.1,266.179,-657.573,0,0
241168.425,265.344,-656.762,0,0
241428.75,263.921,-655.685,0,0
241689.075,262.353,-654.318,0,0
241949.4,260.79,-653.031,0,0
242209.725,259.035,-651.968,0,0
242470.05,256.737,-650.88,0,0
242730.375,253.791,-649.276,0,0
242990.7,250.779,-646.713,0,0
243251.025,248.274,-643.435,0,0
243511.35,246.461,-639.936,0,0
243771.675,245.016,-636.529,0,0
244032.0,243.641,-633.014,0,0
244292.325,242.699,-629.091,0,0
244552.65,242.411,-625.04,0,0
244812.975,242.795,-621.146,0,0
245073.3,243.79,-617.462,0,0
245333.625,245.314,-614.448,0,0
245593.95,247.175,-611.997,0,0
245854.275,249.011,-610.338,0,0
246114.6,250.545,-609.267,0,0
246374.925,251.606,-608.488,0,0
246635.25,252.329,-607.669,0,0
246895.575,253.052,-606.795,0,0
247155.9,253.723,-606.108,0,0
247416.225,254.116,-605.606,0,0
247676.55,254.218,-604.896,0,0
247936.875,254.303,-604.003,0,0
248197.2,254.568,-602.9,0,0
248457.525,254.909,-601.891,0,0
248717.85,255.375,-600.939,0,0
248978.175,255.9,-600.044,0,0
249238.5,256.456,-599.216,0,0
249498.825,257.068,-598.461,0,0
249759.15,257.758,-597.737,0,0
250019.475,258.599,-597.142,0,0
250279.8,259.429,-596.809,0,0
250540,260.081,-596.645,0,0
250800,260.608,-596.59,0,0
251061,261.102,-596.423,0,0
251321,261.572,-596.249,0,0
251581,262.166,-596.105,0,0
251842,262.793,-596.087,0,0
252102,263.489,-596.235,0,0
252362,264.193,-596.557,0,0
252623,264.779,-597.118,0,0
252883,265.213,-597.829,0,0
253143,265.44,-598.621,0,0
253404,265.56,-599.422,0,0
253664,265.65,-600.235,0,0
253924,265.726,-601.234,0,0
254185,265.573,-602.47,0,0
254445,265.099,-603.833,0,0
254705,264.211,-605.17,0,0
254966,263.018,-606.327,0,0
255226,261.701,-607.337,0,0
255486,260.254,-608.2,0,0
255747,258.518,-608.987,0,0
256007,256.573,-609.47,0,0
256267,254.529,-609.674,0,0
256528,252.525,-609.505,0,0
256788,250.604,-609.104,0,0
257048,248.854,-608.529,0,0
257309,247.179,-607.952,0,0
257569,245.402,-607.306,0,0
257829,243.579,-606.405,0,0
258090,241.88,-605.251,0,0
258350,240.294,-603.908,0,0
258610,238.897,-602.433,0,0
258871,237.65,-600.836,0,0
259131,236.633,-599.146,0,0
259391,235.843,-597.504,0,0
259651,235.143,-595.88,0,0
259912,234.367,-594.255,0,0
260172,233.741,-592.53,0,0
260432,233.198,-590.725,0,0
260693,232.765,-588.824,0,0
260953,232.47,-586.782,0,0
261213,232.387,-584.645,0,0
261474,232.532,-582.422,0,0
261734,232.894,-580.057,0,0
261994,233.658,-577.626,0,0
262255,234.94,-575.218,0,0
262515,236.683,-573.038,0,0
262775,238.838,-571.221,0,0
263036,241.301,-569.852,0,0
263296,243.937,-568.926,0,0
263556,246.678,-568.556,0,0
263817,249.405,-568.726,0,0
264077,252.013,-569.447,0,0
264337,254.227,-570.726,0,0
264598,255.938,-572.306,0,0
264858,257.059,-573.931,0,0
265118,257.891,-575.385,0,0
265379,258.447,-576.798,0,0
265639,258.811,-577.99,0,0
265899,259.078,-578.989,0,0
266160,259.466,-579.798,0,0
266420,259.888,-580.588,0,0
266680.25,260.387,-581.355,0,0
266940.575,261.053,-582.177,0,0
267200.9,261.778,-583.182,0,0
267461.225,262.553,-584.376,0,0
267721.55,263.19,-585.792,0,0
267981.875,263.607,-587.447,0,0
268242.2,263.78,-589.166,0,0
268502.525,263.689,-590.787,0,0
268762.85,263.455,-592.242,0,0
269023.175,263.114,-593.546,0,0
269283.5,262.806,-594.7,0,0
269543.825,262.555,-595.642,0,0
269804.15,262.532,-596.434,0,0
270064.475,262.949,-597.363,0,0
270324.8,263.469,-598.501,0,0
270585.125,264.15,-599.875,0,0
270845.45,264.845,-601.593,0,0
271105.775,265.532,-603.586,0,0
271366.1,266.12,-605.781,0,0
271626.425,266.752,-608.074,0,0
271886.75,267.615,-610.722,0,0
272147.075,268.601,-614.05,0,0
272407.4,269.418,-618.126,0,0
272667.725,269.704,-623.089,0,0
272928.05,269.032,-628.795,0,0
273188.375,267.265,-634.671,0,0
273448.7,264.49,-640.524,0,0
273709.025,260.869,-646.203,0,0
273969.35,256.286,-651.709,0,0
274229.675,250.722,-656.86,0,0
274490.0,244.194,-661.236,0,0
274750.325,236.916,-664.583,0,0
275010.65,229.351,-666.887,0,0
275270.975,221.743,-668.21,0,0
275531.3,214.14,-668.769,0,0
275791.625,206.597,-668.563,0,0
276051.95,199.125,-667.621,0,0
276312.275,191.87,-665.888,0,0
276572.6,184.943,-663.457,0,0
276832.925,178.475,-660.388,0,0
277093.25,172.481,-656.925,0,0
277353.575,166.945,-653.024,0,0
277613.9,161.857,-648.718,0,0
277874.225,157.315,-644.112,0,0
278134.55,153.374,-639.26,0,0
278394.875,150.017,-634.308,0,0
278655.2,147.236,-629.286,0,0
278915.525,145.012,-624.333,0,0
279175.85,143.278,-619.588,0,0
279436.175,141.905,-615.043,0,0
279696.5,140.837,-610.717,0,0
279956.825,139.992,-606.574,0,0
280217.15,139.442,-602.596,0,0
280477.475,139.115,-598.862,0,0
280737.8,138.891,-595.32,0,0
280998.125,138.832,-592.015,0,0
281258.45,138.925,-589.015,0,0
281518.775,138.924,-586.29,0,0
281779.1,138.853,-583.744,0,0
282039.425,138.646,-581.284,0,0
282299.75,138.39,-578.854,0,0
282560,138.055,-576.461,0,0
282820,137.647,-574.06,0,0
283081,137.159,-571.567,0,0
283341,136.687,-568.939,0,0
283601,136.252,-566.201,0,0
283862,135.925,-563.347,0,0
284122,135.746,-560.372,0,0
284382,135.768,-557.27,0,0
284643,136.097,-554.153,0,0
284903,136.657,-551.162,0,0
285163,137.441,-548.242,0,0
285424,138.403,-545.51,0,0
285684,139.5,-543.009,0,0
285944,140.726,-540.712,0,0
286205,141.946,-538.593,0,0
286465,143.163,-536.676,0,0
286725,144.359,-534.884,0,0
286986,145.513,-533.269,0,0
287246,146.606,-531.776,0,0
287506,147.567,-530.428,0,0
287767,148.406,-529.113,0,0
288027,149.081,-527.78,0,0
288287,149.645,-526.41,0,0
288548,150.137,-524.882,0,0
288808,150.644,-523.203,0,0
289068,151.262,-521.374,0,0
289329,152.053,-519.485,0,0
289589,152.992,-517.621,0,0
289849,154.046,-515.815,0,0
290109,155.217,-514.08,0,0
290370,156.428,-512.474,0,0
290630,157.667,-510.839,0,0
290890,158.998,-509.227,0,0
291151,160.426,-507.693,0,0
291411,161.98,-506.28,0,0
291671,163.52,-505.02,0,0
291932,165.057,-503.839,0,0
292192,166.574,-502.696,0,0
292452,168.084,-501.608,0,0
292713,169.631,-500.548,0,0
292973,171.229,-499.595,0,0
293233,172.782,-498.679,0,0
293494,174.3,-497.805,0,0
293754,175.809,-496.914,0,0
294014,177.38,-496.021,0,0
294275,178.975,-495.136,0,0
294535,180.647,-494.282,0,0
294795,182.361,-493.474,0,0
295056,184.103,-492.692,0,0
295316,185.835,-491.887,0,0
295576,187.715,-491.046,0,0
295837,189.73,-490.229,0,0
296097,191.895,-489.518,0,0
296357,194.145,-488.914,0,0
296618,196.522,-488.423,0,0
296878,198.969,-488.023,0,0
297138,201.552,-487.788,0,0
297399,204.179,-487.713,0,0
297659,206.859,-487.822,0,0
297919,209.576,-488.075,0,0
298180,212.333,-488.491,0,0
298440,215.118,-489.092,0,0
298700.2,217.844,-489.835,0,0
298960.525,220.622,-490.852,0,0
299220.85,223.387,-491.939,0,0
299481.175,226.044,-493.148,0,0
299741.5,228.745,-494.495,0,0
300001.825,231.532,-495.969,0,0
300262.15,234.318,-497.65,0,0
300522.475,237.141,-499.435,0,0
300782.8,240.086,-501.334,0,0
301043.125,243.101,-503.678,0,0
301303.45,246.078,-506.387,0,0
301563.775,249.099,-509.398,0,0
301824.1,252.078,-512.864,0,0
302084.425,255.047,-516.857,0,0
302344.75,257.714,-521.286,0,0
302605.075,260.113,-526.442,0,0
302865.4,261.951,-532.278,0,0
303125.725,262.826,-538.54,0,0
303386.05,262.745,-544.931,0,0
303646.375,261.74,-551.143,0,0
303906.7,259.972,-557.013,0,0
304167.025,257.662,-562.4,0,0
304427.35,254.964,-567.298,0,0
304687.675,252.064,-571.768,0,0
304948.0,248.95,-575.965,0,0
305208.325,245.672,-579.872,0,0
305468.65,242.115,-583.487,0,0
305728.975,238.389,-586.745,0,0
305989.3,234.535,-589.685,0,0
306249.625,230.6,-592.312,0,0
306509.95,226.567,-594.678,0,0
306770.275,222.43,-596.764,0,0
307030.6,218.184,-598.496,0,0
307290.925,213.932,-599.894,0,0
307551.25,209.729,-601.007,0,0
307811.575,205.538,-601.805,0,0
308071.9,201.436,-602.354,0,0
308332.225,197.403,-602.656,0,0
308592.55,193.441,-602.711,0,0
308852.875,189.549,-602.548,0,0
309113.2,185.84,-602.145,0,0
309373.525,182.278,-601.566,0,0
309633.85,178.857,-600.818,0,0
309894.175,175.611,-599.933,0,0
310154.5,172.526,-598.958,0,0
310414.825,169.587,-597.892,0,0
310675.15,166.817,-596.756,0,0
310935.475,164.144,-595.623,0,0
311195.8,161.604,-594.415,0,0
311456.125,159.147,-593.141,0,0
311716.45,156.825,-591.809,0,0
311976.775,154.64,-590.464,0,0
312237.1,152.6,-589.111,0,0
312497.425,150.66,-587.83,0,0
312757.75,148.756,-586.597,0,0
313018.075,146.879,-585.36,0,0
313278.4,145.003,-584.133,0,0
313538.725,143.171,-582.864,0,0
313799.05,141.367,-581.541,0,0
314059.375,139.58,-580.198,0,0
314319.7,137.823,-578.788,0,0
314580,136.113,-577.3,0,0
314840,134.481,-575.732,0,0
315101,133.007,-574.113,0,0
315361,131.598,-572.43,0,0
315621,130.335,-570.75,0,0
315882,129.212,-569.097,0,0
316142,128.137,-567.462,0,0
316402,127.211,-565.873,0,0
316663,126.335,-564.336,0,0
316923,125.517,-562.834,0,0
317183,124.758,-561.369,0,0
317444,124.038,-559.961,0,0
317704,123.386,-558.607,0,0
317964,122.738,-557.267,0,0
318225,122.103,-555.987,0,0
318485,121.479,-554.713,0,0
318745,120.89,-553.429,0,0
319006,120.321,-552.165,0,0
319266,119.818,-550.893,0,0
319526,119.385,-549.609,0,0
319787,119.043,-548.37,0,0
320047,118.772,-547.207,0,0
320307,118.523,-546.106,0,0
320567,118.357,-545.117,0,0
320828,118.175,-544.223,0,0
321088,117.974,-543.432,0,0
321348,117.719,-542.675,0,0
321609,117.431,-541.954,0,0
321869,117.115,-541.268,0,0
322129,116.787,-540.624,0,0
322390,116.42,-540.01,0,0
322650,116.016,-539.429,0,0
322910,115.551,-538.851,0,0
323171,115.059,-538.273,0,0
323431,114.538,-537.664,0,0
323691,114.006,-537.029,0,0
323952,113.476,-536.388,0,0
324212,112.954,-535.742,0,0
324472,112.432,-535.097,0,0
324733,111.898,-534.444,0,0
324993,111.37,-533.79,0,0
325253,110.849,-533.147,0,0
325514,110.313,-532.487,0,0
325774,109.795,-531.813,0,0
326034,109.314,-531.169,0,0
326295,108.843,-530.53,0,0
326555,108.385,-529.943,0,0
326815,107.892,-529.377,0,0
327076,107.378,-528.824,0,0
327336,106.845,-528.278,0,0
327596,106.295,-527.72,0,0
327857,105.761,-527.176,0,0
328117,105.201,-526.654,0,0
328377,104.623,-526.162,0,0
328638,103.979,-525.673,0,0
328898,103.285,-525.139,0,0
329158,102.606,-524.582,0,0
329419,101.901,-523.963,0,0
329679,101.246,-523.345,0,0
329939,100.585,-522.73,0,0
330200,99.9425,-522.119,0,0
330460,99.2799,-521.519,0,0
330720.15,98.6483,-520.859,0,0
330980.475,97.969,-520.271,0,0
331240.8,97.3612,-519.678,0,0
331501.125,96.6889,-519.162,0,0
331761.45,95.9462,-518.624,0,0
332021.775,95.2538,-518.107,0,0
332282.1,94.4091,-517.639,0,0
332542.425,93.5774,-517.087,0,0
332802.75,92.5928,-516.535,0,0
333063.075,91.6925,-515.894,0,0
333323.4,90.693,-515.195,0,0
333583.725,89.6828,-514.421,0,0
333844.05,88.724,-513.586,0,0
334104.375,87.6607,-512.691,0,0
334364.7,86.7629,-511.806,0,0
334625.025,85.8351,-510.805,0,0
334885.35,84.8636,-509.841,0,0
335145.675,83.9653,-508.818,0,0
335406.0,83.1244,-507.719,0,0
335666.325,82.2414,-506.658,0,0
335926.65,81.4337,-505.431,0,0
336186.975,80.6314,-504.33,0,0
336447.3,79.8257,-503.166,0,0
336707.625,79.0585,-501.995,0,0
336967.95,78.3213,-500.733,0,0
337228.275,77.5534,-499.467,0,0
337488.6,76.9136,-498.093,0,0
337748.925,76.297,-496.799,0,0
338009.25,75.7062,-495.467,0,0
338269.575,75.2159,-494.094,0,0
338529.9,74.7216,-492.739,0,0
338790.225,74.3797,-491.423,0,0
339050.55,73.914,-490.105,0,0
339310.875,73.5836,-488.821,0,0
339571.2,73.2121,-487.515,0,0
339831.525,72.8999,-486.228,0,0
340091.85,72.5739,-484.953,0,0
340352.175,72.2657,-483.662,0,0
340612.5,72.0062,-482.409,0,0
340872.825,71.7701,-481.083,0,0
341133.15,71.4593,-479.788,0,0
341393.475,71.274,-478.504,0,0
341653.8,71.0829,-477.094,0,0
341914.125,70.9897,-475.863,0,0
342174.45,70.8919,-474.559,0,0
342434.775,70.7914,-473.289,0,0
342695.1,70.7638,-471.995,0,0
342955.425,70.7165,-470.747,0,0
343215.75,70.7422,-469.528,0,0
343476.075,70.8117,-468.27,0,0
343736.4,70.9209,-467.102,0,0
343996.725,71.0626,-465.862,0,0
344257.05,71.1335,-464.724,0,0
344517.375,71.3532,-463.598,0,0
344777.7,71.5244,-462.498,0,0
345038.025,71.774,-461.467,0,0
345298.35,71.9812,-460.54,0,0
345558.675,72.1796,-459.549,0,0
345819.0,72.3827,-458.689,0,0
346079.325,72.5423,-457.801,0,0
346339.65,72.7684,-456.959,0,0
346599.975,72.927,-456.134,0,0
346860,73.0847,-455.369,0,0
347121,73.2151,-454.638,0,0
347381,73.3032,-453.906,0,0
347641,73.3348,-453.194,0,0
347902,73.3499,-452.454,0,0
348162,73.2899,-451.753,0,0
348422,73.1908,-450.989,0,0
348683,73.1069,-450.271,0,0
348943,73.0131,-449.437,0,0
349203,72.875,-448.611,0,0
349464,72.7415,-447.732,0,0
349724,72.5866,-446.832,0,0
349984,72.539,-445.866,0,0
350245,72.4972,-444.933,0,0
350505,72.423,-443.939,0,0
350765,72.3605,-442.972,0,0
351025,72.3063,-441.967,0,0
351286,72.3122,-440.904,0,0
351546,72.3329,-439.848,0,0
351806,72.4663,-438.713,0,0
352067,72.5621,-437.654,0,0
352327,72.7408,-436.576,0,0
352587,73.0277,-435.531,0,0
352848,73.2934,-434.548,0,0
353108,73.5857,-433.537,0,0
353368,73.9154,-432.536,0,0
353629,74.3434,-431.609,0,0
353889,74.764,-430.68,0,0
354149,75.2293,-429.847,0,0
354410,75.6368,-429.092,0,0
354670,76.0664,-428.389,0,0
354930,76.5249,-427.695,0,0
355191,76.9835,-427.129,0,0
355451,77.3701,-426.536,0,0
355711,77.7169,-426.085,0,0
355972,78.0497,-425.668,0,0
356232,78.284,-425.229,0,0
356492,78.4521,-424.788,0,0
356753,78.5586,-424.353,0,0
357013,78.6148,-423.939,0,0
357273,78.6039,-423.478,0,0
357534,78.5572,-422.984,0,0
357794,78.5657,-422.447,0,0
358054,78.4793,-421.883,0,0
358315,78.3077,-421.329,0,0
358575,78.2084,-420.65,0,0
358835,78.0379,-419.917,0,0
359096,77.8323,-419.184,0,0
359356,77.7048,-418.36,0,0
359616,77.5814,-417.428,0,0
359877,77.4608,-416.406,0,0
360137,77.5072,-415.384,0,0
360397,77.5664,-414.34,0,0
360658,77.7216,-413.257,0,0
360918,77.9481,-412.23,0,0
361178,78.271,-411.212,0,0
361438,78.5757,-410.177,0,0
361699,78.9445,-409.205,0,0
361959,79.3365,-408.291,0,0
362219,79.7495,-407.391,0,0
362480,80.1844,-406.524,0,0
362740.1,80.7002,-405.715,0,0
363000.425,81.1453,-404.888,0,0
363260.75,81.6711,-404.131,0,0
363521.075,82.1376,-403.405,0,0
363781.4,82.6459,-402.714,0,0
364041.725,83.1558,-402.022,0,0
364302.05,83.6695,-401.323,0,0
364562.375,84.1707,-400.667,0,0
364822.7,84.7306,-400.014,0,0
365083.025,85.2605,-399.422,0,0
365343.35,85.8725,-398.846,0,0
365603.675,86.4281,-398.314,0,0
365864.0,86.9901,-397.846,0,0
366124.325,87.5591,-397.386,0,0
366384.65,88.072,-397.002,0,0
366644.975,88.5911,-396.685,0,0
366905.3,89.0369,-396.309,0,0
367165.625,89.4626,-395.964,0,0
367425.95,89.8791,-395.644,0,0
367686.275,90.2515,-395.271,0,0
367946.6,90.601,-394.891,0,0
368206.925,91.0936,-394.534,0,0
368467.25,91.4764,-394.17,0,0
368727.575,91.9379,-393.86,0,0
368987.9,92.3884,-393.61,0,0
369248.225,92.8102,-393.407,0,0
369508.55,93.2492,-393.239,0,0
369768.875,93.5675,-393.172,0,0
370029.2,93.88,-393.09,0,0
370289.525,94.0947,-393.104,0,0
370549.85,94.2017,-393.095,0,0
370810.175,94.1981,-393.111,0,0
371070.5,94.0782,-393.006,0,0
371330.825,93.9252,-392.862,0,0
371591.15,93.696,-392.659,0,0
371851.475,93.4179,-392.336,0,0
372111.8,93.1543,-391.903,0,0
372372.125,92.9023,-391.361,0,0
372632.45,92.6958,-390.761,0,0
372892.775,92.5174,-390.064,0,0
373153.1,92.3952,-389.356,0,0
373413.425,92.36,-388.579,0,0
373673.75,92.3984,-387.777,0,0
373934.075,92.4649,-386.989,0,0
374194.4,92.6676,-386.236,0,0
374454.725,92.8195,-385.479,0,0
374715.05,93.0472,-384.782,0,0
374975.375,93.2799,-384.01,0,0
375235.7,93.5519,-383.343,0,0
375496.025,93.8228,-382.661,0,0
375756.35,94.0693,-381.956,0,0
376016.675,94.3739,-381.307,0,0
376277.0,94.6629,-380.652,0,0
376537.325,94.9315,-379.977,0,0
376797.65,95.2579,-379.356,0,0
377057.975,95.5476,-378.705,0,0
377318.3,95.9217,-378.074,0,0
377578.625,96.2134,-377.453,0,0
377838.95,96.5331,-376.837,0,0
378099.275,96.8147,-376.142,0,0
378359.6,97.1458,-375.537,0,0
378619.925,97.5053,-374.825,0,0
378880,97.8567,-374.108,0,0
379141,98.3256,-373.442,0,0
379401,98.7354,-372.73,0,0
379661,99.2305,-372.099,0,0
379922,99.7027,-371.41,0,0
380182,100.241,-370.783,0,0
380442,100.774,-370.175,0,0
380703,101.329,-369.576,0,0
380963,101.875,-369.008,0,0
381223,102.458,-368.464,0,0
381483,103.032,-367.935,0,0
381744,103.6,-367.397,0,0
382004,104.221,-366.867,0,0
382264,104.806,-366.346,0,0
382525,105.463,-365.901,0,0
382785,106.084,-365.414,0,0
383045,106.726,-364.982,0,0
383306,107.423,-364.592,0,0
383566,107.984,-364.243,0,0
383826,108.642,-363.91,0,0
384087,109.241,-363.601,0,0
384347,109.8,-363.293,0,0
384607,110.42,-363.026,0,0
384868,110.963,-362.647,0,0
385128,111.541,-362.379,0,0
385388,112.084,-362.049,0,0
385649,112.624,-361.834,0,0
385909,113.168,-361.555,0,0
386169,113.606,-361.299,0,0
386430,114.067,-360.994,0,0
386690,114.519,-360.632,0,0
386950,114.95,-360.26,0,0
387211,115.485,-359.829,0,0
387471,116.01,-359.469,0,0
387731,116.559,-359.024,0,0
387992,117.155,-358.642,0,0
388252,117.739,-358.253,0,0
388512,118.32,-357.818,0,0
388773,118.938,-357.402,0,0
389033,119.594,-356.965,0,0
389293,120.273,-356.54,0,0
389554,121.047,-356.11,0,0
389814,121.845,-355.71,0,0
390074,122.662,-355.387,0,0
390335,123.517,-355.096,0,0
390595,124.357,-354.842,0,0
390855,125.203,-354.608,0,0
391116,125.998,-354.375,0,0
391376,126.885,-354.201,0,0
391636,127.732,-354.049,0,0
391896,128.575,-353.953,0,0
392157,129.339,-353.868,0,0
392417,130.137,-353.728,0,0
392677,130.885,-353.562,0,0
392938,131.674,-353.377,0,0
393198,132.469,-353.166,0,0
393458,133.385,-352.931,0,0
393719,134.316,-352.738,0,0
393979,135.311,-352.551,0,0
394239,136.362,-352.45,0,0
394500,137.444,-352.354,0,0
394760.05,138.51,-352.244,0,0
395020.375,139.689,-352.203,0,0
395280.7,140.889,-352.208,0,0
395541.025,142.175,-352.32,0,0
395801.35,143.488,-352.433,0,0
396061.675,144.794,-352.735,0,0
396322.0,146.118,-353.066,0,0
396582.325,147.405,-353.441,0,0
396842.65,148.715,-353.866,0,0
397102.975,150.084,-354.333,0,0
397363.3,151.511,-354.874,0,0
397623.625,152.933,-355.571,0,0
397883.95,154.414,-356.404,0,0
398144.275,155.917,-357.404,0,0
398404.6,157.312,-358.521,0,0
398664.925,158.644,-359.828,0,0
398925.25,160.01,-361.301,0,0
399185.575,161.119,-362.863,0,0
399445.9,162.21,-364.621,0,0
399706.225,163.055,-366.568,0,0
399966.55,163.728,-368.568,0,0
400006.6,163.786,-368.867,0,0