File: Accelerated corrosion test data/2025-10-02_06-00-03/sample_6.csv
Frequency (Hz),Impedance (ohms),Phase (Radians),Temperature (C),Humidity (%)
10000.0,4279.98,-6477.12,0,0
10260.325,4143.2,-6404.5,0,0
10520.65,4011.75,-6331.75,0,0
10780.975,3885.77,-6258.91,0,0
11041.3,3765.88,-6185.55,0,0
11301.625,3651.47,-6114.75,0,0
11561.95,3542.16,-6043.61,0,0
11822.275,3437.25,-5973.19,0,0
12082.6,3335.95,-5903.74,0,0
12342.925,3240.08,-5833.6,0,0
12603.25,3147.78,-5762.81,0,0
12863.575,3061.24,-5697.02,0,0
13123.9,2980.08,-5633.45,0,0
13384.225,2896.61,-5570.36,0,0
13644.55,2816.82,-5506.33,0,0
13904.875,2741.3,-5443.1,0,0
14165.2,2668.16,-5380.07,0,0
14425.525,2599.12,-5319.02,0,0
14685.8,2531.15,-5257.09,0,0
14946.175,2468.88,-5198.57,0,0
15206.5,2406.18,-5140.15,0,0
15466.825,2346.97,-5082.42,0,0
15727.15,2289.54,-5026.01,0,0
15987.5,2234.24,-4970.33,0,0
16247.8,2180.82,-4915.82,0,0
16508.125,2129.4,-4862.17,0,0
16768.45,2079.92,-4808.97,0,0
17028.775,2032.78,-4756.84,0,0
17289.1,1986.23,-4706.17,0,0
17549.425,1941.37,-4656.74,0,0
17809.75,1897.38,-4607.08,0,0
18070.075,1856.65,-4557.66,0,0
18330.4,1815.88,-4510.29,0,0
18590.725,1776.85,-4463.12,0,0
18851.05,1739.29,-4416.04,0,0
19111.375,1704.11,-4372.15,0,0
19371.7,1669.25,-4328.47,0,0
19632.025,1634.38,-4286.39,0,0
19892.35,1600.4,-4242.77,0,0
20152.675,1568.79,-4200.2,0,0
20413.0,1537.71,-4159.26,0,0
20673.3,1506.95,-4118.29,0,0
20933.65,1477.07,-4078.65,0,0
21193.975,1448.53,-4038.75,0,0
21454.3,1420.39,-3999.11,0,0
21714.625,1394.04,-3961.99,0,0
21974.9,1368.35,-3923.84,0,0
22235.275,1342.05,-3886.76,0,0
22495.6,1317.34,-3848.81,0,0
22755.925,1294.41,-3810.97,0,0
23016.25,1274.59,-3774.25,0,0
23276.6,1256.16,-3743.22,0,0
23536.9,1233.84,-3713.03,0,0
23797.225,1211.07,-3681.39,0,0
24057.55,1188.63,-3649.63,0,0
24317.875,1168.2,-3617.41,0,0
24578.2,1147.93,-3585.24,0,0
24838.525,1128.4,-3553.79,0,0
25098.85,1109.24,-3522.38,0,0
25359.175,1091.21,-3492.18,0,0
25619.5,1073.17,-3462.68,0,0
25879.8,1055.4,-3433.13,0,0
26140.1,1038.12,-3404.14,0,0
26400.5,1021.75,-3375.53,0,0
26660.8,1005.56,-3346.72,0,0
26921.1,990.6,-3318.76,0,0
27181.4,975.326,-3290.82,0,0
27441.8,961.46,-3263.99,0,0
27702.1,947.512,-3237.48,0,0
27962.4,933.662,-3212.32,0,0
28222.7,919.274,-3187.85,0,0
28483.1,905.014,-3161.82,0,0
28743.4,891.506,-3137.32,0,0
29003.7,877.96,-3111.72,0,0
29264,865.129,-3086.13,0,0
29524.4,854.256,-3061.67,0,0
29784.7,842.321,-3037.94,0,0
30045,831.198,-3014.11,0,0
30305.3,820.557,-2990.97,0,0
30565.7,810.156,-2969.06,0,0
30826,799.053,-2946.77,0,0
31086.3,788.33,-2924.88,0,0
31346.6,777.611,-2902.81,0,0
31607,767.676,-2880.53,0,0
31867.3,758.386,-2858.6,0,0
32127.6,749.547,-2836.98,0,0
32387.9,741.417,-2815.65,0,0
32648.3,734.149,-2795.34,0,0
32908.6,726.816,-2775.77,0,0
33168.9,719.733,-2757.17,0,0
33429.2,712.016,-2739.18,0,0
33689.6,704.275,-2721.96,0,0
33949.9,696.939,-2704.6,0,0
34210.2,688.08,-2688.64,0,0
34470.5,678.57,-2670.98,0,0
34730.9,670.342,-2653.36,0,0
34991.2,662.482,-2635.53,0,0
35251.5,655.14,-2618.49,0,0
35511.8,647.778,-2602.83,0,0
35772.2,639.366,-2587.13,0,0
36032.5,631.217,-2570.82,0,0
36292.8,622.676,-2554.68,0,0
36553.1,614.407,-2538.18,0,0
36813.5,606.546,-2521.45,0,0
37073.8,599.007,-2505,0,0
37334.1,591.746,-2488.81,0,0
37594.4,584.365,-2472.68,0,0
37854.8,577.486,-2456.32,0,0
38115.1,570.617,-2440.43,0,0
38375.4,563.858,-2424.38,0,0
38635.7,557.807,-2408.59,0,0
38896.1,551.625,-2393.01,0,0
39156.4,545.976,-2377.57,0,0
39416.7,540.306,-2362.41,0,0
39677,534.76,-2347.53,0,0
39937.4,529.346,-2333.1,0,0
40197.7,524.035,-2318.47,0,0
40458,519.072,-2304.06,0,0
40718.3,513.74,-2289.79,0,0
40978.7,508.935,-2276.1,0,0
41239,503.682,-2262.46,0,0
41499.3,498.67,-2248.56,0,0
41759.6,494.091,-2234.27,0,0
42020,490.015,-2221.02,0,0
42280.275,485.926,-2208.56,0,0
42540.6,480.633,-2196.49,0,0
42800.925,475.059,-2183.25,0,0
43061.25,470.154,-2169.45,0,0
43321.575,465.861,-2155.47,0,0
43581.9,462.799,-2142.21,0,0
43842.225,459.276,-2130.16,0,0
44102.55,455.039,-2117.6,0,0
44362.875,451.316,-2104.59,0,0
44623.2,447.923,-2091.5,0,0
44883.525,445.214,-2079.14,0,0
45143.85,442.14,-2066.9,0,0
45404.175,440.155,-2054.2,0,0
45664.5,438.188,-2043,0,0
45924.825,436.235,-2031.7,0,0
46185.15,434.237,-2021.39,0,0
46445.475,431.725,-2011.17,0,0
46705.8,429.153,-2000.68,0,0
46966.125,426.794,-1990.18,0,0
47226.45,424.891,-1980.12,0,0
47486.775,422.484,-1969.93,0,0
47747.1,420.669,-1960.08,0,0
48007.425,418.865,-1950.47,0,0
48267.75,417.613,-1940.85,0,0
48528.075,416.469,-1932.17,0,0
48788.4,415.546,-1924.1,0,0
49048.725,414.303,-1917.15,0,0
49309.05,412.091,-1910.81,0,0
49569.375,409.342,-1904.81,0,0
49829.7,405.469,-1898.7,0,0
50090.025,400.97,-1892.16,0,0
50350.35,395.716,-1885.5,0,0
50610.675,390.144,-1877.81,0,0
50871.0,384.745,-1869.06,0,0
51131.325,380.3,-1860.01,0,0
51391.65,375.861,-1851.49,0,0
51651.975,371.432,-1842.2,0,0
51912.3,367.681,-1833.26,0,0
52172.625,363.722,-1824.42,0,0
52432.95,359.937,-1815.12,0,0
52693.275,356.981,-1806.15,0,0
52953.6,354.02,-1797.52,0,0
53213.925,351.073,-1789.51,0,0
53474.25,347.5,-1781.68,0,0
53734.575,343.509,-1773.51,0,0
53994.9,339.712,-1764.84,0,0
54255.225,336.517,-1755.86,0,0
54515.55,333.675,-1747.32,0,0
54775.875,330.72,-1739.13,0,0
55036.2,327.632,-1731.19,0,0
55296.525,324.071,-1723.43,0,0
55556.85,320.197,-1714.93,0,0
55817.175,316.604,-1706.16,0,0
56077.5,313.019,-1697.12,0,0
56337.825,309.727,-1687.32,0,0
56598.15,307.689,-1677.16,0,0
56858.475,306.452,-1667.85,0,0
57118.8,305.413,-1658.98,0,0
57379.125,304.779,-1650.53,0,0
57639.45,304.245,-1642.82,0,0
57899.775,303.563,-1635.79,0,0
58160.1,302.503,-1629.11,0,0
58420.4,301.1,-1622.69,0,0
58680.7,299.378,-1616.13,0,0
58941.1,298.004,-1609.63,0,0
59201.4,296.071,-1603.47,0,0
59461.7,293.918,-1597.29,0,0
59722,291.462,-1591.08,0,0
59982.4,289.252,-1584.67,0,0
60242.7,286.574,-1578.54,0,0
60503,283.701,-1572.03,0,0
60763.3,281.15,-1565.28,0,0
61023.7,278.331,-1558.69,0,0
61284,275.441,-1551.82,0,0
61544.3,272.571,-1544.88,0,0
61804.6,269.353,-1537.59,0,0
62065,266.579,-1529.57,0,0
62325.3,264.374,-1521.1,0,0
62585.6,263.19,-1512.64,0,0
62845.9,262.677,-1504.67,0,0
63106.3,262.506,-1497.33,0,0
63366.6,262.748,-1490.6,0,0
63626.9,263.037,-1484.72,0,0
63887.2,263.028,-1479.8,0,0
64147.6,262.021,-1475.88,0,0
64407.9,259.525,-1471.73,0,0
64668.2,256.217,-1466.08,0,0
64928.5,253.825,-1459.7,0,0
65188.9,251.797,-1453.3,0,0
65449.2,250.238,-1447.16,0,0
65709.5,248.861,-1441.34,0,0
65969.8,247.09,-1435.98,0,0
66230.2,244.963,-1430.56,0,0
66490.5,242.78,-1425,0,0
66750.8,240.336,-1419.16,0,0
67011.1,237.788,-1413.28,0,0
67271.5,235.436,-1407.02,0,0
67531.8,233.064,-1400.71,0,0
67792.1,231.07,-1394.19,0,0
68052.4,229.152,-1387.68,0,0
68312.8,227.277,-1381.05,0,0
68573.1,225.459,-1374.62,0,0
68833.4,223.854,-1368.23,0,0
69093.7,222.361,-1361.82,0,0
69354.1,220.89,-1355.21,0,0
69614.4,219.419,-1348.66,0,0
69874.7,218.411,-1342.13,0,0
70135,217.364,-1335.52,0,0
70395.4,216.514,-1329.1,0,0
70655.7,215.643,-1322.71,0,0
70916,214.954,-1316.33,0,0
71176.3,214.436,-1310.03,0,0
71436.7,214.018,-1303.94,0,0
71697,213.653,-1297.84,0,0
71957.3,213.387,-1291.85,0,0
72217.6,213.063,-1286.09,0,0
72478,212.914,-1280.28,0,0
72738.3,212.874,-1274.59,0,0
72998.6,213.014,-1269.04,0,0
73258.9,213.118,-1263.78,0,0
73519.3,213.274,-1258.65,0,0
73779.6,213.352,-1253.79,0,0
74039.9,213.249,-1249,0,0
74300.225,212.94,-1244.26,0,0
74560.55,212.76,-1239.46,0,0
74820.875,212.463,-1234.69,0,0
75081.2,212.303,-1229.96,0,0
75341.525,212.142,-1225.31,0,0
75601.85,211.924,-1220.69,0,0
75862.175,211.738,-1216.22,0,0
76122.5,211.346,-1211.97,0,0
76382.825,210.835,-1207.44,0,0
76643.15,210.293,-1202.97,0,0
76903.475,209.803,-1198.29,0,0
77163.8,209.451,-1193.61,0,0
77424.125,209.204,-1188.94,0,0
77684.45,209.126,-1184.34,0,0
77944.775,209.118,-1179.84,0,0
78205.1,209.095,-1175.47,0,0
78465.425,209.135,-1171.19,0,0
78725.75,209.188,-1167,0,0
78986.075,209.294,-1162.89,0,0
79246.4,209.391,-1158.97,0,0
79506.725,209.518,-1155.09,0,0
79767.05,209.546,-1151.46,0,0
80027.375,209.491,-1147.82,0,0
80287.7,209.345,-1144.31,0,0
80548.025,209.156,-1140.83,0,0
80808.35,208.864,-1137.43,0,0
81068.675,208.451,-1134.02,0,0
81329.0,208.06,-1130.61,0,0
81589.325,207.542,-1127.18,0,0
81849.65,206.953,-1123.83,0,0
82109.975,206.373,-1120.42,0,0
82370.3,205.787,-1117.07,0,0
82630.625,205.042,-1113.67,0,0
82890.95,204.296,-1110.29,0,0
83151.275,203.41,-1106.91,0,0
83411.6,202.585,-1103.42,0,0
83671.925,201.602,-1099.9,0,0
83932.25,200.667,-1096.29,0,0
84192.575,199.711,-1092.65,0,0
84452.9,198.827,-1088.8,0,0
84713.225,197.987,-1085.02,0,0
84973.55,197.122,-1081.03,0,0
85233.875,196.524,-1077.09,0,0
85494.2,195.997,-1073.26,0,0
85754.525,195.455,-1069.46,0,0
86014.85,194.882,-1065.55,0,0
86275.175,194.572,-1061.79,0,0
86535.5,194.161,-1057.92,0,0
86795.825,193.937,-1054.32,0,0
87056.15,193.687,-1050.84,0,0
87316.475,193.326,-1047.26,0,0
87576.8,192.891,-1043.8,0,0
87837.125,192.296,-1040.27,0,0
88097.45,192.023,-1036.85,0,0
88357.775,191.538,-1033.33,0,0
88618.1,191.194,-1029.84,0,0
88878.425,190.973,-1026.1,0,0
89138.75,190.607,-1022.69,0,0
89399.075,190.23,-1019.16,0,0
89659.4,190.008,-1015.64,0,0
89919.725,189.992,-1012.17,0,0
90180,189.728,-1008.91,0,0
90440.4,189.815,-1005.52,0,0
90700.7,189.608,-1002.41,0,0
90961,189.385,-999.726,0,0
91221.3,189.159,-996.724,0,0
91481.7,188.336,-993.88,0,0
91742,187.562,-990.439,0,0
92002.3,186.99,-987.035,0,0
92262.6,186.278,-983.369,0,0
92523,186.268,-979.592,0,0
92783.3,186.459,-976.427,0,0
93043.6,186.225,-973.352,0,0
93303.9,185.973,-970.035,0,0
93564.3,185.605,-966.737,0,0
93824.6,185.532,-963.284,0,0
94084.9,185.385,-959.822,0,0
94345.2,185.336,-956.139,0,0
94605.6,185.849,-952.467,0,0
94865.9,186.697,-949.126,0,0
95126.2,187.62,-946.615,0,0
95386.5,187.904,-944.426,0,0
95646.9,187.75,-941.965,0,0
95907.2,187.708,-939.152,0,0
96167.5,188.003,-936.495,0,0
96427.8,188.298,-934.165,0,0
96688.2,188.229,-932.189,0,0
96948.5,187.711,-929.998,0,0
97208.8,186.963,-927.687,0,0
97469.1,185.941,-924.946,0,0
97729.5,185.273,-921.679,0,0
97989.8,184.714,-918.33,0,0
98250.1,184.437,-914.841,0,0
98510.4,184.29,-911.099,0,0
98770.8,184.844,-907.017,0,0
99031.1,186.232,-903.341,0,0
99291.4,188.175,-900.432,0,0
99551.7,190.032,-898.41,0,0
99812.1,191.564,-896.98,0,0
100072,192.852,-896.178,0,0
100333,193.232,-895.717,0,0
100593,193.021,-895.108,0,0
100853,192.53,-894.369,0,0
101114,191.42,-893.6,0,0
101374,189.799,-892.06,0,0
101634,188.458,-889.809,0,0
101895,187.577,-887.268,0,0
102155,187.244,-884.736,0,0
102415,187.169,-882.596,0,0
102676,187.148,-880.728,0,0
102936,187.232,-879.349,0,0
103196,186.946,-878.421,0,0
103457,186.159,-877.714,0,0
103717,184.905,-876.891,0,0
103977,183.209,-876.049,0,0
104238,181.267,-874.88,0,0
104498,178.966,-873.713,0,0
104758,176.157,-872.237,0,0
105019,173.046,-870.249,0,0
105279,169.723,-867.545,0,0
105539,166.394,-864.067,0,0
105800,163.547,-859.857,0,0
106060,161.344,-855.447,0,0
106320.175,159.423,-851.065,0,0
106580.5,157.596,-846.288,0,0
106840.825,156.401,-841.212,0,0
107101.15,155.938,-836.039,0,0
107361.475,155.911,-831.446,0,0
107621.8,155.865,-827.024,0,0
107882.125,156.097,-822.46,0,0
108142.45,156.886,-818.158,0,0
108402.775,157.79,-814.436,0,0
108663.1,158.627,-811.051,0,0
108923.425,159.26,-807.823,0,0
109183.75,159.749,-804.668,0,0
109444.075,160.224,-801.504,0,0
109704.4,160.785,-798.456,0,0
109964.725,161.205,-795.378,0,0
110225.05,161.813,-792.291,0,0
110485.375,162.19,-789.36,0,0
110745.7,162.55,-786.36,0,0
111006.025,163.015,-783.169,0,0
111266.35,163.865,-780.069,0,0
111526.675,164.732,-776.885,0,0
111787.0,165.682,-773.912,0,0
112047.325,166.601,-771.194,0,0
112307.65,167.656,-768.51,0,0
112567.975,168.676,-766.07,0,0
112828.3,169.56,-763.753,0,0
113088.625,170.296,-761.158,0,0
113348.95,171.442,-758.456,0,0
113609.275,172.897,-756.309,0,0
113869.6,174.075,-754.531,0,0
114129.925,174.945,-752.781,0,0
114390.25,175.461,-750.88,0,0
114650.575,176.238,-748.919,0,0
114910.9,176.951,-747.003,0,0
115171.225,177.677,-744.898,0,0
115431.55,178.715,-742.952,0,0
115691.875,179.778,-741.2,0,0
115952.2,180.744,-739.581,0,0
116212.525,181.915,-738.204,0,0
116472.85,182.874,-737.255,0,0
116733.175,183.401,-736.442,0,0
116993.5,183.49,-735.606,0,0
117253.825,183.531,-734.477,0,0
117514.15,183.448,-733.515,0,0
117774.475,182.944,-732.528,0,0
118034.8,181.948,-731.075,0,0
118295.125,180.994,-728.806,0,0
118555.45,180.717,-725.976,0,0
118815.775,180.995,-723.406,0,0
119076.1,181.344,-721.165,0,0
119336.425,181.496,-718.907,0,0
119596.75,181.728,-715.994,0,0
119857.075,182.884,-712.812,0,0
120117.4,184.919,-710.209,0,0
120377.725,187.181,-708.421,0,0
120638.05,189.558,-707.222,0,0
120898.375,191.848,-706.797,0,0
121158.7,194.044,-707.041,0,0
121419.025,195.454,-708.385,0,0
121679.35,195.399,-709.927,0,0
121939.675,194.392,-710.77,0,0
122200.0,193.069,-710.773,0,0
122460,191.902,-710.319,0,0
122721,190.764,-709.776,0,0
122981,189.504,-708.853,0,0
123241,188.452,-707.714,0,0
123502,187.493,-706.571,0,0
123762,186.593,-705.297,0,0
124022,185.817,-704.081,0,0
124283,184.949,-703.014,0,0
124543,183.899,-701.886,0,0
124803,182.65,-700.6,0,0
125064,181.46,-698.929,0,0
125324,180.464,-697.196,0,0
125584,179.597,-695.529,0,0
125845,178.561,-693.868,0,0
126105,177.594,-692.198,0,0
126365,176.527,-690.39,0,0
126626,175.492,-688.395,0,0
126886,174.559,-686.372,0,0
127146,173.508,-684.237,0,0
127406,172.502,-681.852,0,0
127667,171.696,-679.198,0,0
127927,171.24,-676.472,0,0
128187,171.039,-673.672,0,0
128448,171.245,-671.02,0,0
128708,171.638,-668.656,0,0
128968,172.159,-666.473,0,0
129229,172.763,-664.611,0,0
129489,173.263,-663.013,0,0
129749,173.684,-661.567,0,0
130010,173.904,-660.341,0,0
130270,173.96,-659.098,0,0
130530,174.013,-657.807,0,0
130791,173.964,-656.618,0,0
131051,173.887,-655.459,0,0
131311,173.643,-654.34,0,0
131572,173.36,-653.234,0,0
131832,172.936,-652.08,0,0
132092,172.57,-650.966,0,0
132353,172.054,-649.913,0,0
132613,171.479,-648.811,0,0
132873,170.789,-647.802,0,0
133134,170.007,-646.662,0,0
133394,169.108,-645.551,0,0
133654,167.929,-644.411,0,0
133915,166.765,-642.985,0,0
134175,165.562,-641.461,0,0
134435,164.354,-639.794,0,0
134696,163.145,-638.117,0,0
134956,161.996,-636.304,0,0
135216,160.784,-634.473,0,0
135477,159.533,-632.537,0,0
135737,158.282,-630.439,0,0
135997,157.108,-628.333,0,0
136258,156.012,-626.029,0,0
136518,154.941,-623.697,0,0
136778,153.865,-621.302,0,0
137039,152.934,-618.852,0,0
137299,151.98,-616.334,0,0
137559,151.107,-613.73,0,0
137819,150.317,-611.068,0,0
138080,149.638,-608.474,0,0
138340.125,148.984,-605.792,0,0
138600.45,148.379,-603.054,0,0
138860.775,147.829,-600.351,0,0
139121.1,147.41,-597.538,0,0
139381.425,147.121,-594.798,0,0
139641.75,146.835,-592.112,0,0
139902.075,146.528,-589.415,0,0
140162.4,146.293,-586.704,0,0
140422.725,146.105,-583.961,0,0
140683.05,145.981,-581.179,0,0
140943.375,145.984,-578.411,0,0
141203.7,146.094,-575.712,0,0
141464.025,146.202,-573.133,0,0
141724.35,146.32,-570.571,0,0
141984.675,146.427,-568.087,0,0
142245.0,146.431,-565.54,0,0
142505.325,146.494,-562.93,0,0
142765.65,146.606,-560.334,0,0
143025.975,146.773,-557.697,0,0
143286.3,146.934,-554.976,0,0
143546.625,147.316,-552.134,0,0
143806.95,147.935,-549.457,0,0
144067.275,148.569,-546.955,0,0
144327.6,149.233,-544.519,0,0
144587.925,150.011,-542.222,0,0
144848.25,150.773,-540.05,0,0
145108.575,151.512,-538.087,0,0
145368.9,152.166,-536.21,0,0
145629.225,152.746,-534.459,0,0
145889.55,153.161,-532.861,0,0
146149.875,153.318,-531.279,0,0
146410.2,153.251,-529.548,0,0
146670.525,153.179,-527.65,0,0
146930.85,153.091,-525.674,0,0
147191.175,153.019,-523.653,0,0
147451.5,152.885,-521.616,0,0
147711.825,152.687,-519.506,0,0
147972.15,152.461,-517.274,0,0
148232.475,152.192,-514.897,0,0
148492.8,152.051,-512.401,0,0
148753.125,151.978,-509.864,0,0
149013.45,151.953,-507.321,0,0
149273.775,151.906,-504.756,0,0
149534.1,151.833,-502.118,0,0
149794.425,151.757,-499.307,0,0
150054.75,151.826,-496.324,0,0
150315.075,152.058,-493.312,0,0
150575.4,152.367,-490.269,0,0
150835.725,152.755,-487.192,0,0
151096.05,153.135,-484.012,0,0
151356.375,153.677,-480.682,0,0
151616.7,154.45,-477.136,0,0
151877.025,155.619,-473.532,0,0
152137.35,157.226,-469.994,0,0
152397.675,159.217,-466.777,0,0
152658.0,161.547,-463.892,0,0
152918.325,163.914,-461.488,0,0
153178.65,166.281,-459.572,0,0
153438.975,168.343,-458.146,0,0
153699.3,170.052,-456.824,0,0
153959.625,171.276,-455.705,0,0
154219.95,172.198,-454.344,0,0
154480,172.925,-452.73,0,0
154741,173.683,-450.783,0,0
155001,174.551,-448.648,0,0
155261,175.453,-446.428,0,0
155522,176.739,-444.072,0,0
155782,178.184,-441.734,0,0
156042,179.881,-439.468,0,0
156303,181.849,-437.315,0,0
156563,184.033,-435.556,0,0
156823,186.33,-434.314,0,0
157084,188.344,-433.468,0,0
157344,190.136,-432.916,0,0
157604,191.409,-432.456,0,0
157864,192.438,-431.983,0,0
158125,193.212,-431.31,0,0
158385,193.828,-430.501,0,0
158645,194.426,-429.648,0,0
158906,194.916,-428.603,0,0
159166,195.434,-427.527,0,0
159426,195.889,-426.38,0,0
159687,196.287,-425.238,0,0
159947,196.777,-423.977,0,0
160207,197.26,-422.784,0,0
160468,197.63,-421.527,0,0
160728,197.934,-420.259,0,0
160988,198.24,-418.843,0,0
161249,198.694,-417.292,0,0
161509,199.18,-415.895,0,0
161769,199.507,-414.63,0,0
162030,199.742,-413.348,0,0
162290,199.829,-411.892,0,0
162550,200.012,-410.238,0,0
162811,200.215,-408.607,0,0
163071,200.488,-406.937,0,0
163331,200.784,-405.3,0,0
163592,201.045,-403.741,0,0
163852,201.155,-402.308,0,0
164112,200.96,-400.684,0,0
164373,200.676,-398.824,0,0
164633,200.497,-396.601,0,0
164893,200.49,-394.275,0,0
165154,200.529,-391.802,0,0
165414,200.739,-389.299,0,0
165674,201.131,-386.706,0,0
165935,201.64,-384.09,0,0
166195,202.355,-381.567,0,0
166455,203.174,-379.177,0,0
166716,203.924,-376.913,0,0
166976,204.606,-374.645,0,0
167236,205.255,-372.362,0,0
167497,205.985,-369.97,0,0
167757,206.732,-367.685,0,0
168017,207.44,-365.249,0,0
168277,208.216,-362.809,0,0
168538,209.101,-360.382,0,0
168798,209.999,-357.953,0,0
169058,210.952,-355.613,0,0
169319,211.849,-353.217,0,0
169579,212.878,-350.87,0,0
169839,213.926,-348.569,0,0
170100,214.819,-346.325,0,0
170360.075,215.696,-344.061,0,0
170620.4,216.491,-341.655,0,0
170880.725,217.435,-339.191,0,0
171141.05,218.33,-336.795,0,0
171401.375,219.318,-334.352,0,0
171661.7,220.208,-331.891,0,0
171922.025,221.142,-329.328,0,0
172182.35,222.112,-326.753,0,0
172442.675,223.079,-324.217,0,0
172703.0,224.093,-321.604,0,0
172963.325,225.107,-318.913,0,0
173223.65,226.123,-316.288,0,0
173483.975,227.124,-313.614,0,0
173744.3,228.13,-310.891,0,0
174004.625,229.074,-308.125,0,0
174264.95,230.02,-305.238,0,0
174525.275,230.982,-302.205,0,0
174785.6,231.969,-299.075,0,0
175045.925,233.083,-295.782,0,0
175306.25,234.262,-292.473,0,0
175566.575,235.542,-289.057,0,0
175826.9,236.912,-285.582,0,0
176087.225,238.311,-281.981,0,0
176347.55,239.897,-278.295,0,0
176607.875,241.556,-274.554,0,0
176868.2,243.38,-270.749,0,0
177128.525,245.306,-266.882,0,0
177388.85,247.449,-262.97,0,0
177649.175,249.7,-259.097,0,0
177909.5,252.046,-255.168,0,0
178169.825,254.496,-251.165,0,0
178430.15,257.129,-247.064,0,0
178690.475,259.974,-242.931,0,0
178950.8,263.009,-238.873,0,0
179211.125,266.298,-234.734,0,0
179471.45,269.838,-230.656,0,0
179731.775,273.608,-226.653,0,0
179992.1,277.646,-222.84,0,0
180252.425,281.822,-219.233,0,0
180512.75,286.091,-215.827,0,0
180773.075,290.442,-212.534,0,0
181033.4,294.871,-209.383,0,0
181293.725,299.403,-206.38,0,0
181554.05,304.017,-203.498,0,0
181814.375,308.661,-200.726,0,0
182074.7,313.484,-198.108,0,0
182335.025,318.386,-195.765,0,0
182595.35,323.208,-193.692,0,0
182855.675,327.901,-191.774,0,0
183116.0,332.518,-189.908,0,0
183376.325,336.972,-188.024,0,0
183636.65,341.519,-186.067,0,0
183896.975,346.198,-184.118,0,0
184157.3,351.089,-182.34,0,0
184417.625,356.036,-180.833,0,0
184677.95,360.986,-179.663,0,0
184938.275,365.816,-178.731,0,0
185198.6,370.377,-178.054,0,0
185458.925,374.738,-177.546,0,0
185719.25,378.782,-177.183,0,0
185979.575,382.404,-176.906,0,0
186239.9,385.736,-176.486,0,0
186500,388.83,-175.986,0,0
186761,391.474,-175.277,0,0
187021,393.798,-174.256,0,0
187281,395.801,-172.912,0,0
187542,397.491,-171.033,0,0
187802,399.067,-168.493,0,0
188062,400.738,-165.305,0,0
188322,402.675,-161.464,0,0
188583,404.958,-157.118,0,0
188843,407.576,-152.347,0,0
189103,410.541,-147.097,0,0
189364,413.845,-141.348,0,0
189624,417.763,-135.103,0,0
189884,422.39,-128.412,0,0
190145,427.783,-121.456,0,0
190405,434.097,-114.304,0,0
190665,441.268,-107.092,0,0
190926,449.327,-100.042,0,0
191186,458.311,-93.2515,0,0
191446,468.034,-86.8805,0,0
191707,478.421,-80.916,0,0
191967,489.344,-75.5477,0,0
192227,500.715,-70.6033,0,0
192488,512.444,-66.1488,0,0
192748,524.551,-62.0571,0,0
193008,536.873,-58.2636,0,0
193269,549.554,-54.6096,0,0
193529,563.054,-51.1011,0,0
193789,577.18,-48.142,0,0
194050,592.084,-45.6675,0,0
194310,607.575,-43.9409,0,0
194570,623.629,-43.0077,0,0
194831,640.178,-42.93,0,0
195091,657.082,-43.9098,0,0
195351,674.084,-45.8285,0,0
195612,691.223,-48.6848,0,0
195872,708.44,-52.3684,0,0
196132,725.769,-56.9538,0,0
196393,743.005,-62.5479,0,0
196653,760.061,-68.9223,0,0
196913,777.006,-76.1302,0,0
197174,793.79,-84.3134,0,0
197434,810.12,-93.3259,0,0
197694,825.951,-102.911,0,0
197955,841.521,-112.984,0,0
198215,856.981,-123.434,0,0
198475,872.514,-134.442,0,0
198735,888.138,-146.401,0,0
198996,903.619,-159.299,0,0
199256,918.61,-173.255,0,0
199516,933.275,-187.955,0,0
199777,947.369,-203.722,0,0
200037,960.967,-220.328,0,0
200297,973.767,-237.462,0,0
200558,985.939,-255.545,0,0
200818,997.79,-274.02,0,0
201078,1009.12,-293.157,0,0
201339,1020.26,-313.62,0,0
201599,1030.55,-335.156,0,0
201859,1039.97,-358.002,0,0
202120,1048.09,-382.061,0,0
202380.025,1054.6,-407.531,0,0
202640.35,1058.87,-433.604,0,0
202900.675,1061.14,-459.981,0,0
203161.0,1061.25,-486.555,0,0
203421.325,1059.14,-512,0,0
203681.65,1055.67,-537.089,0,0
203941.975,1050.71,-561.391,0,0
204202.3,1044.48,-584.735,0,0
204462.625,1037.43,-607.408,0,0
204722.95,1029.03,-629.339,0,0
204983.275,1020,-650.532,0,0
205243.6,1010.09,-670.695,0,0
205503.925,998.9,-690.401,0,0
205764.25,987.066,-708.741,0,0
206024.575,974.541,-726.242,0,0
206284.9,961.379,-742.659,0,0
206545.225,947.677,-757.985,0,0
206805.55,933.683,-772.094,0,0
207065.875,919.51,-785.266,0,0
207326.2,905.163,-797.349,0,0
207586.525,890.833,-808.408,0,0
207846.85,876.666,-818.382,0,0
208107.175,862.339,-827.673,0,0
208367.5,848.493,-836.029,0,0
208627.825,834.961,-843.68,0,0
208888.15,821.576,-850.619,0,0
209148.475,808.627,-857.085,0,0
209408.8,796.18,-863.038,0,0
209669.125,784.049,-868.782,0,0
209929.45,772.334,-873.958,0,0
210189.775,760.867,-879.042,0,0
210450.1,750.039,-884.016,0,0
210710.425,739.238,-889.226,0,0
210970.75,728.78,-894.302,0,0
211231.075,718.26,-899.98,0,0
211491.4,707.479,-905.908,0,0
211751.725,696.152,-911.887,0,0
212012.05,684.077,-917.795,0,0
212272.375,671.421,-923.153,0,0
212532.7,658.073,-928.012,0,0
212793.025,644.43,-931.85,0,0
213053.35,630.562,-934.976,0,0
213313.675,616.83,-937.231,0,0
213574.0,603.162,-938.824,0,0
213834.325,589.688,-939.608,0,0
214094.65,576.505,-939.831,0,0
214354.975,563.503,-939.425,0,0
214615.3,550.782,-938.685,0,0
214875.625,538.712,-937.217,0,0
215135.95,526.76,-935.295,0,0
215396.275,515.26,-932.979,0,0
215656.6,504.407,-930.328,0,0
215916.925,493.832,-927.525,0,0
216177.25,483.618,-924.459,0,0
216437.575,473.91,-921.196,0,0
216697.9,464.548,-917.785,0,0
216958.225,455.396,-914.252,0,0
217218.55,446.607,-910.63,0,0
217478.875,438.129,-906.835,0,0
217739.2,430,-903.07,0,0
217999.525,422.079,-899.064,0,0
218259.85,414.408,-895.126,0,0
218520,407.106,-891.011,0,0
218780,399.989,-886.965,0,0
219041,393.22,-882.731,0,0
219301,386.574,-878.552,0,0
219561,380.271,-874.261,0,0
219822,374.344,-869.928,0,0
220082,368.348,-865.764,0,0
220342,362.658,-861.404,0,0
220603,357.185,-857.129,0,0
220863,351.794,-853.054,0,0
221123,346.661,-848.669,0,0
221384,341.622,-844.408,0,0
221644,336.721,-840.081,0,0
221904,331.974,-835.727,0,0
222165,327.505,-831.28,0,0
222425,323.136,-826.805,0,0
222685,318.846,-822.443,0,0
222946,314.785,-817.851,0,0
223206,310.804,-813.41,0,0
223466,307.25,-808.657,0,0
223727,303.754,-804.102,0,0
223987,300.522,-799.526,0,0
224247,297.58,-794.812,0,0
224508,294.515,-790.287,0,0
224768,292.016,-785.524,0,0
225028,289.494,-780.855,0,0
225289,287.43,-776.454,0,0
225549,285.815,-771.767,0,0
225809,284.194,-767.395,0,0
226070,282.816,-763.085,0,0
226330,281.85,-758.911,0,0
226590,280.98,-754.882,0,0
226851,280.422,-751.16,0,0
227111,280.188,-747.712,0,0
227371,279.903,-744.558,0,0
227632,279.876,-741.763,0,0
227892,279.904,-739.195,0,0
228152,279.948,-737.274,0,0
228413,279.771,-735.607,0,0
228673,279.461,-734.13,0,0
228933,279.044,-733.012,0,0
229193,278.288,-732.144,0,0
229454,277.395,-731.28,0,0
229714,276.003,-730.74,0,0
229974,274.257,-730.031,0,0
230235,272.441,-729.263,0,0
230495,270.441,-728.384,0,0
230755,268.025,-727.377,0,0
231016,265.624,-726.24,0,0
231276,263.037,-724.856,0,0
231536,260.389,-723.274,0,0
231797,257.753,-721.554,0,0
232057,255.118,-719.64,0,0
232317,252.467,-717.559,0,0
232578,249.91,-715.303,0,0
232838,247.435,-712.916,0,0
233098,244.979,-710.286,0,0
233359,242.716,-707.694,0,0
233619,240.492,-704.908,0,0
233879,238.376,-702.047,0,0
234140,236.568,-699.048,0,0
234400,234.717,-696.093,0,0
234660.3,233.029,-693.153,0,0
234920.625,231.6,-690.093,0,0
235180.95,230.197,-687.135,0,0
235441.275,228.906,-684.114,0,0
235701.6,227.685,-681.062,0,0
235961.925,226.586,-678.108,0,0
236222.25,225.622,-675.141,0,0
236482.575,224.707,-672.181,0,0
236742.9,223.903,-669.243,0,0
237003.225,223.18,-666.343,0,0
237263.55,222.505,-663.485,0,0
237523.875,221.9,-660.614,0,0
237784.2,221.425,-657.794,0,0
238044.525,220.983,-655.026,0,0
238304.85,220.649,-652.205,0,0
238565.175,220.359,-649.475,0,0
238825.5,220.134,-646.817,0,0
239085.825,219.985,-644.133,0,0
239346.15,220,-641.542,0,0
239606.475,219.985,-639.002,0,0
239866.8,219.952,-636.363,0,0
240127.125,220.058,-634.065,0,0
240387.45,220.089,-631.6,0,0
240647.775,220.332,-629.154,0,0
240908.1,220.536,-626.706,0,0
241168.425,220.711,-624.408,0,0
241428.75,221.06,-622.055,0,0
241689.075,221.331,-619.77,0,0
241949.4,221.644,-617.476,0,0
242209.725,222.153,-615.249,0,0
242470.05,222.54,-613.002,0,0
242730.375,223.058,-610.771,0,0
242990.7,223.609,-608.603,0,0
243251.025,224.238,-606.434,0,0
243511.35,224.907,-604.264,0,0
243771.675,225.605,-602.164,0,0
244032.0,226.425,-600.086,0,0
244292.325,227.199,-598.028,0,0
244552.65,228.086,-596.077,0,0
244812.975,229.028,-594.079,0,0
245073.3,229.985,-592.087,0,0
245333.625,231.059,-590.096,0,0
245593.95,232.146,-588.093,0,0
245854.275,233.271,-586.232,0,0
246114.6,234.603,-584.245,0,0
246374.925,235.934,-582.334,0,0
246635.25,237.479,-580.413,0,0
246895.575,239.152,-578.559,0,0
247155.9,240.981,-576.758,0,0
247416.225,242.914,-575.056,0,0
247676.55,245.053,-573.495,0,0
247936.875,247.265,-572.068,0,0
248197.2,249.732,-570.802,0,0
248457.525,252.066,-569.828,0,0
248717.85,254.548,-568.957,0,0
248978.175,256.954,-568.336,0,0
249238.5,259.503,-567.864,0,0
249498.825,261.938,-567.526,0,0
249759.15,264.401,-567.491,0,0
250019.475,266.707,-567.423,0,0
250279.8,268.841,-567.527,0,0
250540,270.937,-567.692,0,0
250800,273.031,-567.719,0,0
251061,275.223,-567.712,0,0
251321,277.515,-567.718,0,0
251581,279.993,-567.717,0,0
251842,282.72,-567.815,0,0
252102,285.596,-568.18,0,0
252362,288.715,-568.789,0,0
252623,291.901,-569.666,0,0
252883,295.247,-570.958,0,0
253143,298.596,-572.496,0,0
253404,301.962,-574.511,0,0
253664,305.214,-576.84,0,0
253924,308.409,-579.731,0,0
254185,311.413,-582.958,0,0
254445,314.142,-586.626,0,0
254705,316.589,-590.631,0,0
254966,318.647,-594.848,0,0
255226,320.289,-599.468,0,0
255486,321.46,-604.21,0,0
255747,322.207,-609.094,0,0
256007,322.509,-614.048,0,0
256267,322.351,-618.982,0,0
256528,321.832,-623.881,0,0
256788,320.897,-628.687,0,0
257048,319.628,-633.398,0,0
257309,317.999,-637.955,0,0
257569,316.101,-642.388,0,0
257829,313.896,-646.646,0,0
258090,311.374,-650.711,0,0
258350,308.692,-654.558,0,0
258610,305.76,-658.296,0,0
258871,302.653,-661.715,0,0
259131,299.363,-664.943,0,0
259391,295.892,-667.986,0,0
259651,292.323,-670.869,0,0
259912,288.625,-673.447,0,0
260172,284.859,-675.826,0,0
260432,280.866,-677.889,0,0
260693,276.925,-679.754,0,0
260953,272.85,-681.386,0,0
261213,268.829,-682.784,0,0
261474,264.781,-683.934,0,0
261734,260.736,-684.893,0,0
261994,256.781,-685.614,0,0
262255,252.863,-686.155,0,0
262515,248.969,-686.524,0,0
262775,245.199,-686.705,0,0
263036,241.527,-686.796,0,0
263296,237.876,-686.697,0,0
263556,234.364,-686.598,0,0
263817,230.893,-686.41,0,0
264077,227.493,-686.051,0,0
264337,224.106,-685.601,0,0
264598,220.806,-685.219,0,0
264858,217.605,-684.515,0,0
265118,214.43,-683.881,0,0
265379,211.265,-683.242,0,0
265639,208.287,-682.345,0,0
265899,205.324,-681.491,0,0
266160,202.378,-680.558,0,0
266420,199.53,-679.595,0,0
266680.25,196.762,-678.548,0,0
266940.575,194.064,-677.464,0,0
267200.9,191.415,-676.312,0,0
267461.225,188.812,-675.189,0,0
267721.55,186.308,-673.967,0,0
267981.875,183.93,-672.754,0,0
268242.2,181.511,-671.484,0,0
268502.525,179.176,-670.246,0,0
268762.85,176.971,-668.899,0,0
269023.175,174.652,-667.615,0,0
269283.5,172.537,-666.273,0,0
269543.825,170.419,-665.018,0,0
269804.15,168.378,-663.682,0,0
270064.475,166.316,-662.354,0,0
270324.8,164.32,-660.911,0,0
270585.125,162.346,-659.623,0,0
270845.45,160.439,-658.182,0,0
271105.775,158.529,-656.866,0,0
271366.1,156.622,-655.409,0,0
271626.425,154.833,-654.014,0,0
271886.75,153.016,-652.597,0,0
272147.075,151.249,-651.17,0,0
272407.4,149.547,-649.73,0,0
272667.725,147.9,-648.283,0,0
272928.05,146.21,-646.851,0,0
273188.375,144.571,-645.363,0,0
273448.7,142.955,-643.917,0,0
273709.025,141.389,-642.409,0,0
273969.35,139.833,-640.894,0,0
274229.675,138.326,-639.401,0,0
274490.0,136.836,-637.905,0,0
274750.325,135.366,-636.336,0,0
275010.65,133.898,-634.779,0,0
275270.975,132.584,-633.197,0,0
275531.3,131.273,-631.68,0,0
275791.625,129.891,-630.072,0,0
276051.95,128.611,-628.551,0,0
276312.275,127.365,-626.97,0,0
276572.6,126.144,-625.405,0,0
276832.925,124.919,-623.824,0,0
277093.25,123.762,-622.266,0,0
277353.575,122.617,-620.693,0,0
277613.9,121.482,-619.099,0,0
277874.225,120.396,-617.512,0,0
278134.55,119.32,-615.922,0,0
278394.875,118.25,-614.302,0,0
278655.2,117.227,-612.702,0,0
278915.525,116.239,-611.04,0,0
279175.85,115.316,-609.394,0,0
279436.175,114.428,-607.711,0,0
279696.5,113.607,-606.073,0,0
279956.825,112.718,-604.365,0,0
280217.15,112.003,-602.685,0,0
280477.475,111.392,-601.01,0,0
280737.8,110.796,-599.405,0,0
280998.125,110.282,-597.801,0,0
281258.45,109.786,-596.301,0,0
281518.775,109.322,-594.825,0,0
281779.1,108.871,-593.43,0,0
282039.425,108.427,-592.096,0,0
282299.75,107.96,-590.788,0,0
282560,107.467,-589.494,0,0
282820,106.944,-588.203,0,0
283081,106.433,-586.93,0,0
283341,105.912,-585.654,0,0
283601,105.399,-584.364,0,0
283862,104.913,-583.091,0,0
284122,104.423,-581.8,0,0
284382,103.99,-580.498,0,0
284643,103.553,-579.245,0,0
284903,103.131,-577.941,0,0
285163,102.791,-576.703,0,0
285424,102.413,-575.452,0,0
285684,102.087,-574.246,0,0
285944,101.801,-573.063,0,0
286205,101.552,-571.899,0,0
286465,101.293,-570.833,0,0
286725,101.018,-569.802,0,0
286986,100.728,-568.804,0,0
287246,100.4,-567.857,0,0
287506,100.013,-566.926,0,0
287767,99.5819,-565.956,0,0
288027,99.1257,-564.972,0,0
288287,98.7165,-563.955,0,0
288548,98.295,-562.94,0,0
288808,97.8616,-561.888,0,0
289068,97.4781,-560.839,0,0
289329,97.1087,-559.805,0,0
289589,96.7561,-558.747,0,0
289849,96.404,-557.72,0,0
290109,96.1218,-556.708,0,0
290370,95.8001,-555.724,0,0
290630,95.4959,-554.732,0,0
290890,95.2269,-553.773,0,0
291151,94.933,-552.81,0,0
291411,94.647,-551.871,0,0
291671,94.3761,-550.98,0,0
291932,94.1139,-550.033,0,0
292192,93.8535,-549.184,0,0
292452,93.5951,-548.304,0,0
292713,93.3678,-547.478,0,0
292973,93.0959,-546.68,0,0
293233,92.8094,-545.925,0,0
293494,92.5697,-545.187,0,0
293754,92.2156,-544.445,0,0
294014,91.8815,-543.769,0,0
294275,91.4476,-543.11,0,0
294535,91.0651,-542.426,0,0
294795,90.5978,-541.744,0,0
295056,90.0873,-541.065,0,0
295316,89.549,-540.317,0,0
295576,88.9757,-539.593,0,0
295837,88.3959,-538.849,0,0
296097,87.7573,-538.008,0,0
296357,87.1384,-537.166,0,0
296618,86.472,-536.27,0,0
296878,85.8199,-535.319,0,0
297138,85.1731,-534.327,0,0
297399,84.5471,-533.244,0,0
297659,83.9554,-532.135,0,0
297919,83.3994,-530.956,0,0
298180,82.9221,-529.719,0,0
298440,82.5058,-528.464,0,0
298700.2,82.1771,-527.169,0,0
298960.525,81.9196,-525.975,0,0
299220.85,81.7488,-524.733,0,0
299481.175,81.6878,-523.597,0,0
299741.5,81.6248,-522.489,0,0
300001.825,81.5975,-521.51,0,0
300262.15,81.5211,-520.429,0,0
300522.475,81.4938,-519.539,0,0
300782.8,81.3893,-518.635,0,0
301043.125,81.3703,-517.754,0,0
301303.45,81.291,-516.909,0,0
301563.775,81.1622,-516.058,0,0
301824.1,81.0875,-515.226,0,0
302084.425,80.9739,-514.476,0,0
302344.75,80.9064,-513.801,0,0
302605.075,80.7474,-512.981,0,0
302865.4,80.5601,-512.23,0,0
303125.725,80.3911,-511.456,0,0
303386.05,80.2166,-510.695,0,0
303646.375,79.9561,-509.862,0,0
303906.7,79.7365,-509.086,0,0
304167.025,79.5667,-508.273,0,0
304427.35,79.3626,-507.455,0,0
304687.675,79.1743,-506.607,0,0
304948.0,79.0113,-505.675,0,0
305208.325,78.8705,-504.713,0,0
305468.65,78.8387,-503.882,0,0
305728.975,78.8169,-503.005,0,0
305989.3,78.8226,-502.131,0,0
306249.625,78.9645,-501.294,0,0
306509.95,79.1371,-500.478,0,0
306770.275,79.211,-499.862,0,0
307030.6,79.342,-499.266,0,0
307290.925,79.3651,-498.732,0,0
307551.25,79.4727,-498.244,0,0
307811.575,79.4666,-497.808,0,0
308071.9,79.3897,-497.386,0,0
308332.225,79.2907,-496.925,0,0
308592.55,79.1458,-496.487,0,0
308852.875,78.9392,-496.012,0,0
309113.2,78.7319,-495.521,0,0
309373.525,78.5445,-495.035,0,0
309633.85,78.3366,-494.519,0,0
309894.175,78.0951,-493.972,0,0
310154.5,77.904,-493.588,0,0
310414.825,77.6261,-492.989,0,0
310675.15,77.3824,-492.554,0,0
310935.475,77.1884,-492.031,0,0
311195.8,76.9152,-491.532,0,0
311456.125,76.6781,-490.989,0,0
311716.45,76.3854,-490.527,0,0
311976.775,76.0674,-489.983,0,0
312237.1,75.7626,-489.492,0,0
312497.425,75.4508,-488.962,0,0
312757.75,75.1218,-488.401,0,0
313018.075,74.7696,-487.9,0,0
313278.4,74.373,-487.256,0,0
313538.725,74.1225,-486.657,0,0
313799.05,73.7379,-486.138,0,0
314059.375,73.4849,-485.494,0,0
314319.7,73.1439,-484.896,0,0
314580,72.7899,-484.297,0,0
314840,72.455,-483.724,0,0
315101,72.2,-483.028,0,0
315361,71.8975,-482.419,0,0
315621,71.5715,-481.789,0,0
315882,71.3108,-481.139,0,0
316142,71.0175,-480.54,0,0
316402,70.6972,-479.993,0,0
316663,70.4123,-479.336,0,0
316923,70.1442,-478.743,0,0
317183,69.8556,-478.122,0,0
317444,69.5641,-477.505,0,0
317704,69.2443,-476.909,0,0
317964,68.9562,-476.331,0,0
318225,68.6419,-475.733,0,0
318485,68.3365,-475.078,0,0
318745,68.0045,-474.433,0,0
319006,67.7117,-473.848,0,0
319266,67.4058,-473.249,0,0
319526,67.0526,-472.642,0,0
319787,66.6793,-471.989,0,0
320047,66.3364,-471.383,0,0
320307,66.0244,-470.715,0,0
320567,65.6502,-470.056,0,0
320828,65.3604,-469.367,0,0
321088,64.9656,-468.664,0,0
321348,64.6682,-467.971,0,0
321609,64.3761,-467.184,0,0
321869,64.1045,-466.484,0,0
322129,63.8117,-465.74,0,0
322390,63.5575,-464.998,0,0
322650,63.393,-464.312,0,0
322910,63.1214,-463.56,0,0
323171,62.8543,-462.878,0,0
323431,62.6781,-462.189,0,0
323691,62.426,-461.56,0,0
323952,62.2156,-460.807,0,0
324212,62.0218,-460.167,0,0
324472,61.8214,-459.483,0,0
324733,61.5623,-458.834,0,0
324993,61.3427,-458.183,0,0
325253,61.0908,-457.472,0,0
325514,60.8944,-456.85,0,0
325774,60.63,-456.158,0,0
326034,60.4337,-455.521,0,0
326295,60.1876,-454.812,0,0
326555,59.9433,-454.172,0,0
326815,59.7567,-453.423,0,0
327076,59.5163,-452.712,0,0
327336,59.2784,-452.077,0,0
327596,59.1219,-451.342,0,0
327857,58.8909,-450.653,0,0
328117,58.6548,-449.968,0,0
328377,58.4801,-449.296,0,0
328638,58.337,-448.607,0,0
328898,58.1625,-447.917,0,0
329158,57.9741,-447.243,0,0
329419,57.7441,-446.571,0,0
329679,57.5146,-445.858,0,0
329939,57.424,-445.172,0,0
330200,57.2195,-444.52,0,0
330460,57.0478,-443.819,0,0
330720.15,56.9409,-443.113,0,0
330980.475,56.7167,-442.44,0,0
331240.8,56.5069,-441.743,0,0
331501.125,56.4495,-441.098,0,0
331761.45,56.2265,-440.387,0,0
332021.775,56.0664,-439.732,0,0
332282.1,55.9277,-439.04,0,0
332542.425,55.7737,-438.366,0,0
332802.75,55.5963,-437.683,0,0
333063.075,55.4531,-436.962,0,0
333323.4,55.3072,-436.301,0,0
333583.725,55.1825,-435.598,0,0
333844.05,55.0771,-434.897,0,0
334104.375,54.9405,-434.187,0,0
334364.7,54.8765,-433.522,0,0
334625.025,54.7168,-432.822,0,0
334885.35,54.6561,-432.157,0,0
335145.675,54.5218,-431.492,0,0
335406.0,54.4746,-430.791,0,0
335666.325,54.3933,-430.153,0,0
335926.65,54.3265,-429.494,0,0
336186.975,54.2329,-428.815,0,0
336447.3,54.1542,-428.181,0,0
336707.625,54.0871,-427.585,0,0
336967.95,54.0615,-426.887,0,0
337228.275,53.9562,-426.255,0,0
337488.6,53.8847,-425.621,0,0
337748.925,53.8091,-424.997,0,0
338009.25,53.7023,-424.396,0,0
338269.575,53.6259,-423.727,0,0
338529.9,53.5496,-423.136,0,0
338790.225,53.4421,-422.486,0,0
339050.55,53.3757,-421.849,0,0
339310.875,53.2853,-421.176,0,0
339571.2,53.1984,-420.579,0,0
339831.525,53.2013,-419.963,0,0
340091.85,53.1025,-419.324,0,0
340352.175,53.0397,-418.687,0,0
340612.5,52.9934,-418.048,0,0
340872.825,52.9982,-417.378,0,0
341133.15,52.962,-416.721,0,0
341393.475,52.9162,-416.121,0,0
341653.8,52.8636,-415.493,0,0
341914.125,52.8818,-414.87,0,0
342174.45,52.9056,-414.263,0,0
342434.775,52.9259,-413.625,0,0
342695.1,52.9633,-412.998,0,0
342955.425,53.0328,-412.407,0,0
343215.75,53.0919,-411.868,0,0
343476.075,53.1532,-411.355,0,0
343736.4,53.2322,-410.884,0,0
343996.725,53.2539,-410.453,0,0
344257.05,53.2396,-410.04,0,0
344517.375,53.2365,-409.651,0,0
344777.7,53.1246,-409.211,0,0
345038.025,53.0013,-408.79,0,0
345298.35,52.8723,-408.35,0,0
345558.675,52.6895,-407.857,0,0
345819.0,52.5595,-407.357,0,0
346079.325,52.3969,-406.838,0,0
346339.65,52.2322,-406.274,0,0
346599.975,52.1005,-405.684,0,0
346860,51.9252,-405.084,0,0
347121,51.7999,-404.502,0,0
347381,51.7132,-403.915,0,0
347641,51.5745,-403.319,0,0
347902,51.5086,-402.709,0,0
348162,51.4455,-402.103,0,0
348422,51.3408,-401.494,0,0
348683,51.2997,-400.897,0,0
348943,51.2468,-400.32,0,0
349203,51.2235,-399.704,0,0
349464,51.212,-399.122,0,0
349724,51.1042,-398.553,0,0
349984,51.0498,-397.972,0,0
350245,51.0889,-397.389,0,0
350505,51.0483,-396.798,0,0
350765,51.0194,-396.241,0,0
351025,51.0033,-395.662,0,0
351286,50.9647,-395.076,0,0
351546,50.947,-394.527,0,0
351806,50.9416,-393.957,0,0
352067,50.9547,-393.379,0,0
352327,50.9997,-392.888,0,0
352587,51.0137,-392.252,0,0
352848,50.9972,-391.772,0,0
353108,51.0219,-391.234,0,0
353368,51.0481,-390.715,0,0
353629,51.0338,-390.195,0,0
353889,51.0724,-389.695,0,0
354149,51.0724,-389.222,0,0
354410,51.0394,-388.75,0,0
354670,51.0122,-388.265,0,0
354930,50.9849,-387.736,0,0
355191,50.9725,-387.28,0,0
355451,50.9628,-386.797,0,0
355711,50.9276,-386.244,0,0
355972,50.8321,-385.756,0,0
356232,50.8183,-385.248,0,0
356492,50.7859,-384.752,0,0
356753,50.7562,-384.146,0,0
357013,50.7219,-383.652,0,0
357273,50.7163,-383.114,0,0
357534,50.7291,-382.57,0,0
357794,50.7622,-382.044,0,0
358054,50.7816,-381.534,0,0
358315,50.81,-381.054,0,0
358575,50.8734,-380.527,0,0
358835,50.8899,-380.048,0,0
359096,50.9312,-379.564,0,0
359356,50.9892,-379.125,0,0
359616,50.9709,-378.711,0,0
359877,51.0508,-378.284,0,0
360137,51.0332,-377.807,0,0
360397,50.9878,-377.385,0,0
360658,51.0099,-376.96,0,0
360918,50.9842,-376.521,0,0
361178,50.9831,-376.106,0,0
361438,50.9465,-375.684,0,0
361699,50.8861,-375.295,0,0
361959,50.8606,-374.814,0,0
362219,50.7923,-374.407,0,0
362480,50.7723,-373.961,0,0
362740.1,50.6612,-373.512,0,0
363000.425,50.6339,-373.081,0,0
363260.75,50.5489,-372.613,0,0
363521.075,50.4885,-372.152,0,0
363781.4,50.4216,-371.676,0,0
364041.725,50.3375,-371.203,0,0
364302.05,50.2746,-370.722,0,0
364562.375,50.2336,-370.24,0,0
364822.7,50.1708,-369.756,0,0
365083.025,50.1161,-369.282,0,0
365343.35,50.0684,-368.807,0,0
365603.675,50.0153,-368.27,0,0
365864.0,49.9718,-367.761,0,0
366124.325,49.956,-367.294,0,0
366384.65,49.9158,-366.794,0,0
366644.975,49.9176,-366.299,0,0
366905.3,49.8821,-365.806,0,0
367165.625,49.8725,-365.333,0,0
367425.95,49.8527,-364.856,0,0
367686.275,49.8127,-364.371,0,0
367946.6,49.7708,-363.884,0,0
368206.925,49.7785,-363.438,0,0
368467.25,49.777,-362.925,0,0
368727.575,49.7376,-362.433,0,0
368987.9,49.7093,-361.914,0,0
369248.225,49.7083,-361.444,0,0
369508.55,49.7497,-360.972,0,0
369768.875,49.7336,-360.422,0,0
370029.2,49.7589,-359.959,0,0
370289.525,49.7596,-359.485,0,0
370549.85,49.769,-358.975,0,0
370810.175,49.8143,-358.516,0,0
371070.5,49.8499,-358.02,0,0
371330.825,49.8525,-357.553,0,0
371591.15,49.9274,-357.089,0,0
371851.475,49.97,-356.62,0,0
372111.8,50.0031,-356.134,0,0
372372.125,50.0675,-355.702,0,0
372632.45,50.1667,-355.292,0,0
372892.775,50.2321,-354.857,0,0
373153.1,50.3535,-354.468,0,0
373413.425,50.4101,-354.101,0,0
373673.75,50.4671,-353.726,0,0
373934.075,50.533,-353.425,0,0
374194.4,50.5585,-353.082,0,0
374454.725,50.5442,-352.822,0,0
374715.05,50.5302,-352.504,0,0
374975.375,50.4872,-352.21,0,0
375235.7,50.4002,-351.909,0,0
375496.025,50.3005,-351.562,0,0
375756.35,50.1853,-351.201,0,0
376016.675,50.109,-350.849,0,0
376277.0,49.9992,-350.461,0,0
376537.325,49.8281,-350.049,0,0
376797.65,49.744,-349.641,0,0
377057.975,49.6288,-349.241,0,0
377318.3,49.5481,-348.827,0,0
377578.625,49.4531,-348.401,0,0
377838.95,49.3628,-347.975,0,0
378099.275,49.2891,-347.548,0,0
378359.6,49.1704,-347.118,0,0
378619.925,49.0636,-346.7,0,0
378880,48.9289,-346.288,0,0
379141,48.8101,-345.84,0,0
379401,48.6797,-345.403,0,0
379661,48.5646,-344.975,0,0
379922,48.4247,-344.506,0,0
380182,48.3009,-343.994,0,0
380442,48.1378,-343.504,0,0
380703,48.0255,-342.994,0,0
380963,47.9119,-342.476,0,0
381223,47.7739,-341.903,0,0
381483,47.6952,-341.353,0,0
381744,47.5878,-340.757,0,0
382004,47.583,-340.182,0,0
382264,47.5117,-339.582,0,0
382525,47.5088,-339.013,0,0
382785,47.5457,-338.408,0,0
383045,47.6253,-337.854,0,0
383306,47.7114,-337.357,0,0
383566,47.8586,-336.843,0,0
383826,47.9308,-336.437,0,0
384087,47.987,-336.02,0,0
384347,48.0292,-335.676,0,0
384607,47.9834,-335.304,0,0
384868,47.9655,-334.936,0,0
385128,47.9282,-334.504,0,0
385388,47.8298,-334.081,0,0
385649,47.7902,-333.668,0,0
385909,47.6728,-333.247,0,0
386169,47.5827,-332.748,0,0
386430,47.5191,-332.321,0,0
386690,47.4604,-331.811,0,0
386950,47.3725,-331.351,0,0
387211,47.3034,-330.855,0,0
387471,47.2223,-330.373,0,0
387731,47.1809,-329.872,0,0
387992,47.0861,-329.402,0,0
388252,47.044,-328.861,0,0
388512,46.9646,-328.338,0,0
388773,46.9029,-327.811,0,0
389033,46.8521,-327.296,0,0
389293,46.8309,-326.768,0,0
389554,46.7993,-326.24,0,0
389814,46.7701,-325.701,0,0
390074,46.7338,-325.168,0,0
390335,46.7121,-324.668,0,0
390595,46.6405,-324.148,0,0
390855,46.6552,-323.569,0,0
391116,46.6431,-323.077,0,0
391376,46.6186,-322.531,0,0
391636,46.6276,-321.984,0,0
391896,46.5945,-321.485,0,0
392157,46.598,-320.958,0,0
392417,46.6003,-320.428,0,0
392677,46.6149,-319.888,0,0
392938,46.6005,-319.358,0,0
393198,46.6103,-318.829,0,0
393458,46.6195,-318.313,0,0
393719,46.6149,-317.762,0,0
393979,46.6108,-317.212,0,0
394239,46.6461,-316.7,0,0
394500,46.6351,-316.17,0,0
394760.05,46.6867,-315.648,0,0
395020.375,46.6765,-315.084,0,0
395280.7,46.7115,-314.534,0,0
395541.025,46.7267,-314.012,0,0
395801.35,46.7501,-313.466,0,0
396061.675,46.7588,-312.936,0,0
396322.0,46.7972,-312.376,0,0
396582.325,46.8291,-311.846,0,0
396842.65,46.8657,-311.285,0,0
397102.975,46.9197,-310.759,0,0
397363.3,46.9863,-310.22,0,0
397623.625,47.0049,-309.681,0,0
397883.95,47.0565,-309.154,0,0
398144.275,47.1035,-308.59,0,0
398404.6,47.1721,-308.062,0,0
398664.925,47.207,-307.513,0,0
398925.25,47.2628,-306.991,0,0
399185.575,47.332,-306.436,0,0
399445.9,47.3729,-305.92,0,0
399706.225,47.4595,-305.374,0,0
399966.55,47.5214,-304.819,0,0
400006.6,47.5088,-304.758,0,0