File: Accelerated corrosion test data/2025-10-02_06-00-03/sample_3.csv
Frequency (Hz),Impedance (ohms),Phase (Radians),Temperature (C),Humidity (%)
10000.0,254.69,-11763.5,0,0
10260.325,248.63,-11466.7,0,0
10520.65,242.758,-11185.2,0,0
10780.975,238.508,-10916.2,0,0
11041.3,232.555,-10664.9,0,0
11301.625,226.728,-10419.9,0,0
11561.95,222.216,-10186.8,0,0
11822.275,217.641,-9963.23,0,0
12082.6,214.49,-9750.78,0,0
12342.925,211.641,-9545.37,0,0
12603.25,206.004,-9351.75,0,0
12863.575,202.419,-9162.48,0,0
13123.9,202.424,-8979.34,0,0
13384.225,195.478,-8811.89,0,0
13644.55,192.24,-8643.97,0,0
13904.875,187.707,-8481.7,0,0
14165.2,187.545,-8324.62,0,0
14425.525,183.013,-8175.37,0,0
14685.8,181.551,-8032.95,0,0
14946.175,178.501,-7893.67,0,0
15206.5,175.1,-7753.7,0,0
15466.825,178.483,-7616.49,0,0
15727.15,200.389,-7506.26,0,0
15987.5,176.506,-7400.72,0,0
16247.8,169.671,-7271.85,0,0
16508.125,164.589,-7160.18,0,0
16768.45,164.689,-7039.61,0,0
17028.775,160.632,-6942.19,0,0
17289.1,162.404,-6827.88,0,0
17549.425,158.74,-6736.69,0,0
17809.75,159.787,-6632.85,0,0
18070.075,164.749,-6542.41,0,0
18330.4,152.697,-6453.43,0,0
18590.725,150.559,-6360.04,0,0
18851.05,146.832,-6270.8,0,0
19111.375,148.206,-6180.9,0,0
19371.7,147.948,-6099.15,0,0
19632.025,148.367,-6016.58,0,0
19892.35,148.396,-5934.45,0,0
20152.675,152.241,-5860.74,0,0
20413.0,159.635,-5780.49,0,0
20673.3,164.082,-5712.98,0,0
20933.65,166.344,-5663.57,0,0
21193.975,165.373,-5599.47,0,0
21454.3,147.32,-5536.91,0,0
21714.625,140.352,-5462.24,0,0
21974.9,145.281,-5396.64,0,0
22235.275,140.004,-5338.32,0,0
22495.6,139.188,-5275.35,0,0
22755.925,130.957,-5216.34,0,0
23016.25,129.431,-5157.25,0,0
23276.6,129.472,-5094.54,0,0
23536.9,131.768,-5048.88,0,0
23797.225,123.778,-4991.07,0,0
24057.55,120.946,-4933.51,0,0
24317.875,120.638,-4878.32,0,0
24578.2,119.259,-4828.4,0,0
24838.525,119.783,-4775.24,0,0
25098.85,118.634,-4729.6,0,0
25359.175,116.073,-4680.24,0,0
25619.5,115.038,-4632,0,0
25879.8,112.47,-4585.48,0,0
26140.1,109.475,-4538.59,0,0
26400.5,109.068,-4491.55,0,0
26660.8,109.547,-4446.61,0,0
26921.1,110.033,-4402.24,0,0
27181.4,109.828,-4361.74,0,0
27441.8,108.482,-4318.07,0,0
27702.1,109.921,-4278.5,0,0
27962.4,106.837,-4239.18,0,0
28222.7,105.207,-4196.3,0,0
28483.1,111.931,-4153.56,0,0
28743.4,115.116,-4119.64,0,0
29003.7,116.143,-4087.86,0,0
29264,107.868,-4055.39,0,0
29524.4,111.073,-4017.5,0,0
29784.7,106.094,-3984.71,0,0
30045,104.443,-3950.94,0,0
30305.3,101.722,-3913.61,0,0
30565.7,104.02,-3879.83,0,0
30826,102.236,-3846.88,0,0
31086.3,103.947,-3814.88,0,0
31346.6,99.7283,-3784.66,0,0
31607,98.4393,-3750.48,0,0
31867.3,99.1835,-3716.77,0,0
32127.6,102.739,-3683.8,0,0
32387.9,109.266,-3654.65,0,0
32648.3,114.054,-3637.73,0,0
32908.6,104.519,-3612.96,0,0
33168.9,102.658,-3584.17,0,0
33429.2,101.158,-3558.6,0,0
33689.6,95.7285,-3531.5,0,0
33949.9,92.455,-3502.28,0,0
34210.2,91.9564,-3474.05,0,0
34470.5,91.5891,-3447.81,0,0
34730.9,89.1145,-3421.73,0,0
34991.2,88.0394,-3394.94,0,0
35251.5,87.3429,-3369.26,0,0
35511.8,85.8971,-3343.68,0,0
35772.2,85.5704,-3318.84,0,0
36032.5,84.5788,-3294.22,0,0
36292.8,84.0287,-3269.85,0,0
36553.1,83.7778,-3245.84,0,0
36813.5,82.9216,-3222.62,0,0
37073.8,82.2214,-3199.69,0,0
37334.1,81.6319,-3176.55,0,0
37594.4,81.3323,-3154.13,0,0
37854.8,80.754,-3132.33,0,0
38115.1,80.2106,-3109.99,0,0
38375.4,79.4617,-3088.44,0,0
38635.7,79.1556,-3066.71,0,0
38896.1,78.9,-3045.81,0,0
39156.4,78.3868,-3025.04,0,0
39416.7,78.1036,-3004.77,0,0
39677,77.481,-2984.63,0,0
39937.4,76.8431,-2964.7,0,0
40197.7,76.566,-2944.74,0,0
40458,76.2104,-2925.2,0,0
40718.3,76.0617,-2905.87,0,0
40978.7,75.4804,-2887.16,0,0
41239,75.4744,-2867.82,0,0
41499.3,75.2335,-2849.44,0,0
41759.6,75.5104,-2831.16,0,0
42020,74.9115,-2813.47,0,0
42280.275,75.0607,-2795.8,0,0
42540.6,74.246,-2778.45,0,0
42800.925,74.0043,-2761.3,0,0
43061.25,73.6005,-2744.32,0,0
43321.575,73.0881,-2727,0,0
43581.9,72.5799,-2709.97,0,0
43842.225,72.7352,-2693.03,0,0
44102.55,73.1647,-2676.87,0,0
44362.875,73.0722,-2660.88,0,0
44623.2,72.4082,-2645.11,0,0
44883.525,72.0893,-2629.27,0,0
45143.85,71.4589,-2613.62,0,0
45404.175,71.7716,-2597.78,0,0
45664.5,70.9931,-2582.09,0,0
45924.825,72.2961,-2567.18,0,0
46185.15,71.3633,-2552.95,0,0
46445.475,71.0921,-2537.87,0,0
46705.8,70.8594,-2522.86,0,0
46966.125,71.1606,-2508.51,0,0
47226.45,70.6512,-2494.4,0,0
47486.775,70.6136,-2479.81,0,0
47747.1,71.0657,-2465.21,0,0
48007.425,71.7254,-2452.68,0,0
48267.75,71.6736,-2439.9,0,0
48528.075,70.5579,-2426.62,0,0
48788.4,70.3032,-2413.17,0,0
49048.725,69.5439,-2400.33,0,0
49309.05,69.0653,-2386.83,0,0
49569.375,68.6237,-2373.57,0,0
49829.7,68.5824,-2360.78,0,0
50090.025,68.0791,-2347.96,0,0
50350.35,67.5053,-2335.2,0,0
50610.675,67.5157,-2322.12,0,0
50871.0,67.4479,-2309.82,0,0
51131.325,67.3646,-2297.31,0,0
51391.65,67.1595,-2284.99,0,0
51651.975,67.329,-2272.81,0,0
51912.3,67.1908,-2260.89,0,0
52172.625,66.9565,-2248.94,0,0
52432.95,66.8913,-2236.82,0,0
52693.275,67.0958,-2224.74,0,0
52953.6,67.5542,-2213.03,0,0
53213.925,68.2739,-2201.52,0,0
53474.25,68.8789,-2190.99,0,0
53734.575,68.819,-2180.05,0,0
53994.9,69.2479,-2169.11,0,0
54255.225,70.1528,-2158.54,0,0
54515.55,71.0928,-2149.01,0,0
54775.875,70.4537,-2140.19,0,0
55036.2,69.4995,-2129.98,0,0
55296.525,69.1872,-2120.53,0,0
55556.85,67.8473,-2111.14,0,0
55817.175,66.0931,-2100.52,0,0
56077.5,65.2652,-2090.18,0,0
56337.825,64.3001,-2079.55,0,0
56598.15,63.416,-2069.04,0,0
56858.475,62.551,-2058.34,0,0
57118.8,62.1216,-2047.51,0,0
57379.125,61.9739,-2036.98,0,0
57639.45,61.9877,-2026.56,0,0
57899.775,61.9769,-2016.47,0,0
58160.1,62.0768,-2006.44,0,0
58420.4,61.9539,-1996.44,0,0
58680.7,62.0053,-1986.51,0,0
58941.1,62.2264,-1976.83,0,0
59201.4,62.2404,-1966.95,0,0
59461.7,62.6314,-1957.39,0,0
59722,62.8947,-1947.93,0,0
59982.4,63.0799,-1938.54,0,0
60242.7,63.2932,-1929.22,0,0
60503,63.502,-1919.86,0,0
60763.3,63.9788,-1910.71,0,0
61023.7,64.3103,-1901.62,0,0
61284,64.7074,-1892.47,0,0
61544.3,65.4628,-1883.5,0,0
61804.6,65.8043,-1875.26,0,0
62065,66.0185,-1866.18,0,0
62325.3,66.5377,-1857.49,0,0
62585.6,67.1021,-1848.71,0,0
62845.9,68.0533,-1839.67,0,0
63106.3,68.7333,-1831.43,0,0
63366.6,69.4636,-1822.8,0,0
63626.9,70.7527,-1814.01,0,0
63887.2,71.8984,-1805.45,0,0
64147.6,73.9471,-1797.04,0,0
64407.9,75.8328,-1789.17,0,0
64668.2,78.0834,-1781.34,0,0
64928.5,80.6092,-1773.72,0,0
65188.9,84.3636,-1767.17,0,0
65449.2,87.8254,-1762.52,0,0
65709.5,89.5071,-1758.34,0,0
65969.8,92.8031,-1755.06,0,0
66230.2,92.5132,-1755.25,0,0
66490.5,88.167,-1753.14,0,0
66750.8,82.2874,-1748.18,0,0
67011.1,78.5,-1738.68,0,0
67271.5,77.3641,-1730.57,0,0
67531.8,75.6825,-1722.7,0,0
67792.1,75.3752,-1714.25,0,0
68052.4,75.4741,-1706.38,0,0
68312.8,76.6975,-1699.18,0,0
68573.1,76.8953,-1693.26,0,0
68833.4,76.7114,-1686.79,0,0
69093.7,77.1691,-1680.3,0,0
69354.1,77.6342,-1674.62,0,0
69614.4,77.4966,-1669.36,0,0
69874.7,76.4938,-1663.93,0,0
70135,75.6363,-1658.26,0,0
70395.4,74.5758,-1652.38,0,0
70655.7,73.4476,-1646.24,0,0
70916,72.2443,-1639.91,0,0
71176.3,71.3173,-1633.28,0,0
71436.7,70.7727,-1626.85,0,0
71697,69.8659,-1620.12,0,0
71957.3,69.7262,-1613.24,0,0
72217.6,69.7184,-1606.96,0,0
72478,69.852,-1600.72,0,0
72738.3,69.8842,-1594.91,0,0
72998.6,69.7338,-1589.36,0,0
73258.9,69.1825,-1583.83,0,0
73519.3,68.6339,-1578.06,0,0
73779.6,68.2632,-1572.37,0,0
74039.9,67.7217,-1566.96,0,0
74300.225,66.9896,-1561.33,0,0
74560.55,66.2004,-1555.71,0,0
74820.875,65.4608,-1549.9,0,0
75081.2,64.669,-1544.13,0,0
75341.525,63.9426,-1538.41,0,0
75601.85,63.2544,-1532.58,0,0
75862.175,62.5763,-1526.81,0,0
76122.5,61.7897,-1520.91,0,0
76382.825,61.1372,-1514.98,0,0
76643.15,60.6183,-1509.11,0,0
76903.475,60.1008,-1503.26,0,0
77163.8,59.7017,-1497.52,0,0
77424.125,59.2635,-1491.75,0,0
77684.45,58.7478,-1486.13,0,0
77944.775,58.2273,-1480.37,0,0
78205.1,57.7779,-1474.67,0,0
78465.425,57.3315,-1468.98,0,0
78725.75,56.9043,-1463.37,0,0
78986.075,56.5567,-1457.7,0,0
79246.4,56.169,-1452.04,0,0
79506.725,55.8722,-1446.39,0,0
79767.05,55.5005,-1440.83,0,0
80027.375,55.2274,-1435.23,0,0
80287.7,55.0466,-1429.69,0,0
80548.025,54.7863,-1424.23,0,0
80808.35,54.5881,-1418.79,0,0
81068.675,54.3684,-1413.35,0,0
81329.0,54.1498,-1407.92,0,0
81589.325,53.9897,-1402.54,0,0
81849.65,53.8874,-1397.21,0,0
82109.975,53.7351,-1391.91,0,0
82370.3,53.5797,-1386.61,0,0
82630.625,53.4642,-1381.35,0,0
82890.95,53.4634,-1376.14,0,0
83151.275,53.3335,-1370.95,0,0
83411.6,53.258,-1365.75,0,0
83671.925,53.2153,-1360.63,0,0
83932.25,53.1492,-1355.58,0,0
84192.575,53.1558,-1350.48,0,0
84452.9,53.0531,-1345.39,0,0
84713.225,52.9537,-1340.4,0,0
84973.55,52.9403,-1335.43,0,0
85233.875,52.9759,-1330.44,0,0
85494.2,53.0173,-1325.51,0,0
85754.525,53.0925,-1320.6,0,0
86014.85,53.1562,-1315.69,0,0
86275.175,53.1609,-1310.9,0,0
86535.5,53.2326,-1305.97,0,0
86795.825,53.194,-1301.17,0,0
87056.15,53.293,-1296.46,0,0
87316.475,53.2752,-1291.54,0,0
87576.8,53.413,-1286.77,0,0
87837.125,53.4848,-1281.97,0,0
88097.45,53.8036,-1277.24,0,0
88357.775,53.8524,-1272.49,0,0
88618.1,53.9566,-1267.7,0,0
88878.425,54.1578,-1262.91,0,0
89138.75,54.5209,-1258.16,0,0
89399.075,54.9399,-1253.51,0,0
89659.4,55.3954,-1248.88,0,0
89919.725,56.0315,-1244.39,0,0
90180,56.5056,-1240.08,0,0
90440.4,56.9342,-1235.75,0,0
90700.7,57.2297,-1231.4,0,0
90961,57.7152,-1227.04,0,0
91221.3,58.196,-1222.83,0,0
91481.7,58.8517,-1218.57,0,0
91742,59.4458,-1214.48,0,0
92002.3,59.9859,-1210.34,0,0
92262.6,60.7541,-1206.26,0,0
92523,61.5146,-1202.51,0,0
92783.3,62.2074,-1198.94,0,0
93043.6,62.7236,-1195.25,0,0
93303.9,63.5279,-1191.75,0,0
93564.3,64.1697,-1188.51,0,0
93824.6,64.8139,-1185.24,0,0
94084.9,65.3195,-1182.55,0,0
94345.2,65.3881,-1179.84,0,0
94605.6,65.3314,-1177.3,0,0
94865.9,64.7528,-1174.88,0,0
95126.2,63.5402,-1172.33,0,0
95386.5,61.6912,-1168.97,0,0
95646.9,60.295,-1164.55,0,0
95907.2,59.6166,-1160.16,0,0
96167.5,59.0772,-1155.85,0,0
96427.8,58.7344,-1151.43,0,0
96688.2,58.6695,-1147.22,0,0
96948.5,58.7353,-1143.16,0,0
97208.8,58.6864,-1139.16,0,0
97469.1,58.7512,-1135.19,0,0
97729.5,58.8498,-1131.42,0,0
97989.8,58.8592,-1127.67,0,0
98250.1,58.8518,-1123.98,0,0
98510.4,58.8203,-1120.29,0,0
98770.8,58.7628,-1116.6,0,0
99031.1,58.7084,-1112.95,0,0
99291.4,58.5727,-1109.43,0,0
99551.7,58.2668,-1105.72,0,0
99812.1,58.005,-1102.03,0,0
100072,57.8035,-1098.15,0,0
100333,57.6418,-1094.4,0,0
100593,57.438,-1090.59,0,0
100853,57.2014,-1086.61,0,0
101114,57.0297,-1082.6,0,0
101374,56.9814,-1078.48,0,0
101634,57.1068,-1074.3,0,0
101895,57.4173,-1070.3,0,0
102155,57.6708,-1066.24,0,0
102415,58.0911,-1062.05,0,0
102676,58.8619,-1057.91,0,0
102936,59.8304,-1054.18,0,0
103196,60.728,-1050.83,0,0
103457,61.4167,-1047.53,0,0
103717,62.0891,-1044.21,0,0
103977,62.7101,-1040.79,0,0
104238,63.7932,-1037.4,0,0
104498,65.1069,-1034.62,0,0
104758,65.9635,-1032.56,0,0
105019,66.221,-1030.54,0,0
105279,65.9945,-1028.25,0,0
105539,65.7121,-1025.65,0,0
105800,65.5844,-1023.07,0,0
106060,65.1946,-1020.7,0,0
106320.175,64.4584,-1017.99,0,0
106580.5,63.8087,-1015.02,0,0
106840.825,63.1354,-1011.99,0,0
107101.15,62.4841,-1008.82,0,0
107361.475,61.757,-1005.58,0,0
107621.8,61.138,-1002.12,0,0
107882.125,60.5396,-998.648,0,0
108142.45,60.1008,-994.973,0,0
108402.775,59.7973,-991.441,0,0
108663.1,59.3711,-987.846,0,0
108923.425,59.0002,-984.067,0,0
109183.75,58.681,-980.228,0,0
109444.075,58.7214,-976.421,0,0
109704.4,58.7979,-972.606,0,0
109964.725,58.8665,-968.886,0,0
110225.05,58.9025,-965.123,0,0
110485.375,59.2272,-961.221,0,0
110745.7,59.5605,-957.418,0,0
111006.025,60.2441,-953.679,0,0
111266.35,60.8614,-950.334,0,0
111526.675,61.2899,-947.136,0,0
111787.0,61.792,-943.837,0,0
112047.325,62.114,-940.575,0,0
112307.65,62.5439,-937.235,0,0
112567.975,63.0835,-934.051,0,0
112828.3,63.3962,-930.988,0,0
113088.625,63.7271,-927.749,0,0
113348.95,64.0057,-924.5,0,0
113609.275,64.3245,-921.27,0,0
113869.6,64.6476,-918.011,0,0
114129.925,64.9881,-914.703,0,0
114390.25,65.3916,-911.473,0,0
114650.575,65.7022,-908.126,0,0
114910.9,66.2556,-904.713,0,0
115171.225,66.7939,-901.426,0,0
115431.55,67.3406,-898.182,0,0
115691.875,67.8993,-894.789,0,0
115952.2,68.6784,-891.517,0,0
116212.525,69.3414,-888.308,0,0
116472.85,70.0534,-884.932,0,0
116733.175,71.0301,-881.611,0,0
116993.5,72.0357,-878.534,0,0
117253.825,72.9212,-875.483,0,0
117514.15,73.8103,-872.203,0,0
117774.475,75.2323,-868.932,0,0
118034.8,76.6665,-865.991,0,0
118295.125,78.2864,-863.189,0,0
118555.45,79.9638,-860.852,0,0
118815.775,81.3201,-858.762,0,0
119076.1,82.444,-856.653,0,0
119336.425,83.6464,-854.313,0,0
119596.75,85.2433,-852.125,0,0
119857.075,87.0525,-850.644,0,0
120117.4,88.3884,-849.86,0,0
120377.725,88.67,-849.226,0,0
120638.05,88.5777,-847.974,0,0
120898.375,88.4747,-846.523,0,0
121158.7,88.3387,-844.979,0,0
121419.025,87.8176,-843.466,0,0
121679.35,87.1363,-841.448,0,0
121939.675,86.5456,-839.002,0,0
122200.0,86.2792,-836.364,0,0
122460,86.2244,-833.755,0,0
122721,86.2884,-831.135,0,0
122981,86.5016,-828.534,0,0
123241,86.8742,-826.047,0,0
123502,87.2568,-823.795,0,0
123762,87.49,-821.586,0,0
124022,87.6543,-819.291,0,0
124283,87.9396,-816.987,0,0
124543,88.2385,-814.756,0,0
124803,88.5762,-812.621,0,0
125064,88.8142,-810.549,0,0
125324,89.0525,-808.542,0,0
125584,89.1626,-806.604,0,0
125845,89.2246,-804.611,0,0
126105,89.283,-802.634,0,0
126365,89.2398,-800.755,0,0
126626,89.0766,-798.849,0,0
126886,88.8244,-796.851,0,0
127146,88.5551,-794.737,0,0
127406,88.2101,-792.693,0,0
127667,87.8062,-790.543,0,0
127927,87.4144,-788.274,0,0
128187,86.9542,-785.951,0,0
128448,86.5643,-783.655,0,0
128708,85.9861,-781.145,0,0
128968,85.5902,-778.407,0,0
129229,85.41,-775.721,0,0
129489,85.211,-773.073,0,0
129749,85.0217,-770.404,0,0
130010,84.8616,-767.619,0,0
130270,84.932,-764.744,0,0
130530,85.1773,-762.027,0,0
130791,85.5024,-759.414,0,0
131051,85.8933,-757.142,0,0
131311,85.9841,-755.036,0,0
131572,85.9372,-752.762,0,0
131832,85.9055,-750.497,0,0
132092,85.721,-748.288,0,0
132353,85.4204,-745.923,0,0
132613,85.1856,-743.334,0,0
132873,85.1892,-740.764,0,0
133134,85.1498,-738.396,0,0
133394,85.0005,-736.039,0,0
133654,84.8141,-733.637,0,0
133915,84.554,-731.209,0,0
134175,84.2674,-728.635,0,0
134435,84.124,-726.009,0,0
134696,83.9208,-723.508,0,0
134956,83.6406,-720.901,0,0
135216,83.2938,-718.198,0,0
135477,83.1902,-715.4,0,0
135737,83.0098,-712.74,0,0
135997,82.7576,-710.081,0,0
136258,82.4893,-707.248,0,0
136518,82.2855,-704.299,0,0
136778,82.1599,-701.266,0,0
137039,82.1641,-698.218,0,0
137299,82.3269,-695.216,0,0
137559,82.5988,-692.26,0,0
137819,82.8517,-689.484,0,0
138080,82.9877,-686.659,0,0
138340.125,83.2736,-683.788,0,0
138600.45,83.7341,-681.153,0,0
138860.775,84.0342,-678.812,0,0
139121.1,83.9294,-676.412,0,0
139381.425,83.7848,-673.761,0,0
139641.75,83.7189,-671.082,0,0
139902.075,83.5367,-668.385,0,0
140162.4,83.3296,-665.524,0,0
140422.725,83.2496,-662.537,0,0
140683.05,83.2574,-659.535,0,0
140943.375,83.3102,-656.628,0,0
141203.7,83.3427,-653.806,0,0
141464.025,83.2369,-650.947,0,0
141724.35,83.1082,-648.021,0,0
141984.675,82.9172,-644.95,0,0
142245.0,82.821,-641.751,0,0
142505.325,82.8372,-638.553,0,0
142765.65,82.7871,-635.4,0,0
143025.975,82.6855,-632.081,0,0
143286.3,82.7559,-628.712,0,0
143546.625,82.8048,-625.344,0,0
143806.95,82.8671,-621.853,0,0
144067.275,83.0842,-618.285,0,0
144327.6,83.3924,-614.776,0,0
144587.925,83.7027,-611.3,0,0
144848.25,83.9736,-607.784,0,0
145108.575,84.2684,-604.145,0,0
145368.9,84.6916,-600.509,0,0
145629.225,85.1162,-596.885,0,0
145889.55,85.5615,-593.197,0,0
146149.875,86.0381,-589.436,0,0
146410.2,86.5887,-585.603,0,0
146670.525,87.2371,-581.719,0,0
146930.85,87.9667,-577.799,0,0
147191.175,88.7682,-573.878,0,0
147451.5,89.6627,-569.909,0,0
147711.825,90.6802,-565.939,0,0
147972.15,91.6849,-561.979,0,0
148232.475,92.8145,-557.941,0,0
148492.8,94.0244,-553.931,0,0
148753.125,95.3083,-549.858,0,0
149013.45,96.6898,-545.755,0,0
149273.775,98.2131,-541.614,0,0
149534.1,99.8811,-537.482,0,0
149794.425,101.707,-533.358,0,0
150054.75,103.661,-529.278,0,0
150315.075,105.779,-525.174,0,0
150575.4,108.156,-521.188,0,0
150835.725,110.685,-517.392,0,0
151096.05,113.266,-513.814,0,0
151356.375,115.894,-510.347,0,0
151616.7,118.602,-507.123,0,0
151877.025,121.182,-504.054,0,0
152137.35,123.704,-501.017,0,0
152397.675,126.26,-498.029,0,0
152658.0,128.842,-495.135,0,0
152918.325,131.48,-492.391,0,0
153178.65,134.069,-489.886,0,0
153438.975,136.388,-487.535,0,0
153699.3,138.473,-485.115,0,0
153959.625,140.455,-482.508,0,0
154219.95,142.579,-479.765,0,0
154480,144.832,-477.345,0,0
154741,146.658,-475.188,0,0
155001,147.835,-472.601,0,0
155261,149.062,-469.308,0,0
155522,150.907,-465.435,0,0
155782,153.442,-461.931,0,0
156042,155.979,-458.932,0,0
156303,158.157,-456.022,0,0
156563,160.218,-452.739,0,0
156823,162.446,-449.251,0,0
157084,165.158,-445.563,0,0
157344,168.187,-442.115,0,0
157604,171.506,-438.973,0,0
157864,174.833,-436.314,0,0
158125,178.033,-433.93,0,0
158385,180.833,-432.095,0,0
158645,183.041,-430.231,0,0
158906,184.403,-428.113,0,0
159166,185.49,-424.851,0,0
159426,187.495,-421.218,0,0
159687,189.036,-417.917,0,0
159947,190.183,-413.533,0,0
160207,192.247,-408.211,0,0
160468,194.947,-403.128,0,0
160728,197.667,-397.418,0,0
160988,201.698,-391.041,0,0
161249,206.84,-385.485,0,0
161509,212.114,-380.694,0,0
161769,216.892,-375.876,0,0
162030,222.21,-370.062,0,0
162290,229.186,-364.512,0,0
162550,236.968,-360.093,0,0
162811,244.531,-356.555,0,0
163071,251.932,-353.067,0,0
163331,259.733,-349.676,0,0
163592,267.971,-346.498,0,0
163852,276.88,-343.814,0,0
164112,286.195,-342.107,0,0
164373,294.822,-341.04,0,0
164633,303.621,-339.37,0,0
164893,313.625,-337.701,0,0
165154,325.116,-337.291,0,0
165414,337.118,-339.247,0,0
165674,347.965,-343.179,0,0
165935,357.203,-347.704,0,0
166195,366.048,-352.057,0,0
166455,374.797,-357.277,0,0
166716,382.362,-363.184,0,0
166976,389.672,-368.995,0,0
167236,396.474,-375.667,0,0
167497,401.956,-382.411,0,0
167757,406.998,-388.85,0,0
168017,412.019,-395.304,0,0
168277,417.103,-402.566,0,0
168538,420.91,-411.206,0,0
168798,422.509,-419.426,0,0
169058,423.211,-425.776,0,0
169319,425.12,-431.051,0,0
169579,428.331,-437.709,0,0
169839,430.02,-446.867,0,0
170100,428.327,-456.1,0,0
170360.075,424.631,-462.648,0,0
170620.4,421.391,-466.96,0,0
170880.725,418.829,-470.695,0,0
171141.05,416.253,-474.146,0,0
171401.375,413.298,-476.775,0,0
171661.7,410.713,-477.911,0,0
171922.025,409.534,-478.641,0,0
172182.35,408.703,-479.677,0,0
172442.675,408.237,-480.531,0,0
172703.0,407.993,-481.473,0,0
172963.325,408.18,-482.081,0,0
173223.65,409.091,-482.828,0,0
173483.975,410.177,-484.116,0,0
173744.3,411.25,-485.31,0,0
174004.625,413.078,-486.331,0,0
174264.95,416.254,-488.315,0,0
174525.275,419.217,-492.385,0,0
174785.6,420.754,-497.317,0,0
175045.925,421.368,-502.38,0,0
175306.25,421.077,-507.417,0,0
175566.575,420.451,-512.135,0,0
175826.9,419.439,-517.065,0,0
176087.225,417.282,-522.38,0,0
176347.55,413.877,-526.672,0,0
176607.875,410.566,-529.516,0,0
176868.2,408.09,-532.415,0,0
177128.525,405.436,-535.885,0,0
177388.85,401.806,-539.512,0,0
177649.175,397.349,-542.491,0,0
177909.5,392.532,-544.994,0,0
178169.825,386.697,-546.966,0,0
178430.15,380.196,-547.128,0,0
178690.475,374.242,-545.511,0,0
178950.8,369.578,-542.7,0,0
179211.125,366.492,-539.671,0,0
179471.45,363.988,-537.444,0,0
179731.775,361.199,-535.042,0,0
179992.1,358.92,-531.792,0,0
180252.425,357.684,-528.209,0,0
180512.75,357.751,-524.674,0,0
180773.075,358.973,-522.258,0,0
181033.4,360.202,-521.064,0,0
181293.725,360.966,-520.481,0,0
181554.05,361.559,-519.911,0,0
181814.375,362.73,-519.705,0,0
182074.7,363.893,-520.729,0,0
182335.025,364.128,-523.19,0,0
182595.35,362.36,-525.778,0,0
182855.675,359.471,-526.956,0,0
183116.0,356.569,-527.461,0,0
183376.325,353.646,-527.489,0,0
183636.65,350.536,-527.12,0,0
183896.975,347.423,-526.22,0,0
184157.3,344.365,-524.97,0,0
184417.625,341.29,-523.428,0,0
184677.95,338.322,-521.229,0,0
184938.275,335.502,-518.816,0,0
185198.6,332.829,-515.969,0,0
185458.925,330.523,-512.772,0,0
185719.25,328.518,-509.417,0,0
185979.575,326.72,-505.865,0,0
186239.9,325.058,-502.162,0,0
186500,323.547,-498.015,0,0
186761,322.504,-493.407,0,0
187021,322.242,-488.535,0,0
187281,322.854,-483.861,0,0
187542,323.878,-479.796,0,0
187802,324.894,-476.057,0,0
188062,325.976,-472.319,0,0
188322,327.429,-468.648,0,0
188583,329.344,-465.343,0,0
188843,331.217,-462.846,0,0
189103,332.375,-460.66,0,0
189364,333.079,-458.05,0,0
189624,333.797,-454.854,0,0
189884,335.085,-451.267,0,0
190145,336.896,-447.866,0,0
190405,338.907,-444.75,0,0
190665,341.129,-441.919,0,0
190926,343.249,-439.36,0,0
191186,345.21,-437.011,0,0
191446,346.894,-434.623,0,0
191707,348.446,-431.853,0,0
191967,350.356,-428.819,0,0
192227,352.514,-425.993,0,0
192488,354.525,-423.242,0,0
192748,356.416,-420.247,0,0
193008,358.434,-416.824,0,0
193269,360.931,-413.076,0,0
193529,363.95,-409.38,0,0
193789,367.054,-405.913,0,0
194050,370.425,-401.983,0,0
194310,374.577,-397.757,0,0
194570,379.778,-393.757,0,0
194831,385.759,-390.323,0,0
195091,392.379,-387.703,0,0
195351,399.554,-386.162,0,0
195612,406.539,-385.849,0,0
195872,412.944,-386.373,0,0
196132,418.996,-387.435,0,0
196393,424.436,-388.793,0,0
196653,429.655,-390.456,0,0
196913,434.638,-392.472,0,0
197174,439.126,-395.169,0,0
197434,442.63,-398.505,0,0
197694,444.801,-401.078,0,0
197955,446.842,-402.953,0,0
198215,448.985,-404.639,0,0
198475,450.964,-406.505,0,0
198735,452.137,-408.511,0,0
198996,452.307,-409.451,0,0
199256,452.755,-408.957,0,0
199516,454.416,-407.882,0,0
199777,456.971,-407.083,0,0
200037,459.85,-407.024,0,0
200297,462.303,-407.794,0,0
200558,463.661,-408.406,0,0
200818,464.686,-407.877,0,0
201078,466.387,-406.566,0,0
201339,468.769,-405.405,0,0
201599,471.161,-404.422,0,0
201859,473.451,-403.32,0,0
202120,475.709,-401.684,0,0
202380.025,478.542,-399.415,0,0
202640.35,482.455,-396.999,0,0
202900.675,487.143,-395.04,0,0
203161.0,492.114,-393.543,0,0
203421.325,497.402,-392.25,0,0
203681.65,503.237,-391.24,0,0
203941.975,509.569,-390.92,0,0
204202.3,516.008,-391.29,0,0
204462.625,522.297,-392.339,0,0
204722.95,528.537,-393.748,0,0
204983.275,535.021,-395.442,0,0
205243.6,541.513,-398.158,0,0
205503.925,547.403,-401.986,0,0
205764.25,552.105,-406.397,0,0
206024.575,555.66,-410.637,0,0
206284.9,558.264,-414.32,0,0
206545.225,560.483,-417.104,0,0
206805.55,562.69,-419.048,0,0
207065.875,565.373,-420.439,0,0
207326.2,568.374,-421.622,0,0
207586.525,571.62,-422.648,0,0
207846.85,575.015,-423.369,0,0
208107.175,579.018,-423.687,0,0
208367.5,583.717,-423.954,0,0
208627.825,589.23,-424.459,0,0
208888.15,595.29,-425.499,0,0
209148.475,601.626,-427.145,0,0
209408.8,608.303,-429.16,0,0
209669.125,615.394,-431.781,0,0
209929.45,622.67,-435.261,0,0
210189.775,629.603,-439.611,0,0
210450.1,636.206,-444.506,0,0
210710.425,642.481,-449.691,0,0
210970.75,648.625,-455.23,0,0
211231.075,654.392,-461.089,0,0
211491.4,659.804,-467.371,0,0
211751.725,665.003,-473.749,0,0
212012.05,669.898,-480.35,0,0
212272.375,674.474,-487.048,0,0
212532.7,678.841,-493.695,0,0
212793.025,683.251,-500.344,0,0
213053.35,687.831,-507.289,0,0
213313.675,692.478,-514.82,0,0
213574.0,696.656,-522.761,0,0
213834.325,700.498,-531.057,0,0
214094.65,704.1,-539.755,0,0
214354.975,707.125,-548.877,0,0
214615.3,709.428,-558.007,0,0
214875.625,711.324,-566.925,0,0
215135.95,713.198,-575.983,0,0
215396.275,714.704,-585.277,0,0
215656.6,715.474,-594.603,0,0
215916.925,716.011,-603.626,0,0
216177.25,716.665,-612.546,0,0
216437.575,717.277,-621.708,0,0
216697.9,717.694,-631.518,0,0
216958.225,717.516,-641.823,0,0
217218.55,716.153,-652.317,0,0
217478.875,713.89,-662.138,0,0
217739.2,711.528,-671.486,0,0
217999.525,709.182,-680.921,0,0
218259.85,706.183,-690.403,0,0
218520,702.704,-699.6,0,0
218780,698.687,-708.581,0,0
219041,694.037,-717.289,0,0
219301,688.724,-725.035,0,0
219561,683.875,-731.7,0,0
219822,679.358,-738.012,0,0
220082,675.434,-744.066,0,0
220342,672.246,-750.413,0,0
220603,669.449,-757.721,0,0
220863,666.205,-766.202,0,0
221123,661.662,-775.103,0,0
221384,655.958,-783.957,0,0
221644,649.278,-791.993,0,0
221904,642.435,-799.614,0,0
222165,635.074,-807.139,0,0
222425,626.758,-813.893,0,0
222685,618.218,-819.631,0,0
222946,609.663,-824.969,0,0
223206,600.969,-829.975,0,0
223466,591.443,-834.367,0,0
223727,581.656,-837.441,0,0
223987,572.136,-839.298,0,0
224247,563.248,-840.211,0,0
224508,555.163,-840.402,0,0
224768,547.699,-840.242,0,0
225028,540.923,-839.754,0,0
225289,534.762,-838.911,0,0
225549,529.512,-837.972,0,0
225809,525.119,-837.216,0,0
226070,521.422,-836.944,0,0
226330,518.347,-837.345,0,0
226590,515.374,-838.643,0,0
226851,512.068,-840.675,0,0
227111,508.28,-842.893,0,0
227371,504.006,-845.29,0,0
227632,499.461,-847.635,0,0
227892,494.747,-849.799,0,0
228152,489.824,-851.93,0,0
228413,484.934,-854.039,0,0
228673,479.831,-856.304,0,0
228933,474.294,-858.539,0,0
229193,468.463,-860.425,0,0
229454,462.484,-862.034,0,0
229714,456.409,-863.296,0,0
229974,450.365,-864.457,0,0
230235,444.211,-865.201,0,0
230495,438.163,-865.569,0,0
230755,432.235,-865.999,0,0
231016,426.126,-866.187,0,0
231276,420.111,-865.933,0,0
231536,414.349,-865.507,0,0
231797,408.578,-864.894,0,0
232057,403.21,-864.07,0,0
232317,398.014,-863.202,0,0
232578,392.999,-862.305,0,0
232838,388.103,-861.513,0,0
233098,383.287,-860.771,0,0
233359,378.332,-859.951,0,0
233619,373.518,-858.997,0,0
233879,368.832,-858.016,0,0
234140,364.249,-857.087,0,0
234400,359.633,-856.255,0,0
234660.3,354.84,-855.386,0,0
234920.625,350.142,-854.314,0,0
235180.95,345.624,-853.237,0,0
235441.275,341.136,-852.147,0,0
235701.6,336.464,-851.025,0,0
235961.925,331.895,-850.115,0,0
236222.25,326.921,-848.935,0,0
236482.575,321.895,-847.522,0,0
236742.9,317.013,-845.904,0,0
237003.225,312.06,-844.144,0,0
237263.55,307.378,-842.141,0,0
237523.875,302.731,-840.145,0,0
237784.2,297.958,-838.137,0,0
238044.525,293.224,-835.894,0,0
238304.85,288.509,-833.421,0,0
238565.175,283.904,-830.752,0,0
238825.5,279.252,-827.959,0,0
239085.825,274.817,-824.85,0,0
239346.15,270.551,-821.469,0,0
239606.475,266.563,-817.866,0,0
239866.8,262.928,-814.256,0,0
240127.125,259.38,-810.634,0,0
240387.45,256.154,-806.821,0,0
240647.775,253.136,-803.104,0,0
240908.1,250.24,-799.398,0,0
241168.425,247.569,-795.535,0,0
241428.75,245.194,-791.878,0,0
241689.075,242.867,-788.295,0,0
241949.4,240.595,-784.635,0,0
242209.725,238.511,-780.93,0,0
242470.05,236.713,-777.085,0,0
242730.375,235.27,-773.433,0,0
242990.7,233.931,-770.054,0,0
243251.025,232.617,-766.765,0,0
243511.35,231.41,-763.484,0,0
243771.675,230.327,-760.265,0,0
244032.0,229.536,-757.19,0,0
244292.325,228.891,-754.392,0,0
244552.65,228.138,-751.873,0,0
244812.975,227.302,-749.458,0,0
245073.3,226.078,-747.107,0,0
245333.625,225.001,-744.736,0,0
245593.95,223.94,-742.338,0,0
245854.275,222.919,-739.851,0,0
246114.6,221.867,-737.34,0,0
246374.925,220.942,-734.868,0,0
246635.25,220.064,-732.412,0,0
246895.575,219.227,-730.061,0,0
247155.9,218.427,-727.809,0,0
247416.225,217.469,-725.385,0,0
247676.55,216.604,-723,0,0
247936.875,215.864,-720.535,0,0
248197.2,215.072,-718.029,0,0
248457.525,214.473,-715.392,0,0
248717.85,214.157,-712.756,0,0
248978.175,214.094,-710.308,0,0
249238.5,214.138,-708.159,0,0
249498.825,214.138,-706.179,0,0
249759.15,214.117,-704.372,0,0
250019.475,214.085,-702.646,0,0
250279.8,214.169,-701.119,0,0
250540,214.113,-699.778,0,0
250800,213.889,-698.643,0,0
251061,213.51,-697.576,0,0
251321,212.863,-696.764,0,0
251581,211.938,-695.804,0,0
251842,210.748,-694.783,0,0
252102,209.476,-693.485,0,0
252362,208.046,-692.059,0,0
252623,206.476,-690.461,0,0
252883,204.855,-688.617,0,0
253143,203.281,-686.484,0,0
253404,201.719,-684.165,0,0
253664,200.277,-681.512,0,0
253924,199.011,-678.72,0,0
254185,197.968,-675.725,0,0
254445,197.152,-672.605,0,0
254705,196.522,-669.481,0,0
254966,196.059,-666.191,0,0
255226,195.861,-662.909,0,0
255486,195.825,-659.533,0,0
255747,196.078,-656.061,0,0
256007,196.602,-652.544,0,0
256267,197.574,-649.031,0,0
256528,198.927,-645.752,0,0
256788,200.495,-642.756,0,0
257048,202.289,-639.967,0,0
257309,204.308,-637.474,0,0
257569,206.439,-635.288,0,0
257829,208.616,-633.436,0,0
258090,210.726,-631.934,0,0
258350,212.639,-630.626,0,0
258610,214.377,-629.402,0,0
258871,215.989,-628.082,0,0
259131,217.66,-626.611,0,0
259391,219.564,-625.009,0,0
259651,221.816,-623.457,0,0
259912,224.413,-622.11,0,0
260172,227.466,-621.118,0,0
260432,230.556,-620.724,0,0
260693,233.6,-620.776,0,0
260953,236.527,-621.221,0,0
261213,239.491,-621.878,0,0
261474,242.414,-623.003,0,0
261734,245.176,-624.653,0,0
261994,247.616,-626.742,0,0
262255,249.684,-629.195,0,0
262515,251.341,-631.908,0,0
262775,252.495,-634.869,0,0
263036,253.159,-637.934,0,0
263296,253.305,-640.941,0,0
263556,253.1,-643.916,0,0
263817,252.52,-646.825,0,0
264077,251.613,-649.644,0,0
264337,250.298,-652.347,0,0
264598,248.708,-654.863,0,0
264858,246.83,-657.217,0,0
265118,244.74,-659.352,0,0
265379,242.243,-661.396,0,0
265639,239.447,-663.094,0,0
265899,236.357,-664.398,0,0
266160,233.114,-665.278,0,0
266420,229.89,-665.674,0,0
266680.25,226.722,-665.71,0,0
266940.575,223.535,-665.455,0,0
267200.9,220.485,-664.831,0,0
267461.225,217.517,-663.936,0,0
267721.55,214.741,-662.746,0,0
267981.875,212.202,-661.305,0,0
268242.2,209.907,-659.689,0,0
268502.525,207.807,-657.943,0,0
268762.85,205.951,-656.177,0,0
269023.175,204.258,-654.442,0,0
269283.5,202.642,-652.561,0,0
269543.825,201.193,-650.565,0,0
269804.15,200.067,-648.496,0,0
270064.475,199.072,-646.536,0,0
270324.8,198.282,-644.659,0,0
270585.125,197.514,-642.842,0,0
270845.45,196.814,-640.931,0,0
271105.775,196.319,-639.048,0,0
271366.1,195.903,-637.239,0,0
271626.425,195.642,-635.483,0,0
271886.75,195.424,-633.772,0,0
272147.075,195.307,-632.104,0,0
272407.4,195.264,-630.462,0,0
272667.725,195.435,-628.94,0,0
272928.05,195.645,-627.649,0,0
273188.375,195.675,-626.5,0,0
273448.7,195.657,-625.347,0,0
273709.025,195.483,-624.11,0,0
273969.35,195.407,-622.794,0,0
274229.675,195.33,-621.369,0,0
274490.0,195.365,-619.811,0,0
274750.325,195.64,-618.227,0,0
275010.65,196.093,-616.608,0,0
275270.975,196.654,-615.121,0,0
275531.3,197.416,-613.719,0,0
275791.625,198.306,-612.28,0,0
276051.95,199.306,-611.021,0,0
276312.275,200.472,-609.844,0,0
276572.6,201.853,-608.771,0,0
276832.925,203.43,-607.924,0,0
277093.25,205.16,-607.354,0,0
277353.575,206.986,-607.147,0,0
277613.9,208.799,-607.304,0,0
277874.225,210.458,-607.829,0,0
278134.55,211.939,-608.537,0,0
278394.875,213.283,-609.541,0,0
278655.2,214.429,-610.721,0,0
278915.525,215.4,-612.1,0,0
279175.85,216.15,-613.671,0,0
279436.175,216.592,-615.467,0,0
279696.5,216.645,-617.321,0,0
279956.825,216.283,-619.178,0,0
280217.15,215.657,-620.898,0,0
280477.475,214.696,-622.455,0,0
280737.8,213.528,-623.791,0,0
280998.125,212.207,-624.875,0,0
281258.45,210.918,-625.741,0,0
281518.775,209.63,-626.427,0,0
281779.1,208.389,-627.09,0,0
282039.425,207.114,-627.73,0,0
282299.75,205.783,-628.308,0,0
282560,204.394,-628.904,0,0
282820,202.815,-629.383,0,0
283081,201.153,-629.757,0,0
283341,199.379,-629.945,0,0
283601,197.608,-629.938,0,0
283862,195.87,-629.742,0,0
284122,194.195,-629.418,0,0
284382,192.617,-629.005,0,0
284643,191.107,-628.491,0,0
284903,189.623,-627.998,0,0
285163,188.078,-627.464,0,0
285424,186.538,-626.843,0,0
285684,184.987,-626.118,0,0
285944,183.476,-625.232,0,0
286205,182.031,-624.213,0,0
286465,180.659,-623.106,0,0
286725,179.303,-621.85,0,0
286986,178.129,-620.432,0,0
287246,177.141,-618.887,0,0
287506,176.374,-617.309,0,0
287767,175.867,-615.704,0,0
288027,175.555,-614.198,0,0
288287,175.459,-612.797,0,0
288548,175.466,-611.552,0,0
288808,175.585,-610.439,0,0
289068,175.822,-609.489,0,0
289329,176.074,-608.727,0,0
289589,176.35,-608.196,0,0
289849,176.49,-607.862,0,0
290109,176.459,-607.565,0,0
290370,176.377,-607.343,0,0
290630,176.147,-607.102,0,0
290890,175.883,-606.864,0,0
291151,175.538,-606.641,0,0
291411,175.145,-606.415,0,0
291671,174.654,-606.162,0,0
291932,174.109,-605.869,0,0
292192,173.507,-605.487,0,0
292452,172.872,-604.994,0,0
292713,172.279,-604.416,0,0
292973,171.688,-603.747,0,0
293233,171.199,-603.016,0,0
293494,170.789,-602.162,0,0
293754,170.529,-601.266,0,0
294014,170.465,-600.367,0,0
294275,170.508,-599.571,0,0
294535,170.681,-598.868,0,0
294795,170.91,-598.281,0,0
295056,171.226,-597.775,0,0
295316,171.603,-597.422,0,0
295576,172.059,-597.205,0,0
295837,172.504,-597.192,0,0
296097,172.875,-597.393,0,0
296357,173.102,-597.729,0,0
296618,173.229,-598.133,0,0
296878,173.252,-598.609,0,0
297138,173.154,-599.147,0,0
297399,172.978,-599.753,0,0
297659,172.676,-600.407,0,0
297919,172.246,-601.117,0,0
298180,171.636,-601.834,0,0
298440,170.892,-602.527,0,0
298700.2,169.972,-603.151,0,0
298960.525,168.927,-603.691,0,0
299220.85,167.819,-604.113,0,0
299481.175,166.649,-604.436,0,0
299741.5,165.489,-604.656,0,0
300001.825,164.301,-604.849,0,0
300262.15,163.102,-604.98,0,0
300522.475,161.839,-605.073,0,0
300782.8,160.551,-605.103,0,0
301043.125,159.225,-605.1,0,0
301303.45,157.873,-604.99,0,0
301563.775,156.508,-604.857,0,0
301824.1,155.107,-604.629,0,0
302084.425,153.684,-604.306,0,0
302344.75,152.269,-603.945,0,0
302605.075,150.846,-603.445,0,0
302865.4,149.486,-602.88,0,0
303125.725,148.146,-602.244,0,0
303386.05,146.862,-601.593,0,0
303646.375,145.591,-600.854,0,0
303906.7,144.377,-600.129,0,0
304167.025,143.163,-599.35,0,0
304427.35,141.957,-598.495,0,0
304687.675,140.802,-597.585,0,0
304948.0,139.744,-596.655,0,0
305208.325,138.707,-595.65,0,0
305468.65,137.747,-594.638,0,0
305728.975,136.837,-593.654,0,0
305989.3,135.965,-592.644,0,0
306249.625,135.109,-591.62,0,0
306509.95,134.32,-590.574,0,0
306770.275,133.57,-589.505,0,0
307030.6,132.907,-588.428,0,0
307290.925,132.31,-587.346,0,0
307551.25,131.785,-586.282,0,0
307811.575,131.326,-585.25,0,0
308071.9,130.943,-584.262,0,0
308332.225,130.621,-583.361,0,0
308592.55,130.328,-582.531,0,0
308852.875,130.019,-581.823,0,0
309113.2,129.699,-581.173,0,0
309373.525,129.344,-580.588,0,0
309633.85,128.929,-580.043,0,0
309894.175,128.463,-579.526,0,0
310154.5,127.901,-579.007,0,0
310414.825,127.309,-578.513,0,0
310675.15,126.668,-577.978,0,0
310935.475,125.973,-577.427,0,0
311195.8,125.27,-576.831,0,0
311456.125,124.542,-576.184,0,0
311716.45,123.808,-575.527,0,0
311976.775,123.075,-574.844,0,0
312237.1,122.323,-574.176,0,0
312497.425,121.509,-573.473,0,0
312757.75,120.66,-572.719,0,0
313018.075,119.767,-571.871,0,0
313278.4,118.864,-570.942,0,0
313538.725,117.999,-569.877,0,0
313799.05,117.185,-568.741,0,0
314059.375,116.431,-567.536,0,0
314319.7,115.775,-566.287,0,0
314580,115.205,-564.976,0,0
314840,114.661,-563.652,0,0
315101,114.353,-562.237,0,0
315361,114.03,-560.883,0,0
315621,113.936,-559.532,0,0
315882,113.877,-558.195,0,0
316142,113.955,-556.916,0,0
316402,114.002,-555.754,0,0
316663,114.29,-554.707,0,0
316923,114.431,-553.731,0,0
317183,114.731,-552.804,0,0
317444,115.062,-551.936,0,0
317704,115.309,-551.355,0,0
317964,115.567,-550.708,0,0
318225,115.742,-550.167,0,0
318485,115.805,-549.672,0,0
318745,115.91,-549.202,0,0
319006,115.938,-548.74,0,0
319266,115.932,-548.195,0,0
319526,115.918,-547.741,0,0
319787,115.908,-547.269,0,0
320047,115.836,-546.818,0,0
320307,115.786,-546.36,0,0
320567,115.659,-545.912,0,0
320828,115.633,-545.348,0,0
321088,115.645,-544.762,0,0
321348,115.676,-544.285,0,0
321609,115.778,-543.775,0,0
321869,115.882,-543.367,0,0
322129,116.063,-543.013,0,0
322390,116.216,-542.728,0,0
322650,116.345,-542.512,0,0
322910,116.507,-542.395,0,0
323171,116.577,-542.346,0,0
323431,116.616,-542.349,0,0
323691,116.612,-542.429,0,0
323952,116.506,-542.517,0,0
324212,116.333,-542.671,0,0
324472,116.061,-542.927,0,0
324733,115.693,-543.07,0,0
324993,115.311,-543.264,0,0
325253,114.737,-543.414,0,0
325514,114.17,-543.554,0,0
325774,113.566,-543.595,0,0
326034,112.732,-543.686,0,0
326295,112.058,-543.658,0,0
326555,111.233,-543.586,0,0
326815,110.344,-543.53,0,0
327076,109.568,-543.35,0,0
327336,108.66,-543.126,0,0
327596,107.831,-542.844,0,0
327857,106.884,-542.436,0,0
328117,106.028,-542.071,0,0
328377,105.186,-541.668,0,0
328638,104.388,-541.071,0,0
328898,103.651,-540.687,0,0
329158,102.916,-540.169,0,0
329419,102.173,-539.768,0,0
329679,101.301,-539.297,0,0
329939,100.508,-538.827,0,0
330200,99.7536,-538.361,0,0
330460,98.9335,-537.877,0,0
330720.15,98.1121,-537.351,0,0
330980.475,97.285,-536.77,0,0
331240.8,96.4151,-536.354,0,0
331501.125,95.5699,-535.74,0,0
331761.45,94.7045,-535.112,0,0
332021.775,93.7475,-534.459,0,0
332282.1,92.7881,-533.736,0,0
332542.425,91.9117,-533.039,0,0
332802.75,91.031,-532.223,0,0
333063.075,90.1088,-531.419,0,0
333323.4,89.2672,-530.54,0,0
333583.725,88.3961,-529.69,0,0
333844.05,87.4882,-528.781,0,0
334104.375,86.6236,-527.889,0,0
334364.7,85.823,-526.852,0,0
334625.025,85.0137,-525.788,0,0
334885.35,84.2031,-524.695,0,0
335145.675,83.4053,-523.534,0,0
335406.0,82.7063,-522.336,0,0
335666.325,82.0903,-521.129,0,0
335926.65,81.4799,-519.96,0,0
336186.975,80.8484,-518.734,0,0
336447.3,80.3548,-517.503,0,0
336707.625,79.8721,-516.202,0,0
336967.95,79.5009,-514.951,0,0
337228.275,79.1375,-513.736,0,0
337488.6,78.8102,-512.561,0,0
337748.925,78.4858,-511.328,0,0
338009.25,78.1319,-510.04,0,0
338269.575,77.7669,-508.938,0,0
338529.9,77.4911,-507.665,0,0
338790.225,77.2507,-506.38,0,0
339050.55,77.0201,-505.125,0,0
339310.875,76.895,-503.782,0,0
339571.2,76.7421,-502.428,0,0
339831.525,76.6871,-501.094,0,0
340091.85,76.6562,-499.767,0,0
340352.175,76.7914,-498.401,0,0
340612.5,76.9472,-497.089,0,0
340872.825,77.2097,-495.831,0,0
341133.15,77.5669,-494.628,0,0
341393.475,77.9102,-493.516,0,0
341653.8,78.3833,-492.427,0,0
341914.125,78.8108,-491.405,0,0
342174.45,79.3069,-490.49,0,0
342434.775,79.8115,-489.645,0,0
342695.1,80.3599,-488.9,0,0
342955.425,80.8625,-488.185,0,0
343215.75,81.318,-487.619,0,0
343476.075,81.7582,-487.144,0,0
343736.4,82.1122,-486.716,0,0
343996.725,82.5061,-486.325,0,0
344257.05,82.815,-485.992,0,0
344517.375,82.9547,-485.656,0,0
344777.7,83.0995,-485.347,0,0
345038.025,83.2041,-484.959,0,0
345298.35,83.2279,-484.622,0,0
345558.675,83.2301,-484.293,0,0
345819.0,83.192,-483.967,0,0
346079.325,83.1045,-483.552,0,0
346339.65,82.981,-483.187,0,0
346599.975,82.8575,-482.727,0,0
346860,82.6992,-482.342,0,0
347121,82.5602,-481.817,0,0
347381,82.4496,-481.273,0,0
347641,82.2428,-480.752,0,0
347902,82.1015,-480.136,0,0
348162,81.9336,-479.514,0,0
348422,81.8535,-478.836,0,0
348683,81.7664,-478.267,0,0
348943,81.7074,-477.531,0,0
349203,81.6363,-476.837,0,0
349464,81.6614,-476.127,0,0
349724,81.7305,-475.469,0,0
349984,81.7735,-474.797,0,0
350245,81.9015,-474.114,0,0
350505,82.0843,-473.463,0,0
350765,82.2144,-472.872,0,0
351025,82.4917,-472.255,0,0
351286,82.7718,-471.799,0,0
351546,83.0098,-471.301,0,0
351806,83.3238,-470.955,0,0
352067,83.5858,-470.692,0,0
352327,83.838,-470.471,0,0
352587,83.9885,-470.292,0,0
352848,84.1078,-470.169,0,0
353108,84.1013,-470.098,0,0
353368,84.0833,-470.067,0,0
353629,83.9479,-470.013,0,0
353889,83.7443,-469.947,0,0
354149,83.4792,-469.834,0,0
354410,83.081,-469.687,0,0
354670,82.7046,-469.467,0,0
354930,82.219,-469.196,0,0
355191,81.7679,-468.822,0,0
355451,81.3473,-468.361,0,0
355711,80.8903,-467.92,0,0
355972,80.4967,-467.35,0,0
356232,80.1032,-466.777,0,0
356492,79.8086,-466.235,0,0
356753,79.4982,-465.593,0,0
357013,79.1986,-464.96,0,0
357273,78.8701,-464.419,0,0
357534,78.6528,-463.789,0,0
357794,78.4081,-463.149,0,0
358054,78.1636,-462.466,0,0
358315,77.9619,-461.894,0,0
358575,77.6875,-461.213,0,0
358835,77.5011,-460.573,0,0
359096,77.3423,-459.843,0,0
359356,77.1327,-459.141,0,0
359616,77.0177,-458.403,0,0
359877,76.8995,-457.701,0,0
360137,76.8102,-456.997,0,0
360397,76.7328,-456.328,0,0
360658,76.7612,-455.619,0,0
360918,76.6529,-454.897,0,0
361178,76.676,-454.27,0,0
361438,76.6819,-453.532,0,0
361699,76.7047,-452.939,0,0
361959,76.7723,-452.208,0,0
362219,76.7841,-451.638,0,0
362480,76.8619,-450.912,0,0
362740.1,76.9406,-450.407,0,0
363000.425,76.9917,-449.706,0,0
363260.75,77.1314,-449.12,0,0
363521.075,77.2213,-448.507,0,0
363781.4,77.3906,-447.886,0,0
364041.725,77.6221,-447.326,0,0
364302.05,77.8178,-446.762,0,0
364562.375,78.1007,-446.2,0,0
364822.7,78.3356,-445.785,0,0
365083.025,78.7002,-445.441,0,0
365343.35,79.0504,-445.102,0,0
365603.675,79.2651,-444.947,0,0
365864.0,79.5264,-444.761,0,0
366124.325,79.7513,-444.688,0,0
366384.65,79.7911,-444.701,0,0
366644.975,79.7992,-444.845,0,0
366905.3,79.6176,-444.827,0,0
367165.625,79.3284,-444.913,0,0
367425.95,78.9374,-444.893,0,0
367686.275,78.4289,-444.771,0,0
367946.6,77.8889,-444.534,0,0
368206.925,77.3299,-444.215,0,0
368467.25,76.7402,-443.752,0,0
368727.575,76.1852,-443.222,0,0
368987.9,75.6115,-442.555,0,0
369248.225,75.0746,-441.741,0,0
369508.55,74.6941,-440.827,0,0
369768.875,74.3743,-439.802,0,0
370029.2,74.2908,-438.779,0,0
370289.525,74.2989,-437.794,0,0
370549.85,74.4579,-436.838,0,0
370810.175,74.7726,-435.997,0,0
371070.5,75.1046,-435.23,0,0
371330.825,75.516,-434.619,0,0
371591.15,75.9513,-434.115,0,0
371851.475,76.3542,-433.866,0,0
372111.8,76.638,-433.637,0,0
372372.125,76.8729,-433.475,0,0
372632.45,76.9764,-433.358,0,0
372892.775,77.0159,-433.296,0,0
373153.1,76.9789,-433.207,0,0
373413.425,76.7732,-433.069,0,0
373673.75,76.5656,-432.883,0,0
373934.075,76.2934,-432.595,0,0
374194.4,75.9697,-432.383,0,0
374454.725,75.6725,-432.002,0,0
374715.05,75.3171,-431.624,0,0
374975.375,74.9878,-431.224,0,0
375235.7,74.6726,-430.69,0,0
375496.025,74.2901,-430.163,0,0
375756.35,73.9951,-429.529,0,0
376016.675,73.7077,-428.849,0,0
376277.0,73.4581,-428.192,0,0
376537.325,73.2699,-427.431,0,0
376797.65,73.1008,-426.691,0,0
377057.975,73.0398,-425.931,0,0
377318.3,73.0308,-425.078,0,0
377578.625,73.0823,-424.36,0,0
377838.95,73.2254,-423.609,0,0
378099.275,73.3446,-422.96,0,0
378359.6,73.5188,-422.335,0,0
378619.925,73.7044,-421.724,0,0
378880,73.8863,-421.213,0,0
379141,74.0736,-420.628,0,0
379401,74.2484,-420.136,0,0
379661,74.478,-419.705,0,0
379922,74.68,-419.264,0,0
380182,74.832,-418.837,0,0
380442,74.9857,-418.469,0,0
380703,75.1515,-418.15,0,0
380963,75.245,-417.759,0,0
381223,75.4177,-417.409,0,0
381483,75.4892,-417.054,0,0
381744,75.6557,-416.737,0,0
382004,75.7817,-416.41,0,0
382264,75.895,-416.226,0,0
382525,76.009,-415.942,0,0
382785,76.072,-415.751,0,0
383045,76.0964,-415.608,0,0
383306,76.0553,-415.394,0,0
383566,75.9741,-415.284,0,0
383826,75.9253,-415.041,0,0
384087,75.7093,-414.863,0,0
384347,75.5113,-414.617,0,0
384607,75.2508,-414.443,0,0
384868,75.0624,-414.139,0,0
385128,74.7868,-413.811,0,0
385388,74.5025,-413.473,0,0
385649,74.1941,-413.037,0,0
385909,73.9166,-412.605,0,0
386169,73.6433,-412.162,0,0
386430,73.3415,-411.668,0,0
386690,73.0921,-411.116,0,0
386950,72.835,-410.593,0,0
387211,72.6469,-409.957,0,0
387471,72.4072,-409.368,0,0
387731,72.2525,-408.734,0,0
387992,72.0676,-408.151,0,0
388252,71.9201,-407.478,0,0
388512,71.7693,-406.829,0,0
388773,71.6471,-406.088,0,0
389033,71.5525,-405.427,0,0
389293,71.462,-404.709,0,0
389554,71.4041,-403.957,0,0
389814,71.3903,-403.183,0,0
390074,71.4394,-402.437,0,0
390335,71.4847,-401.692,0,0
390595,71.5595,-400.919,0,0
390855,71.7514,-400.13,0,0
391116,71.935,-399.35,0,0
391376,72.1639,-398.611,0,0
391636,72.3684,-397.93,0,0
391896,72.7185,-397.201,0,0
392157,73.0537,-396.503,0,0
392417,73.365,-395.859,0,0
392677,73.7948,-395.232,0,0
392938,74.2611,-394.635,0,0
393198,74.6773,-394.107,0,0
393458,75.1829,-393.608,0,0
393719,75.6299,-393.198,0,0
393979,76.157,-392.76,0,0
394239,76.6476,-392.447,0,0
394500,77.1491,-392.126,0,0
394760.05,77.6147,-391.896,0,0
395020.375,78.0465,-391.672,0,0
395280.7,78.4882,-391.487,0,0
395541.025,78.9482,-391.368,0,0
395801.35,79.3353,-391.251,0,0
396061.675,79.7355,-391.182,0,0
396322.0,80.081,-391.189,0,0
396582.325,80.4256,-391.182,0,0
396842.65,80.7092,-391.221,0,0
397102.975,80.956,-391.263,0,0
397363.3,81.1764,-391.353,0,0
397623.625,81.3794,-391.438,0,0
397883.95,81.5402,-391.568,0,0
398144.275,81.6277,-391.695,0,0
398404.6,81.6776,-391.857,0,0
398664.925,81.6275,-392.05,0,0
398925.25,81.5528,-392.227,0,0
399185.575,81.3851,-392.356,0,0
399445.9,81.2329,-392.421,0,0
399706.225,80.9736,-392.494,0,0
399966.55,80.7207,-392.479,0,0
400006.6,80.6866,-392.461,0,0