File: Accelerated corrosion test data/2025-10-02_06-00-03/sample_1.csv
Frequency (Hz),Impedance (ohms),Phase (Radians),Temperature (C),Humidity (%)
10000.0,240.531,-12236.2,0,0
10260.325,243.715,-11921.1,0,0
10520.65,230.2,-11641.8,0,0
10780.975,225.576,-11357,0,0
11041.3,219.964,-11095.9,0,0
11301.625,214.701,-10838.4,0,0
11561.95,213.193,-10594.7,0,0
11822.275,209.78,-10354.5,0,0
12082.6,226.822,-10121.3,0,0
12342.925,213.666,-9947.85,0,0
12603.25,200.189,-9736.3,0,0
12863.575,192.889,-9534.07,0,0
13123.9,199.068,-9340.69,0,0
13384.225,187.217,-9168.33,0,0
13644.55,182.398,-8987.41,0,0
13904.875,186.777,-8809.5,0,0
14165.2,189.899,-8669.56,0,0
14425.525,217.799,-8507.87,0,0
14685.8,205.501,-8339.29,0,0
14946.175,178.781,-8240.76,0,0
15206.5,182.145,-8079.02,0,0
15466.825,177.812,-7952.14,0,0
15727.15,171.427,-7831.76,0,0
15987.5,161.12,-7697.14,0,0
16247.8,159.113,-7571.54,0,0
16508.125,158.153,-7448.22,0,0
16768.45,161.854,-7331.24,0,0
17028.775,165.125,-7225.13,0,0
17289.1,153.003,-7119.26,0,0
17549.425,154.228,-7013.07,0,0
17809.75,151.417,-6912.95,0,0
18070.075,147.52,-6813.41,0,0
18330.4,140.734,-6715.25,0,0
18590.725,138.632,-6620.22,0,0
18851.05,138.751,-6522.76,0,0
19111.375,136.361,-6440.62,0,0
19371.7,133.463,-6348.4,0,0
19632.025,132.717,-6259.56,0,0
19892.35,134.286,-6173.47,0,0
20152.675,137.082,-6085.52,0,0
20413.0,156.437,-5997.97,0,0
20673.3,168.624,-5956.85,0,0
20933.65,152.032,-5887.69,0,0
21193.975,158.194,-5821.47,0,0
21454.3,147.323,-5749.29,0,0
21714.625,138.744,-5684.21,0,0
21974.9,135.887,-5596.04,0,0
22235.275,176.278,-5550.91,0,0
22495.6,143.094,-5512.95,0,0
22755.925,127.979,-5442.89,0,0
23016.25,123.221,-5375.65,0,0
23276.6,119.53,-5314.56,0,0
23536.9,115.884,-5253.65,0,0
23797.225,112.524,-5192.1,0,0
24057.55,115.445,-5130.87,0,0
24317.875,112.971,-5082.56,0,0
24578.2,111.77,-5022.8,0,0
24838.525,110.875,-4972.53,0,0
25098.85,111.866,-4918.26,0,0
25359.175,106.808,-4869.44,0,0
25619.5,104.771,-4817.98,0,0
25879.8,103.821,-4766,0,0
26140.1,104.192,-4716.61,0,0
26400.5,103.133,-4666.48,0,0
26660.8,105.65,-4616.12,0,0
26921.1,114.49,-4569.35,0,0
27181.4,120.478,-4533.43,0,0
27441.8,113.519,-4501.33,0,0
27702.1,104.752,-4451.71,0,0
27962.4,112.127,-4402.38,0,0
28222.7,111.309,-4364.44,0,0
28483.1,122.137,-4319.18,0,0
28743.4,132.84,-4301.73,0,0
29003.7,116.908,-4268.49,0,0
29264,119.85,-4231.04,0,0
29524.4,107.813,-4197,0,0
29784.7,105.875,-4155.21,0,0
30045,102.229,-4122.99,0,0
30305.3,100.142,-4083.69,0,0
30565.7,97.9223,-4045.35,0,0
30826,101.285,-4010.38,0,0
31086.3,104.502,-3982.04,0,0
31346.6,99.4145,-3952.73,0,0
31607,94.1018,-3915.73,0,0
31867.3,97.4515,-3881.45,0,0
32127.6,98.9986,-3850.89,0,0
32387.9,97.8909,-3825.62,0,0
32648.3,93.0041,-3793.36,0,0
32908.6,95.7035,-3764.15,0,0
33168.9,91.1373,-3735.92,0,0
33429.2,88.9643,-3707.04,0,0
33689.6,86.4049,-3677.26,0,0
33949.9,85.6942,-3646.4,0,0
34210.2,87.1812,-3619.9,0,0
34470.5,84.3959,-3592.9,0,0
34730.9,82.6017,-3565.05,0,0
34991.2,81.7236,-3537.97,0,0
35251.5,80.8556,-3510.94,0,0
35511.8,80.0527,-3484.59,0,0
35772.2,79.7417,-3459.59,0,0
36032.5,78.4115,-3433.62,0,0
36292.8,77.6469,-3408.13,0,0
36553.1,76.9139,-3383.09,0,0
36813.5,76.7033,-3358.54,0,0
37073.8,76.5571,-3334.75,0,0
37334.1,75.5446,-3310.94,0,0
37594.4,75.5373,-3287.67,0,0
37854.8,74.4467,-3264.77,0,0
38115.1,73.8282,-3241.64,0,0
38375.4,73.9321,-3219.08,0,0
38635.7,73.2052,-3197.27,0,0
38896.1,72.5682,-3174.89,0,0
39156.4,72.7675,-3152.87,0,0
39416.7,72.7188,-3132.68,0,0
39677,71.5381,-3111.16,0,0
39937.4,71.4836,-3090.12,0,0
40197.7,71.6766,-3069.82,0,0
40458,71.2476,-3049.31,0,0
40718.3,71.3833,-3028.26,0,0
40978.7,72.7394,-3009.26,0,0
41239,72.4953,-2990.7,0,0
41499.3,71.8132,-2973.21,0,0
41759.6,70.8073,-2954.18,0,0
42020,70.2654,-2934.58,0,0
42280.275,70.6904,-2916.05,0,0
42540.6,71.5255,-2898.87,0,0
42800.925,70.6184,-2881.69,0,0
43061.25,69.5815,-2863.61,0,0
43321.575,69.1943,-2846.26,0,0
43581.9,68.6151,-2828.94,0,0
43842.225,68.0369,-2811.05,0,0
44102.55,68.4004,-2793.62,0,0
44362.875,69.1128,-2776.72,0,0
44623.2,69.539,-2761.28,0,0
44883.525,68.8701,-2745.5,0,0
45143.85,69.0379,-2729.3,0,0
45404.175,69.3241,-2714.16,0,0
45664.5,68.2565,-2699.04,0,0
45924.825,67.5188,-2683.6,0,0
46185.15,66.844,-2668.63,0,0
46445.475,66.0102,-2653.13,0,0
46705.8,65.5923,-2637.8,0,0
46966.125,65.2025,-2622.85,0,0
47226.45,64.9205,-2607.59,0,0
47486.775,65.0197,-2593.86,0,0
47747.1,64.4565,-2579.32,0,0
48007.425,63.7483,-2565.2,0,0
48267.75,63.8406,-2550.88,0,0
48528.075,62.9461,-2537.15,0,0
48788.4,62.1395,-2522.81,0,0
49048.725,62.0392,-2508.82,0,0
49309.05,61.8525,-2495.16,0,0
49569.375,61.3485,-2481.73,0,0
49829.7,61.2557,-2468.31,0,0
50090.025,60.8326,-2455.23,0,0
50350.35,60.2713,-2442.1,0,0
50610.675,59.893,-2428.8,0,0
50871.0,59.639,-2415.75,0,0
51131.325,59.6094,-2403.02,0,0
51391.65,59.6402,-2390.76,0,0
51651.975,59.0204,-2378.29,0,0
51912.3,58.7788,-2365.66,0,0
52172.625,58.693,-2353.45,0,0
52432.95,58.2285,-2341.19,0,0
52693.275,58.1293,-2329.28,0,0
52953.6,58.0963,-2317.1,0,0
53213.925,58.1517,-2305.39,0,0
53474.25,57.7527,-2293.92,0,0
53734.575,57.7668,-2282.39,0,0
53994.9,57.7197,-2271.1,0,0
54255.225,57.3278,-2259.96,0,0
54515.55,56.8598,-2248.74,0,0
54775.875,56.5525,-2237.51,0,0
55036.2,56.236,-2226.09,0,0
55296.525,56.3332,-2215.02,0,0
55556.85,56.4368,-2204.48,0,0
55817.175,55.9107,-2193.91,0,0
56077.5,55.3838,-2183.07,0,0
56337.825,55.4977,-2172.21,0,0
56598.15,55.4236,-2161.83,0,0
56858.475,55.1415,-2151.49,0,0
57118.8,55.0567,-2141.02,0,0
57379.125,54.9629,-2130.6,0,0
57639.45,55.1864,-2120.58,0,0
57899.775,55.0189,-2110.55,0,0
58160.1,54.9901,-2100.72,0,0
58420.4,54.8922,-2090.86,0,0
58680.7,54.8338,-2081.04,0,0
58941.1,54.7083,-2071.24,0,0
59201.4,54.806,-2061.63,0,0
59461.7,54.7723,-2052.62,0,0
59722,54.5377,-2043.12,0,0
59982.4,54.5254,-2033.68,0,0
60242.7,54.3892,-2024.36,0,0
60503,54.61,-2015.11,0,0
60763.3,54.8749,-2006.45,0,0
61023.7,54.344,-1997.83,0,0
61284,53.9188,-1988.67,0,0
61544.3,53.7486,-1979.52,0,0
61804.6,54.0668,-1970.73,0,0
62065,53.6232,-1962.41,0,0
62325.3,53.1787,-1953.44,0,0
62585.6,53.075,-1944.53,0,0
62845.9,52.957,-1935.7,0,0
63106.3,53.122,-1927.14,0,0
63366.6,52.8888,-1918.67,0,0
63626.9,53.0419,-1910.03,0,0
63887.2,53.0725,-1901.64,0,0
64147.6,53.0787,-1893.23,0,0
64407.9,53.3389,-1885.01,0,0
64668.2,53.4905,-1876.58,0,0
64928.5,53.6404,-1868.35,0,0
65188.9,54.3409,-1860.1,0,0
65449.2,55.3707,-1852.55,0,0
65709.5,55.9121,-1845.56,0,0
65969.8,55.7255,-1838.7,0,0
66230.2,55.4887,-1831.45,0,0
66490.5,55.3254,-1823.92,0,0
66750.8,55.55,-1816.73,0,0
67011.1,54.863,-1809.93,0,0
67271.5,54.0226,-1801.71,0,0
67531.8,54.5782,-1794.06,0,0
67792.1,55.0526,-1787.47,0,0
68052.4,54.6955,-1780.9,0,0
68312.8,53.8788,-1773.72,0,0
68573.1,53.556,-1766.17,0,0
68833.4,53.9154,-1758.95,0,0
69093.7,53.747,-1752.24,0,0
69354.1,53.5489,-1745.59,0,0
69614.4,53.2117,-1738.93,0,0
69874.7,52.4831,-1731.98,0,0
70135,52.3345,-1725.06,0,0
70395.4,51.8317,-1718.3,0,0
70655.7,51.3639,-1711.24,0,0
70916,51.1208,-1704.32,0,0
71176.3,50.8698,-1697.48,0,0
71436.7,50.8878,-1690.98,0,0
71697,50.2467,-1684.45,0,0
71957.3,49.6907,-1677.56,0,0
72217.6,49.4029,-1670.48,0,0
72478,49.2182,-1663.83,0,0
72738.3,48.8634,-1656.96,0,0
72998.6,48.8841,-1650.13,0,0
73258.9,48.8138,-1643.39,0,0
73519.3,48.69,-1636.87,0,0
73779.6,48.6155,-1630.21,0,0
74039.9,48.6123,-1623.64,0,0
74300.225,48.6649,-1617.08,0,0
74560.55,48.6796,-1610.63,0,0
74820.875,48.8779,-1604.25,0,0
75081.2,49.0549,-1597.98,0,0
75341.525,48.8238,-1591.73,0,0
75601.85,48.8519,-1585.23,0,0
75862.175,49.095,-1578.86,0,0
76122.5,49.5794,-1572.67,0,0
76382.825,49.9455,-1566.81,0,0
76643.15,49.9289,-1560.98,0,0
76903.475,49.9309,-1554.89,0,0
77163.8,50.3191,-1548.9,0,0
77424.125,50.2988,-1543.17,0,0
77684.45,50.4895,-1537.2,0,0
77944.775,50.7802,-1531.24,0,0
78205.1,51.2306,-1525.44,0,0
78465.425,51.8094,-1519.89,0,0
78725.75,52.2344,-1514.63,0,0
78986.075,52.3481,-1509.49,0,0
79246.4,52.2368,-1504.32,0,0
79506.725,52.537,-1498.99,0,0
79767.05,52.1513,-1493.88,0,0
80027.375,51.9193,-1488.54,0,0
80287.7,51.4948,-1483.08,0,0
80548.025,51.3725,-1477.32,0,0
80808.35,51.343,-1471.87,0,0
81068.675,51.2903,-1466.29,0,0
81329.0,51.3201,-1460.84,0,0
81589.325,51.2868,-1455.4,0,0
81849.65,51.2686,-1449.96,0,0
82109.975,51.3168,-1444.57,0,0
82370.3,51.3007,-1439.24,0,0
82630.625,51.3534,-1433.76,0,0
82890.95,51.4573,-1428.26,0,0
83151.275,51.831,-1422.77,0,0
83411.6,52.1392,-1417.53,0,0
83671.925,52.3937,-1412.14,0,0
83932.25,52.8878,-1407.02,0,0
84192.575,53.2729,-1401.96,0,0
84452.9,53.6726,-1396.95,0,0
84713.225,53.9948,-1391.91,0,0
84973.55,54.4937,-1386.98,0,0
85233.875,54.8681,-1382.25,0,0
85494.2,55.0495,-1377.55,0,0
85754.525,55.2843,-1372.84,0,0
86014.85,55.4101,-1367.96,0,0
86275.175,55.8338,-1363.11,0,0
86535.5,56.0974,-1358.47,0,0
86795.825,56.2731,-1353.8,0,0
87056.15,56.5751,-1349.03,0,0
87316.475,56.9668,-1344.61,0,0
87576.8,56.8331,-1340.24,0,0
87837.125,56.7144,-1335.5,0,0
88097.45,56.787,-1330.68,0,0
88357.775,56.9052,-1325.76,0,0
88618.1,57.2574,-1320.79,0,0
88878.425,57.3544,-1316.16,0,0
89138.75,57.4669,-1311.24,0,0
89399.075,58.038,-1306.01,0,0
89659.4,58.6704,-1301.18,0,0
89919.725,59.2309,-1296.05,0,0
90180,60.4111,-1291.35,0,0
90440.4,61.4448,-1287.05,0,0
90700.7,61.8881,-1282.58,0,0
90961,62.7882,-1277.68,0,0
91221.3,64.0408,-1273.01,0,0
91481.7,65.4606,-1268.83,0,0
91742,66.8947,-1264.76,0,0
92002.3,68.2231,-1260.91,0,0
92262.6,69.4076,-1257.2,0,0
92523,70.7814,-1253.23,0,0
92783.3,72.5279,-1249.83,0,0
93043.6,74.0273,-1246.71,0,0
93303.9,76.009,-1243.78,0,0
93564.3,78.0638,-1241.8,0,0
93824.6,79.3691,-1241.22,0,0
94084.9,78.8948,-1240.87,0,0
94345.2,77.0184,-1239.6,0,0
94605.6,74.9192,-1236.62,0,0
94865.9,74.013,-1233.7,0,0
95126.2,72.0242,-1230.85,0,0
95386.5,70.6171,-1226.93,0,0
95646.9,69.1534,-1223.04,0,0
95907.2,68.0317,-1218.65,0,0
96167.5,67.4953,-1214.2,0,0
96427.8,67.4009,-1210.32,0,0
96688.2,66.5835,-1206.67,0,0
96948.5,65.7002,-1202.54,0,0
97208.8,65.079,-1198.05,0,0
97469.1,64.9674,-1193.54,0,0
97729.5,65.0492,-1189.43,0,0
97989.8,65.0505,-1185.48,0,0
98250.1,65.0082,-1181.81,0,0
98510.4,64.597,-1177.95,0,0
98770.8,64.2058,-1173.88,0,0
99031.1,64.0981,-1169.79,0,0
99291.4,63.96,-1165.71,0,0
99551.7,63.8157,-1161.57,0,0
99812.1,63.9249,-1157.38,0,0
100072,64.2423,-1153.48,0,0
100333,64.2146,-1149.64,0,0
100593,64.2395,-1145.74,0,0
100853,64.2437,-1141.87,0,0
101114,64.1593,-1138.02,0,0
101374,64.1383,-1134.17,0,0
101634,63.7244,-1130.31,0,0
101895,63.179,-1125.86,0,0
102155,63.0859,-1120.95,0,0
102415,63.791,-1116.02,0,0
102676,64.553,-1111.38,0,0
102936,65.5764,-1107.11,0,0
103196,66.5066,-1102.96,0,0
103457,67.4946,-1099,0,0
103717,68.1648,-1094.77,0,0
103977,69.4318,-1090.36,0,0
104238,71.1905,-1086.48,0,0
104498,72.7163,-1083.15,0,0
104758,73.8843,-1079.98,0,0
105019,75.012,-1076.69,0,0
105279,76.1685,-1073.26,0,0
105539,77.353,-1069.89,0,0
105800,78.7995,-1066.67,0,0
106060,80.0773,-1063.6,0,0
106320.175,81.4066,-1060.64,0,0
106580.5,82.8067,-1057.66,0,0
106840.825,84.402,-1054.98,0,0
107101.15,85.7941,-1052.64,0,0
107361.475,86.9862,-1050.44,0,0
107621.8,87.8766,-1048.25,0,0
107882.125,88.6592,-1045.82,0,0
108142.45,89.7551,-1043.32,0,0
108402.775,90.8216,-1040.99,0,0
108663.1,91.8883,-1038.91,0,0
108923.425,92.8058,-1037.08,0,0
109183.75,93.5591,-1035.4,0,0
109444.075,93.9891,-1033.64,0,0
109704.4,94.2669,-1031.83,0,0
109964.725,94.375,-1029.94,0,0
110225.05,94.4583,-1027.84,0,0
110485.375,94.4133,-1025.72,0,0
110745.7,94.4256,-1023.63,0,0
111006.025,94.4515,-1021.05,0,0
111266.35,94.791,-1018.61,0,0
111526.675,95.3083,-1016.07,0,0
111787.0,95.876,-1014.09,0,0
112047.325,96.2408,-1011.88,0,0
112307.65,96.7453,-1009.73,0,0
112567.975,97.3235,-1007.91,0,0
112828.3,97.7118,-1006.36,0,0
113088.625,97.9308,-1004.8,0,0
113348.95,98.0274,-1003.32,0,0
113609.275,97.9081,-1001.82,0,0
113869.6,97.5841,-1000.46,0,0
114129.925,97.1619,-999.006,0,0
114390.25,96.5053,-997.388,0,0
114650.575,95.7658,-995.666,0,0
114910.9,94.8256,-993.824,0,0
115171.225,94.0972,-991.878,0,0
115431.55,93.1525,-990.097,0,0
115691.875,91.9099,-988.071,0,0
115952.2,90.5728,-985.604,0,0
116212.525,89.5308,-983.044,0,0
116472.85,88.6012,-980.337,0,0
116733.175,87.7055,-977.655,0,0
116993.5,86.7337,-975.046,0,0
117253.825,85.8022,-972.134,0,0
117514.15,84.9892,-969.141,0,0
117774.475,84.2241,-966.127,0,0
118034.8,83.5992,-962.957,0,0
118295.125,83.0883,-959.761,0,0
118555.45,82.7523,-956.557,0,0
118815.775,82.5388,-953.417,0,0
119076.1,82.2745,-950.427,0,0
119336.425,82.2166,-947.294,0,0
119596.75,82.2209,-944.354,0,0
119857.075,82.1834,-941.469,0,0
120117.4,82.2046,-938.548,0,0
120377.725,82.3056,-935.736,0,0
120638.05,82.4092,-933.111,0,0
120898.375,82.444,-930.616,0,0
121158.7,82.3254,-928.038,0,0
121419.025,82.1588,-925.575,0,0
121679.35,81.8844,-923.227,0,0
121939.675,81.3408,-920.573,0,0
122200.0,80.9517,-917.759,0,0
122460,80.6231,-915.054,0,0
122721,80.0877,-912.127,0,0
122981,79.7407,-909.046,0,0
123241,79.6008,-905.928,0,0
123502,79.5322,-902.888,0,0
123762,79.4436,-899.936,0,0
124022,79.4009,-896.877,0,0
124283,79.3409,-893.795,0,0
124543,79.5692,-890.802,0,0
124803,79.6577,-887.931,0,0
125064,79.7062,-885.017,0,0
125324,79.8087,-882.039,0,0
125584,80.0082,-879.092,0,0
125845,80.2472,-876.206,0,0
126105,80.3929,-873.326,0,0
126365,80.6236,-870.42,0,0
126626,80.8342,-867.575,0,0
126886,81.0646,-864.707,0,0
127146,81.1803,-861.825,0,0
127406,81.3681,-858.87,0,0
127667,81.6019,-855.834,0,0
127927,81.9489,-852.758,0,0
128187,82.3968,-849.669,0,0
128448,83.0358,-846.627,0,0
128708,83.6417,-843.765,0,0
128968,84.2095,-840.967,0,0
129229,84.7443,-838.07,0,0
129489,85.3996,-835.166,0,0
129749,86.1348,-832.24,0,0
130010,86.9613,-829.332,0,0
130270,87.9334,-826.569,0,0
130530,88.9939,-823.914,0,0
130791,90.0869,-821.429,0,0
131051,91.1554,-819.066,0,0
131311,92.1178,-816.799,0,0
131572,93.0399,-814.639,0,0
131832,93.8359,-812.476,0,0
132092,94.6847,-810.33,0,0
132353,95.4282,-808.23,0,0
132613,96.1498,-806.108,0,0
132873,96.8865,-803.995,0,0
133134,97.6238,-801.944,0,0
133394,98.3221,-799.932,0,0
133654,98.9533,-797.905,0,0
133915,99.6441,-795.997,0,0
134175,100.094,-794.095,0,0
134435,100.501,-792.077,0,0
134696,100.908,-789.957,0,0
134956,101.308,-787.745,0,0
135216,101.815,-785.457,0,0
135477,102.593,-783.336,0,0
135737,103.194,-781.28,0,0
135997,103.823,-778.938,0,0
136258,104.638,-776.783,0,0
136518,105.553,-774.78,0,0
136778,106.387,-772.765,0,0
137039,107.266,-770.856,0,0
137299,108.173,-768.913,0,0
137559,109.304,-767.148,0,0
137819,110.424,-765.862,0,0
138080,111.231,-764.682,0,0
138340.125,111.817,-763.688,0,0
138600.45,112.001,-762.682,0,0
138860.775,111.948,-761.491,0,0
139121.1,111.816,-760.05,0,0
139381.425,111.708,-758.461,0,0
139641.75,111.653,-756.881,0,0
139902.075,111.415,-755.291,0,0
140162.4,111.041,-753.458,0,0
140422.725,110.807,-751.402,0,0
140683.05,110.694,-749.222,0,0
140943.375,110.706,-747.135,0,0
141203.7,110.684,-744.997,0,0
141464.025,110.768,-742.772,0,0
141724.35,110.869,-740.642,0,0
141984.675,110.945,-738.356,0,0
142245.0,111.323,-736.055,0,0
142505.325,111.686,-734.057,0,0
142765.65,111.844,-732.033,0,0
143025.975,112.131,-729.944,0,0
143286.3,112.329,-727.981,0,0
143546.625,112.332,-725.92,0,0
143806.95,112.343,-723.68,0,0
144067.275,112.368,-721.306,0,0
144327.6,112.696,-718.825,0,0
144587.925,113.061,-716.445,0,0
144848.25,113.428,-714.044,0,0
145108.575,113.945,-711.577,0,0
145368.9,114.608,-709.225,0,0
145629.225,115.326,-707.001,0,0
145889.55,116.062,-704.814,0,0
146149.875,116.74,-702.843,0,0
146410.2,117.275,-700.8,0,0
146670.525,117.913,-698.611,0,0
146930.85,118.875,-696.644,0,0
147191.175,119.508,-694.933,0,0
147451.5,120.014,-693.085,0,0
147711.825,120.652,-691.244,0,0
147972.15,121.227,-689.593,0,0
148232.475,121.618,-687.921,0,0
148492.8,121.926,-686.191,0,0
148753.125,122.113,-684.411,0,0
149013.45,122.279,-682.407,0,0
149273.775,122.625,-680.421,0,0
149534.1,122.955,-678.465,0,0
149794.425,123.344,-676.603,0,0
150054.75,123.593,-674.78,0,0
150315.075,123.793,-672.961,0,0
150575.4,123.873,-671.1,0,0
150835.725,123.849,-669.225,0,0
151096.05,123.626,-667.282,0,0
151356.375,123.349,-665.01,0,0
151616.7,123.155,-662.525,0,0
151877.025,123.1,-659.999,0,0
152137.35,123.068,-657.357,0,0
152397.675,123.046,-654.649,0,0
152658.0,123.055,-651.817,0,0
152918.325,123.16,-648.8,0,0
153178.65,123.581,-645.652,0,0
153438.975,124.107,-642.74,0,0
153699.3,124.461,-639.856,0,0
153959.625,124.686,-636.648,0,0
154219.95,125.172,-633.164,0,0
154480,125.841,-629.58,0,0
154741,126.793,-625.738,0,0
155001,128.312,-621.911,0,0
155261,130.091,-618.408,0,0
155522,131.875,-615.086,0,0
155782,133.889,-611.726,0,0
156042,136.085,-608.624,0,0
156303,138.313,-605.704,0,0
156563,140.53,-602.786,0,0
156823,143.02,-599.979,0,0
157084,145.645,-597.4,0,0
157344,148.281,-595.048,0,0
157604,150.956,-592.961,0,0
157864,153.554,-591.155,0,0
158125,155.929,-589.563,0,0
158385,157.82,-588.011,0,0
158645,159.533,-585.995,0,0
158906,161.367,-583.678,0,0
159166,163.666,-581.186,0,0
159426,166.213,-578.67,0,0
159687,168.968,-576.429,0,0
159947,171.743,-574.295,0,0
160207,174.618,-571.999,0,0
160468,178.114,-569.847,0,0
160728,181.83,-568.135,0,0
160988,185.788,-567.009,0,0
161249,189.446,-566.352,0,0
161509,192.802,-565.974,0,0
161769,195.868,-565.668,0,0
162030,198.908,-565.243,0,0
162290,201.995,-565.014,0,0
162550,204.918,-564.93,0,0
162811,207.707,-564.828,0,0
163071,210.558,-564.742,0,0
163331,213.499,-564.766,0,0
163592,216.554,-565.142,0,0
163852,219.229,-565.884,0,0
164112,221.47,-566.628,0,0
164373,223.437,-566.949,0,0
164633,225.776,-566.892,0,0
164893,228.556,-567.054,0,0
165154,231.513,-567.504,0,0
165414,234.722,-568.348,0,0
165674,237.914,-569.882,0,0
165935,240.679,-571.913,0,0
166195,243.051,-574.277,0,0
166455,244.964,-576.767,0,0
166716,246.514,-579.369,0,0
166976,247.62,-582.155,0,0
167236,248.089,-584.848,0,0
167497,248.195,-587.183,0,0
167757,248.338,-589.252,0,0
168017,248.38,-591.455,0,0
168277,247.996,-593.694,0,0
168538,247.252,-595.638,0,0
168798,246.402,-597.359,0,0
169058,245.421,-598.948,0,0
169319,244.276,-600.467,0,0
169579,242.713,-601.951,0,0
169839,240.731,-602.839,0,0
170100,238.913,-603.081,0,0
170360.075,237.325,-603.072,0,0
170620.4,235.932,-602.876,0,0
170880.725,234.706,-602.572,0,0
171141.05,233.704,-602.286,0,0
171401.375,232.668,-602.082,0,0
171661.7,231.659,-601.8,0,0
171922.025,230.6,-601.67,0,0
172182.35,229.188,-601.417,0,0
172442.675,227.75,-600.71,0,0
172703.0,226.548,-599.753,0,0
172963.325,225.455,-598.682,0,0
173223.65,224.541,-597.51,0,0
173483.975,223.772,-596.372,0,0
173744.3,222.95,-595.139,0,0
174004.625,222.343,-593.628,0,0
174264.95,222.108,-592.151,0,0
174525.275,222.127,-590.866,0,0
174785.6,222.161,-589.703,0,0
175045.925,222.35,-588.491,0,0
175306.25,222.822,-587.642,0,0
175566.575,223.262,-587.234,0,0
175826.9,223.316,-587.261,0,0
176087.225,222.793,-587.11,0,0
176347.55,222.244,-586.58,0,0
176607.875,221.853,-585.988,0,0
176868.2,221.501,-585.552,0,0
177128.525,220.901,-585.21,0,0
177388.85,219.988,-584.602,0,0
177649.175,219.241,-583.626,0,0
177909.5,218.848,-582.626,0,0
178169.825,218.508,-581.842,0,0
178430.15,218.089,-581.107,0,0
178690.475,217.731,-580.365,0,0
178950.8,217.39,-579.855,0,0
179211.125,216.898,-579.564,0,0
179471.45,216.015,-579.246,0,0
179731.775,215.124,-578.719,0,0
179992.1,214.194,-578.298,0,0
180252.425,212.919,-578.007,0,0
180512.75,211.207,-577.388,0,0
180773.075,209.532,-576.24,0,0
181033.4,208.133,-575.039,0,0
181293.725,206.668,-573.924,0,0
181554.05,205.007,-572.652,0,0
181814.375,203.405,-571.189,0,0
182074.7,201.693,-569.709,0,0
182335.025,199.764,-568.039,0,0
182595.35,197.747,-565.943,0,0
182855.675,195.803,-563.406,0,0
183116.0,194.156,-560.589,0,0
183376.325,192.804,-557.652,0,0
183636.65,191.68,-554.639,0,0
183896.975,190.699,-551.62,0,0
184157.3,189.846,-548.454,0,0
184417.625,189.258,-545.296,0,0
184677.95,188.772,-542.213,0,0
184938.275,188.343,-539.066,0,0
185198.6,188.048,-535.911,0,0
185458.925,187.912,-532.697,0,0
185719.25,187.865,-529.528,0,0
185979.575,187.997,-526.306,0,0
186239.9,188.264,-523.196,0,0
186500,188.609,-520.268,0,0
186761,188.857,-517.218,0,0
187021,189.154,-514.197,0,0
187281,189.472,-511.157,0,0
187542,190.074,-508.122,0,0
187802,190.656,-505.166,0,0
188062,191.193,-502.503,0,0
188322,191.455,-499.659,0,0
188583,191.785,-496.573,0,0
188843,192.169,-493.348,0,0
189103,192.786,-489.998,0,0
189364,193.497,-486.584,0,0
189624,194.385,-483.11,0,0
189884,195.637,-479.68,0,0
190145,196.865,-476.58,0,0
190405,198.085,-473.561,0,0
190665,199.287,-470.403,0,0
190926,200.576,-467.223,0,0
191186,202.001,-464.075,0,0
191446,203.349,-461.153,0,0
191707,204.69,-458.141,0,0
191967,206.019,-454.885,0,0
192227,207.679,-451.775,0,0
192488,209.247,-448.814,0,0
192748,210.628,-445.876,0,0
193008,211.927,-442.775,0,0
193269,213.348,-439.336,0,0
193529,214.882,-435.817,0,0
193789,216.751,-432.224,0,0
194050,218.82,-428.765,0,0
194310,220.809,-425.424,0,0
194570,222.808,-421.982,0,0
194831,224.893,-418.413,0,0
195091,227.207,-414.665,0,0
195351,229.729,-410.912,0,0
195612,232.511,-407.344,0,0
195872,235.402,-403.876,0,0
196132,238.262,-400.442,0,0
196393,241.185,-396.933,0,0
196653,244.223,-393.278,0,0
196913,247.646,-389.641,0,0
197174,251.274,-386.035,0,0
197434,255.125,-382.624,0,0
197694,259.105,-379.626,0,0
197955,262.98,-376.702,0,0
198215,266.785,-373.857,0,0
198475,270.595,-371.047,0,0
198735,274.436,-368.223,0,0
198996,278.204,-365.293,0,0
199256,282.145,-362.235,0,0
199516,286.258,-359.064,0,0
199777,290.459,-355.944,0,0
200037,294.805,-352.796,0,0
200297,299.119,-349.464,0,0
200558,303.858,-345.83,0,0
200818,309.112,-342.151,0,0
201078,314.691,-338.673,0,0
201339,320.661,-335.226,0,0
201599,327.057,-332.073,0,0
201859,333.711,-329.11,0,0
202120,340.488,-326.346,0,0
202380.025,347.666,-323.669,0,0
202640.35,355.141,-321.193,0,0
202900.675,363.067,-319.111,0,0
203161.0,371.051,-317.273,0,0
203421.325,379.371,-315.664,0,0
203681.65,388.185,-314.235,0,0
203941.975,397.358,-313.263,0,0
204202.3,406.923,-312.621,0,0
204462.625,417.21,-312.628,0,0
204722.95,427.929,-313.652,0,0
204983.275,438.669,-315.889,0,0
205243.6,449.197,-319.036,0,0
205503.925,459.441,-323.035,0,0
205764.25,469.44,-327.796,0,0
206024.575,478.691,-333.308,0,0
206284.9,487.43,-339.388,0,0
206545.225,495.699,-345.945,0,0
206805.55,503.426,-352.963,0,0
207065.875,510.587,-360.56,0,0
207326.2,517.015,-368.627,0,0
207586.525,522.563,-377.129,0,0
207846.85,527.141,-385.435,0,0
208107.175,531.139,-393.511,0,0
208367.5,534.781,-401.631,0,0
208627.825,537.886,-409.835,0,0
208888.15,540.414,-418.213,0,0
209148.475,542.078,-426.537,0,0
209408.8,542.873,-434.763,0,0
209669.125,542.765,-442.447,0,0
209929.45,542.213,-449.534,0,0
210189.775,541.207,-455.929,0,0
210450.1,539.918,-461.817,0,0
210710.425,538.405,-467.238,0,0
210970.75,536.5,-472.15,0,0
211231.075,534.271,-476.182,0,0
211491.4,532.042,-479.163,0,0
211751.725,530.334,-481.417,0,0
212012.05,528.929,-483.046,0,0
212272.375,528.237,-484.082,0,0
212532.7,528.341,-484.666,0,0
212793.025,529.407,-485.331,0,0
213053.35,531.083,-486.467,0,0
213313.675,533.011,-488.117,0,0
213574.0,534.951,-490.044,0,0
213834.325,536.943,-491.904,0,0
214094.65,539.255,-493.865,0,0
214354.975,541.983,-496.198,0,0
214615.3,544.904,-499.06,0,0
214875.625,547.556,-502.633,0,0
215135.95,549.649,-506.4,0,0
215396.275,551.406,-510.205,0,0
215656.6,553.044,-513.994,0,0
215916.925,554.22,-517.97,0,0
216177.25,554.678,-521.571,0,0
216437.575,555.027,-524.37,0,0
216697.9,555.64,-526.412,0,0
216958.225,557.003,-527.964,0,0
217218.55,559.199,-529.579,0,0
217478.875,562.021,-531.64,0,0
217739.2,565.119,-534.231,0,0
217999.525,568.3,-537.312,0,0
218259.85,571.298,-540.809,0,0
218520,574.095,-544.42,0,0
218780,576.83,-547.971,0,0
219041,579.81,-551.551,0,0
219301,582.965,-555.349,0,0
219561,586.334,-559.351,0,0
219822,589.758,-563.791,0,0
220082,593.124,-568.449,0,0
220342,596.694,-573.501,0,0
220603,600.149,-578.706,0,0
220863,603.836,-584.237,0,0
221123,607.687,-590.406,0,0
221384,611.362,-597.321,0,0
221644,614.535,-604.787,0,0
221904,617.262,-612.529,0,0
222165,619.746,-620.463,0,0
222425,622.164,-628.796,0,0
222685,624.032,-637.526,0,0
222946,625.509,-646.837,0,0
223206,626.303,-656.26,0,0
223466,626.665,-665.869,0,0
223727,626.494,-675.583,0,0
223987,625.782,-685.598,0,0
224247,624.284,-695.51,0,0
224508,622.324,-705.302,0,0
224768,619.913,-714.879,0,0
225028,617.252,-724.436,0,0
225289,614.428,-734.369,0,0
225549,610.779,-744.231,0,0
225809,606.468,-753.896,0,0
226070,601.414,-763.428,0,0
226330,596.138,-772.59,0,0
226590,590.245,-781.513,0,0
226851,583.972,-790.277,0,0
227111,577.079,-798.942,0,0
227371,569.479,-807.131,0,0
227632,561.257,-814.429,0,0
227892,553.029,-821.121,0,0
228152,544.343,-827.515,0,0
228413,535.549,-833.232,0,0
228673,526.552,-838.214,0,0
228933,517.656,-842.676,0,0
229193,508.716,-846.887,0,0
229454,499.711,-850.58,0,0
229714,490.606,-853.684,0,0
229974,481.473,-856.531,0,0
230235,472.343,-858.525,0,0
230495,463.283,-859.959,0,0
230755,454.44,-861.015,0,0
231016,445.924,-861.651,0,0
231276,437.684,-861.801,0,0
231536,429.693,-861.569,0,0
231797,422.067,-861.024,0,0
232057,414.89,-860.182,0,0
232317,408.12,-859.263,0,0
232578,401.718,-858.379,0,0
232838,395.475,-857.558,0,0
233098,389.502,-856.603,0,0
233359,383.486,-855.674,0,0
233619,377.782,-854.623,0,0
233879,372.229,-853.381,0,0
234140,366.824,-852.282,0,0
234400,361.571,-851.087,0,0
234660.3,356.409,-849.811,0,0
234920.625,351.493,-848.508,0,0
235180.95,346.781,-847.443,0,0
235441.275,341.997,-846.499,0,0
235701.6,337.056,-845.421,0,0
235961.925,332.181,-844.148,0,0
236222.25,327.393,-842.625,0,0
236482.575,322.921,-841.064,0,0
236742.9,318.704,-839.469,0,0
237003.225,314.674,-837.97,0,0
237263.55,310.823,-836.759,0,0
237523.875,306.799,-835.77,0,0
237784.2,302.689,-834.721,0,0
238044.525,298.514,-833.794,0,0
238304.85,294.233,-832.73,0,0
238565.175,289.905,-831.66,0,0
238825.5,285.365,-830.428,0,0
239085.825,280.748,-828.975,0,0
239346.15,276.152,-827.339,0,0
239606.475,271.684,-825.469,0,0
239866.8,267.494,-823.452,0,0
240127.125,263.275,-821.175,0,0
240387.45,259.102,-818.963,0,0
240647.775,255.115,-816.46,0,0
240908.1,251.421,-814.005,0,0
241168.425,247.877,-811.478,0,0
241428.75,244.422,-808.998,0,0
241689.075,241.097,-806.462,0,0
241949.4,237.848,-803.836,0,0
242209.725,234.772,-801.193,0,0
242470.05,231.866,-798.587,0,0
242730.375,229.073,-796.059,0,0
242990.7,226.465,-793.509,0,0
243251.025,223.905,-791.029,0,0
243511.35,221.496,-788.677,0,0
243771.675,219.096,-786.407,0,0
244032.0,216.681,-784.135,0,0
244292.325,214.353,-782.002,0,0
244552.65,211.984,-779.814,0,0
244812.975,209.596,-777.849,0,0
245073.3,207.126,-775.685,0,0
245333.625,204.645,-773.576,0,0
245593.95,202.282,-771.368,0,0
245854.275,199.846,-769.059,0,0
246114.6,197.482,-766.84,0,0
246374.925,195.066,-764.462,0,0
246635.25,192.745,-762.076,0,0
246895.575,190.621,-759.565,0,0
247155.9,188.513,-757.073,0,0
247416.225,186.453,-754.672,0,0
247676.55,184.479,-752.3,0,0
247936.875,182.545,-749.737,0,0
248197.2,180.672,-747.307,0,0
248457.525,178.78,-744.845,0,0
248717.85,177.048,-742.393,0,0
248978.175,175.302,-739.911,0,0
249238.5,173.59,-737.459,0,0
249498.825,171.981,-734.949,0,0
249759.15,170.412,-732.351,0,0
250019.475,168.987,-729.911,0,0
250279.8,167.497,-727.563,0,0
250540,166.07,-725.121,0,0
250800,164.592,-722.764,0,0
251061,163.252,-720.303,0,0
251321,161.949,-717.91,0,0
251581,160.625,-715.465,0,0
251842,159.355,-713.074,0,0
252102,158.117,-710.656,0,0
252362,156.894,-708.198,0,0
252623,155.74,-705.746,0,0
252883,154.604,-703.32,0,0
253143,153.495,-700.866,0,0
253404,152.384,-698.426,0,0
253664,151.242,-695.899,0,0
253924,150.249,-693.288,0,0
254185,149.303,-690.686,0,0
254445,148.526,-687.94,0,0
254705,147.786,-685.285,0,0
254966,147.21,-682.672,0,0
255226,146.636,-680.043,0,0
255486,146.224,-677.487,0,0
255747,145.875,-675.028,0,0
256007,145.519,-672.605,0,0
256267,145.191,-670.239,0,0
256528,144.865,-667.818,0,0
256788,144.593,-665.399,0,0
257048,144.363,-663.044,0,0
257309,144.172,-660.638,0,0
257569,144.034,-658.256,0,0
257829,143.987,-655.865,0,0
258090,144.011,-653.482,0,0
258350,144.114,-651.111,0,0
258610,144.266,-648.8,0,0
258871,144.465,-646.517,0,0
259131,144.766,-644.207,0,0
259391,145.174,-642.016,0,0
259651,145.651,-639.79,0,0
259912,146.196,-637.611,0,0
260172,146.857,-635.579,0,0
260432,147.571,-633.612,0,0
260693,148.366,-631.695,0,0
260953,149.16,-629.981,0,0
261213,149.99,-628.177,0,0
261474,150.887,-626.63,0,0
261734,151.797,-625.123,0,0
261994,152.649,-623.728,0,0
262255,153.487,-622.373,0,0
262515,154.313,-621.02,0,0
262775,155.154,-619.703,0,0
263036,156.066,-618.369,0,0
263296,157.059,-617.072,0,0
263556,158.113,-615.908,0,0
263817,159.274,-614.765,0,0
264077,160.453,-613.763,0,0
264337,161.721,-612.881,0,0
264598,163.081,-612.104,0,0
264858,164.437,-611.443,0,0
265118,165.778,-611.106,0,0
265379,167.15,-610.911,0,0
265639,168.582,-610.827,0,0
265899,169.84,-610.994,0,0
266160,171.013,-611.297,0,0
266420,172.156,-611.727,0,0
266680.25,173.228,-612.424,0,0
266940.575,174.191,-613.281,0,0
267200.9,174.976,-614.42,0,0
267461.225,175.491,-615.775,0,0
267721.55,175.692,-617.281,0,0
267981.875,175.536,-618.88,0,0
268242.2,174.976,-620.469,0,0
268502.525,174.058,-622.023,0,0
268762.85,172.769,-623.402,0,0
269023.175,171.172,-624.54,0,0
269283.5,169.381,-625.484,0,0
269543.825,167.318,-626.059,0,0
269804.15,165.183,-626.368,0,0
270064.475,162.978,-626.319,0,0
270324.8,160.859,-625.952,0,0
270585.125,158.723,-625.422,0,0
270845.45,156.711,-624.572,0,0
271105.775,154.815,-623.558,0,0
271366.1,152.982,-622.428,0,0
271626.425,151.275,-621.089,0,0
271886.75,149.721,-619.617,0,0
272147.075,148.325,-618.045,0,0
272407.4,147.112,-616.44,0,0
272667.725,146.011,-614.756,0,0
272928.05,145.01,-613.069,0,0
273188.375,144.164,-611.365,0,0
273448.7,143.472,-609.637,0,0
273709.025,142.843,-607.965,0,0
273969.35,142.327,-606.321,0,0
274229.675,141.893,-604.712,0,0
274490.0,141.53,-603.055,0,0
274750.325,141.223,-601.466,0,0
275010.65,140.984,-599.806,0,0
275270.975,140.866,-598.219,0,0
275531.3,140.86,-596.731,0,0
275791.625,140.84,-595.304,0,0
276051.95,140.801,-593.871,0,0
276312.275,140.862,-592.459,0,0
276572.6,140.986,-591.039,0,0
276832.925,141.206,-589.615,0,0
277093.25,141.539,-588.303,0,0
277353.575,141.946,-587.083,0,0
277613.9,142.391,-585.953,0,0
277874.225,142.832,-584.927,0,0
278134.55,143.301,-584.004,0,0
278394.875,143.751,-583.131,0,0
278655.2,144.228,-582.299,0,0
278915.525,144.764,-581.542,0,0
279175.85,145.325,-580.934,0,0
279436.175,145.848,-580.418,0,0
279696.5,146.343,-580.069,0,0
279956.825,146.722,-579.833,0,0
280217.15,147.02,-579.708,0,0
280477.475,147.122,-579.603,0,0
280737.8,147.18,-579.498,0,0
280998.125,147.121,-579.389,0,0
281258.45,146.972,-579.278,0,0
281518.775,146.706,-579.119,0,0
281779.1,146.411,-578.88,0,0
282039.425,146.106,-578.629,0,0
282299.75,145.814,-578.354,0,0
282560,145.462,-578.127,0,0
282820,145.037,-577.911,0,0
283081,144.497,-577.667,0,0
283341,143.88,-577.32,0,0
283601,143.237,-576.876,0,0
283862,142.64,-576.354,0,0
284122,142.076,-575.786,0,0
284382,141.56,-575.271,0,0
284643,140.975,-574.819,0,0
284903,140.325,-574.322,0,0
285163,139.56,-573.8,0,0
285424,138.736,-573.152,0,0
285684,137.883,-572.385,0,0
285944,137.066,-571.513,0,0
286205,136.267,-570.611,0,0
286465,135.459,-569.604,0,0
286725,134.695,-568.571,0,0
286986,133.858,-567.487,0,0
287246,133.032,-566.247,0,0
287506,132.256,-564.84,0,0
287767,131.61,-563.217,0,0
288027,131.113,-561.519,0,0
288287,130.847,-559.805,0,0
288548,130.7,-558.037,0,0
288808,130.75,-556.251,0,0
289068,131.041,-554.488,0,0
289329,131.537,-552.868,0,0
289589,132.228,-551.414,0,0
289849,132.962,-550.239,0,0
290109,133.693,-549.228,0,0
290370,134.383,-548.419,0,0
290630,134.961,-547.761,0,0
290890,135.425,-547.192,0,0
291151,135.758,-546.714,0,0
291411,135.956,-546.175,0,0
291671,136.091,-545.59,0,0
291932,136.203,-545.02,0,0
292192,136.24,-544.454,0,0
292452,136.223,-543.826,0,0
292713,136.113,-543.138,0,0
292973,135.994,-542.381,0,0
293233,135.901,-541.556,0,0
293494,135.799,-540.698,0,0
293754,135.713,-539.762,0,0
294014,135.659,-538.82,0,0
294275,135.542,-537.779,0,0
294535,135.434,-536.639,0,0
294795,135.433,-535.435,0,0
295056,135.462,-534.117,0,0
295316,135.638,-532.718,0,0
295576,135.921,-531.25,0,0
295837,136.373,-529.757,0,0
296097,137.032,-528.239,0,0
296357,137.9,-526.841,0,0
296618,138.911,-525.598,0,0
296878,139.96,-524.535,0,0
297138,141.019,-523.617,0,0
297399,142.049,-522.783,0,0
297659,143.061,-521.989,0,0
297919,144.133,-521.248,0,0
298180,145.178,-520.622,0,0
298440,146.184,-520.065,0,0
298700.2,147.163,-519.497,0,0
298960.525,148.059,-518.921,0,0
299220.85,149.125,-518.376,0,0
299481.175,150.154,-517.891,0,0
299741.5,151.288,-517.361,0,0
300001.825,152.477,-516.943,0,0
300262.15,153.74,-516.671,0,0
300522.475,154.87,-516.507,0,0
300782.8,156.033,-516.254,0,0
301043.125,157.163,-516.126,0,0
301303.45,158.404,-516.051,0,0
301563.775,159.558,-516.129,0,0
301824.1,160.766,-516.201,0,0
302084.425,162.026,-516.359,0,0
302344.75,163.22,-516.593,0,0
302605.075,164.331,-517.021,0,0
302865.4,165.536,-517.522,0,0
303125.725,166.434,-518.038,0,0
303386.05,167.468,-518.533,0,0
303646.375,168.412,-519.056,0,0
303906.7,169.466,-519.713,0,0
304167.025,170.363,-520.563,0,0
304427.35,171.189,-521.435,0,0
304687.675,171.839,-522.293,0,0
304948.0,172.355,-523.2,0,0
305208.325,172.938,-524.012,0,0
305468.65,173.429,-524.754,0,0
305728.975,173.946,-525.556,0,0
305989.3,174.535,-526.291,0,0
306249.625,174.999,-527.203,0,0
306509.95,175.578,-528.135,0,0
306770.275,176.119,-529.118,0,0
307030.6,176.583,-530.123,0,0
307290.925,177.038,-531.338,0,0
307551.25,177.414,-532.557,0,0
307811.575,177.639,-533.805,0,0
308071.9,177.854,-535.096,0,0
308332.225,177.941,-536.43,0,0
308592.55,177.861,-537.888,0,0
308852.875,177.648,-539.196,0,0
309113.2,177.458,-540.545,0,0
309373.525,177.033,-541.806,0,0
309633.85,176.761,-543.124,0,0
309894.175,176.352,-544.326,0,0
310154.5,175.884,-545.545,0,0
310414.825,175.255,-546.769,0,0
310675.15,174.727,-548.055,0,0
310935.475,173.995,-549.264,0,0
311195.8,173.289,-550.448,0,0
311456.125,172.536,-551.638,0,0
311716.45,171.746,-552.754,0,0
311976.775,170.827,-554.094,0,0
312237.1,169.77,-555.303,0,0
312497.425,168.588,-556.437,0,0
312757.75,167.388,-557.516,0,0
313018.075,166.011,-558.395,0,0
313278.4,164.638,-559.264,0,0
313538.725,163.258,-560.028,0,0
313799.05,161.843,-560.738,0,0
314059.375,160.54,-561.398,0,0
314319.7,159.125,-561.994,0,0
314580,157.636,-562.517,0,0
314840,156.238,-563.016,0,0
315101,154.78,-563.541,0,0
315361,153.334,-563.879,0,0
315621,151.833,-564.248,0,0
315882,150.433,-564.55,0,0
316142,148.906,-564.789,0,0
316402,147.44,-565.167,0,0
316663,145.829,-565.377,0,0
316923,144.177,-565.642,0,0
317183,142.48,-565.666,0,0
317444,140.83,-565.686,0,0
317704,139.056,-565.591,0,0
317964,137.524,-565.358,0,0
318225,135.857,-565.105,0,0
318485,134.267,-564.832,0,0
318745,132.709,-564.464,0,0
319006,131.264,-564.018,0,0
319266,129.797,-563.637,0,0
319526,128.27,-563.138,0,0
319787,126.947,-562.808,0,0
320047,125.482,-562.337,0,0
320307,123.959,-561.891,0,0
320567,122.425,-561.274,0,0
320828,120.957,-560.654,0,0
321088,119.475,-559.988,0,0
321348,117.978,-559.161,0,0
321609,116.565,-558.376,0,0
321869,115.191,-557.498,0,0
322129,113.809,-556.494,0,0
322390,112.488,-555.388,0,0
322650,111.313,-554.251,0,0
322910,110.133,-553.154,0,0
323171,109.14,-551.913,0,0
323431,108.162,-550.69,0,0
323691,107.249,-549.497,0,0
323952,106.521,-548.256,0,0
324212,105.778,-546.971,0,0
324472,105.208,-545.77,0,0
324733,104.662,-544.685,0,0
324993,104.153,-543.471,0,0
325253,103.814,-542.423,0,0
325514,103.404,-541.336,0,0
325774,103.101,-540.429,0,0
326034,102.78,-539.507,0,0
326295,102.492,-538.567,0,0
326555,102.268,-537.791,0,0
326815,101.943,-536.934,0,0
327076,101.736,-536.14,0,0
327336,101.498,-535.465,0,0
327596,101.326,-534.763,0,0
327857,101.068,-534.106,0,0
328117,100.89,-533.563,0,0
328377,100.682,-533.023,0,0
328638,100.43,-532.504,0,0
328898,100.205,-532.016,0,0
329158,99.9311,-531.594,0,0
329419,99.5886,-531.156,0,0
329679,99.1944,-530.759,0,0
329939,98.8955,-530.362,0,0
330200,98.486,-529.986,0,0
330460,98.1464,-529.647,0,0
330720.15,97.7645,-529.189,0,0
330980.475,97.3708,-528.823,0,0
331240.8,96.8846,-528.535,0,0
331501.125,96.4202,-528.163,0,0
331761.45,95.9301,-527.902,0,0
332021.775,95.4862,-527.637,0,0
332282.1,94.956,-527.323,0,0
332542.425,94.3185,-527.044,0,0
332802.75,93.684,-526.759,0,0
333063.075,93.0035,-526.356,0,0
333323.4,92.2645,-526.046,0,0
333583.725,91.6116,-525.659,0,0
333844.05,90.9291,-525.283,0,0
334104.375,90.1834,-524.839,0,0
334364.7,89.4334,-524.402,0,0
334625.025,88.6321,-523.83,0,0
334885.35,87.9394,-523.367,0,0
335145.675,87.1785,-522.768,0,0
335406.0,86.4967,-522.25,0,0
335666.325,85.6577,-521.642,0,0
335926.65,84.8881,-521.043,0,0
336186.975,84.1047,-520.336,0,0
336447.3,83.4729,-519.745,0,0
336707.625,82.7366,-519.005,0,0
336967.95,82.0502,-518.301,0,0
337228.275,81.4182,-517.678,0,0
337488.6,80.6584,-516.997,0,0
337748.925,80.0162,-516.271,0,0
338009.25,79.3152,-515.538,0,0
338269.575,78.5476,-514.833,0,0
338529.9,77.8617,-514.002,0,0
338790.225,77.2655,-513.248,0,0
339050.55,76.5199,-512.41,0,0
339310.875,75.94,-511.639,0,0
339571.2,75.359,-510.759,0,0
339831.525,74.7769,-509.921,0,0
340091.85,74.1554,-508.959,0,0
340352.175,73.6813,-508.128,0,0
340612.5,73.1396,-507.229,0,0
340872.825,72.7314,-506.351,0,0
341133.15,72.2194,-505.434,0,0
341393.475,71.8159,-504.642,0,0
341653.8,71.3437,-503.793,0,0
341914.125,70.9492,-503.007,0,0
342174.45,70.4902,-502.16,0,0
342434.775,70.1253,-501.378,0,0
342695.1,69.7035,-500.58,0,0
342955.425,69.2689,-499.823,0,0
343215.75,68.8368,-498.921,0,0
343476.075,68.3817,-498.233,0,0
343736.4,67.9611,-497.346,0,0
343996.725,67.5547,-496.589,0,0
344257.05,67.0992,-495.774,0,0
344517.375,66.6761,-494.967,0,0
344777.7,66.1733,-494.152,0,0
345038.025,65.7113,-493.291,0,0
345298.35,65.324,-492.44,0,0
345558.675,64.8564,-491.595,0,0
345819.0,64.4905,-490.704,0,0
346079.325,64.0165,-489.82,0,0
346339.65,63.7129,-488.897,0,0
346599.975,63.2761,-487.955,0,0
346860,62.9798,-487.044,0,0
347121,62.6167,-486.134,0,0
347381,62.2354,-485.222,0,0
347641,61.9559,-484.3,0,0
347902,61.6658,-483.371,0,0
348162,61.4036,-482.404,0,0
348422,61.0904,-481.492,0,0
348683,60.8592,-480.514,0,0
348943,60.6172,-479.589,0,0
349203,60.3927,-478.637,0,0
349464,60.1666,-477.706,0,0
349724,60.0397,-476.796,0,0
349984,59.8768,-475.852,0,0
350245,59.7264,-474.903,0,0
350505,59.662,-474.029,0,0
350765,59.5053,-473.179,0,0
351025,59.421,-472.266,0,0
351286,59.2926,-471.43,0,0
351546,59.1779,-470.569,0,0
351806,59.0551,-469.741,0,0
352067,58.9833,-468.91,0,0
352327,58.852,-468.123,0,0
352587,58.7192,-467.295,0,0
352848,58.5835,-466.498,0,0
353108,58.5359,-465.607,0,0
353368,58.4115,-464.832,0,0
353629,58.3066,-463.98,0,0
353889,58.1507,-463.147,0,0
354149,58.0819,-462.261,0,0
354410,57.9743,-461.486,0,0
354670,57.8936,-460.641,0,0
354930,57.8271,-459.758,0,0
355191,57.8754,-458.939,0,0
355451,57.8548,-458.051,0,0
355711,57.7862,-457.214,0,0
355972,57.8098,-456.403,0,0
356232,57.7751,-455.595,0,0
356492,57.8012,-454.708,0,0
356753,57.82,-453.978,0,0
357013,57.8149,-453.161,0,0
357273,57.8646,-452.456,0,0
357534,57.9427,-451.685,0,0
357794,57.9182,-450.908,0,0
358054,58.0073,-450.216,0,0
358315,57.9879,-449.498,0,0
358575,58.042,-448.765,0,0
358835,58.0204,-448.061,0,0
359096,58.0122,-447.344,0,0
359356,58.034,-446.585,0,0
359616,58.0343,-445.859,0,0
359877,58.0263,-445.082,0,0
360137,58.1125,-444.339,0,0
360397,58.0785,-443.533,0,0
360658,58.1832,-442.777,0,0
360918,58.2822,-442.079,0,0
361178,58.3454,-441.362,0,0
361438,58.457,-440.69,0,0
361699,58.5273,-439.989,0,0
361959,58.585,-439.318,0,0
362219,58.6164,-438.674,0,0
362480,58.6526,-438.002,0,0
362740.1,58.6985,-437.273,0,0
363000.425,58.7447,-436.597,0,0
363260.75,58.8056,-435.938,0,0
363521.075,58.7943,-435.248,0,0
363781.4,58.8539,-434.546,0,0
364041.725,58.9229,-433.826,0,0
364302.05,58.9339,-433.176,0,0
364562.375,58.9838,-432.446,0,0
364822.7,58.9607,-431.745,0,0
365083.025,59.0573,-431.015,0,0
365343.35,59.0825,-430.279,0,0
365603.675,59.2305,-429.509,0,0
365864.0,59.299,-428.763,0,0
366124.325,59.3811,-428.049,0,0
366384.65,59.4788,-427.312,0,0
366644.975,59.578,-426.599,0,0
366905.3,59.6655,-425.812,0,0
367165.625,59.776,-425.103,0,0
367425.95,59.894,-424.362,0,0
367686.275,59.9715,-423.567,0,0
367946.6,60.0863,-422.841,0,0
368206.925,60.2156,-422.028,0,0
368467.25,60.3607,-421.16,0,0
368727.575,60.4397,-420.293,0,0
368987.9,60.6483,-419.442,0,0
369248.225,60.909,-418.535,0,0
369508.55,61.2148,-417.599,0,0
369768.875,61.5934,-416.707,0,0
370029.2,61.9954,-415.815,0,0
370289.525,62.425,-415,0,0
370549.85,62.9089,-414.177,0,0
370810.175,63.4519,-413.386,0,0
371070.5,63.9839,-412.648,0,0
371330.825,64.562,-411.914,0,0
371591.15,65.1695,-411.284,0,0
371851.475,65.7812,-410.621,0,0
372111.8,66.3895,-410.019,0,0
372372.125,67.0518,-409.477,0,0
372632.45,67.6856,-408.943,0,0
372892.775,68.3459,-408.445,0,0
373153.1,69.0433,-408.054,0,0
373413.425,69.7119,-407.62,0,0
373673.75,70.3538,-407.313,0,0
373934.075,71.018,-407.01,0,0
374194.4,71.6425,-406.778,0,0
374454.725,72.2914,-406.568,0,0
374715.05,72.8394,-406.345,0,0
374975.375,73.3927,-406.243,0,0
375235.7,73.9182,-406.101,0,0
375496.025,74.3613,-406.001,0,0
375756.35,74.8273,-405.925,0,0
376016.675,75.2776,-405.74,0,0
376277.0,75.6925,-405.666,0,0
376537.325,76.0818,-405.52,0,0
376797.65,76.5341,-405.436,0,0
377057.975,76.9067,-405.288,0,0
377318.3,77.3474,-405.228,0,0
377578.625,77.7326,-405.139,0,0
377838.95,78.1764,-405.095,0,0
378099.275,78.5575,-405.073,0,0
378359.6,78.8838,-405.026,0,0
378619.925,79.2711,-405.044,0,0
378880,79.5796,-405.059,0,0
379141,79.9175,-405.07,0,0
379401,80.247,-405.058,0,0
379661,80.5285,-405.079,0,0
379922,80.8223,-405.109,0,0
380182,81.0968,-405.152,0,0
380442,81.4573,-405.2,0,0
380703,81.7316,-405.245,0,0
380963,82.0753,-405.302,0,0
381223,82.4246,-405.393,0,0
381483,82.818,-405.6,0,0
381744,83.1393,-405.793,0,0
382004,83.4519,-406.142,0,0
382264,83.7341,-406.474,0,0
382525,83.9633,-406.928,0,0
382785,84.0649,-407.344,0,0
383045,84.1071,-407.846,0,0
383306,84.0883,-408.284,0,0
383566,83.9841,-408.734,0,0
383826,83.8043,-409.204,0,0
384087,83.5668,-409.578,0,0
384347,83.313,-410.007,0,0
384607,82.956,-410.353,0,0
384868,82.6019,-410.705,0,0
385128,82.181,-410.984,0,0
385388,81.6996,-411.226,0,0
385649,81.2348,-411.384,0,0
385909,80.7226,-411.542,0,0
386169,80.2059,-411.691,0,0
386430,79.6233,-411.752,0,0
386690,79.1327,-411.841,0,0
386950,78.5149,-411.857,0,0
387211,77.8651,-411.811,0,0
387471,77.2556,-411.717,0,0
387731,76.608,-411.604,0,0
387992,75.9578,-411.32,0,0
388252,75.3716,-411.104,0,0
388512,74.8475,-410.763,0,0
388773,74.2941,-410.387,0,0
389033,73.8121,-410.021,0,0
389293,73.3293,-409.55,0,0
389554,72.9417,-409.154,0,0
389814,72.5896,-408.719,0,0
390074,72.2704,-408.308,0,0
390335,71.9806,-407.92,0,0
390595,71.7402,-407.605,0,0
390855,71.4668,-407.215,0,0
391116,71.2633,-406.943,0,0
391376,70.9836,-406.657,0,0
391636,70.7227,-406.38,0,0
391896,70.4487,-406.135,0,0
392157,70.1058,-405.88,0,0
392417,69.7718,-405.697,0,0
392677,69.398,-405.492,0,0
392938,69.0128,-405.255,0,0
393198,68.5517,-405.054,0,0
393458,68.0928,-404.786,0,0
393719,67.5821,-404.484,0,0
393979,67.094,-404.109,0,0
394239,66.4708,-403.778,0,0
394500,65.9422,-403.348,0,0
394760.05,65.3987,-402.878,0,0
395020.375,64.9186,-402.343,0,0
395280.7,64.4303,-401.807,0,0
395541.025,63.9513,-401.242,0,0
395801.35,63.4715,-400.652,0,0
396061.675,63.0429,-400.099,0,0
396322.0,62.5896,-399.42,0,0
396582.325,62.1969,-398.775,0,0
396842.65,61.8167,-398.07,0,0
397102.975,61.4772,-397.402,0,0
397363.3,61.1108,-396.734,0,0
397623.625,60.8222,-396.006,0,0
397883.95,60.5324,-395.302,0,0
398144.275,60.2193,-394.576,0,0
398404.6,59.9892,-393.865,0,0
398664.925,59.7526,-393.152,0,0
398925.25,59.5687,-392.429,0,0
399185.575,59.3171,-391.705,0,0
399445.9,59.1349,-391.012,0,0
399706.225,58.9518,-390.27,0,0
399966.55,58.803,-389.521,0,0
400006.6,58.7754,-389.405,0,0