File: Accelerated corrosion test data/2025-10-02_06-00-03/sample_8.csv
Frequency (Hz),Impedance (ohms),Phase (Radians),Temperature (C),Humidity (%)
10000.0,315.569,-10945.8,0,0
10260.325,307.869,-10671.6,0,0
10520.65,300.256,-10410.5,0,0
10780.975,292.771,-10162.7,0,0
11041.3,285.821,-9925.62,0,0
11301.625,279.696,-9700.71,0,0
11561.95,273.898,-9483.99,0,0
11822.275,267.782,-9278.62,0,0
12082.6,264.884,-9078.21,0,0
12342.925,262.126,-8892.02,0,0
12603.25,256.749,-8711.55,0,0
12863.575,252.857,-8540.08,0,0
13123.9,245.65,-8376.43,0,0
13384.225,238.55,-8214.12,0,0
13644.55,235.604,-8059.11,0,0
13904.875,228.55,-7911.89,0,0
14165.2,222.876,-7767.86,0,0
14425.525,219.734,-7629.51,0,0
14685.8,215.527,-7494.98,0,0
14946.175,211.363,-7365.12,0,0
15206.5,207.94,-7240.23,0,0
15466.825,204.512,-7120.01,0,0
15727.15,201.31,-7003.37,0,0
15987.5,198.248,-6890.39,0,0
16247.8,194.997,-6780.81,0,0
16508.125,191.971,-6674.93,0,0
16768.45,188.705,-6572.19,0,0
17028.775,185.786,-6472.44,0,0
17289.1,183.199,-6375.91,0,0
17549.425,180.52,-6281.33,0,0
17809.75,178.153,-6189.92,0,0
18070.075,176.267,-6102.48,0,0
18330.4,173.658,-6015.48,0,0
18590.725,171.221,-5930.66,0,0
18851.05,171.002,-5847.36,0,0
19111.375,169.252,-5768.92,0,0
19371.7,171.72,-5691.34,0,0
19632.025,168.297,-5620.49,0,0
19892.35,165.841,-5550.03,0,0
20152.675,162.376,-5477.49,0,0
20413.0,161.493,-5407.29,0,0
20673.3,160.664,-5340.31,0,0
20933.65,159.645,-5276.26,0,0
21193.975,157.119,-5212.94,0,0
21454.3,153.961,-5149.05,0,0
21714.625,152.424,-5087.16,0,0
21974.9,152.434,-5027.4,0,0
22235.275,152.3,-4969.34,0,0
22495.6,149.936,-4913.46,0,0
22755.925,149.083,-4859.51,0,0
23016.25,145.988,-4805.22,0,0
23276.6,142.705,-4753.03,0,0
23536.9,141.157,-4699.79,0,0
23797.225,139.206,-4648.73,0,0
24057.55,137.245,-4597.73,0,0
24317.875,135.673,-4548.88,0,0
24578.2,133.704,-4500.62,0,0
24838.525,132.228,-4452.92,0,0
25098.85,131.268,-4406.67,0,0
25359.175,130.072,-4361.57,0,0
25619.5,128.495,-4317.35,0,0
25879.8,127.444,-4272.78,0,0
26140.1,126.902,-4230.87,0,0
26400.5,125.594,-4188.87,0,0
26660.8,123.825,-4148.18,0,0
26921.1,122.995,-4106.67,0,0
27181.4,123.582,-4067.61,0,0
27441.8,122.113,-4029.17,0,0
27702.1,121.829,-3991.45,0,0
27962.4,120.109,-3954.5,0,0
28222.7,120.07,-3916.27,0,0
28483.1,118.815,-3881.3,0,0
28743.4,118.66,-3845.65,0,0
29003.7,118.522,-3811.38,0,0
29264,118.06,-3776.25,0,0
29524.4,117.17,-3743.77,0,0
29784.7,117.167,-3710.6,0,0
30045,117.44,-3679.14,0,0
30305.3,117.025,-3647.84,0,0
30565.7,116,-3617.31,0,0
30826,115.038,-3586.69,0,0
31086.3,114.15,-3557.25,0,0
31346.6,113.362,-3527.05,0,0
31607,113.182,-3498,0,0
31867.3,112.862,-3469.05,0,0
32127.6,112.177,-3441.31,0,0
32387.9,111.624,-3413.08,0,0
32648.3,111.591,-3385.4,0,0
32908.6,111.722,-3358.01,0,0
33168.9,111.799,-3332.18,0,0
33429.2,112.926,-3305.84,0,0
33689.6,113.79,-3281.33,0,0
33949.9,113.741,-3257.9,0,0
34210.2,112.919,-3233.93,0,0
34470.5,112.175,-3210.73,0,0
34730.9,111.497,-3186.75,0,0
34991.2,111.762,-3163.85,0,0
35251.5,110.979,-3141.87,0,0
35511.8,110.122,-3120.13,0,0
35772.2,109.144,-3098.63,0,0
36032.5,107.781,-3076.81,0,0
36292.8,106.358,-3055.97,0,0
36553.1,104.885,-3034.46,0,0
36813.5,103.574,-3013.39,0,0
37073.8,102.254,-2992.43,0,0
37334.1,100.956,-2971.79,0,0
37594.4,99.5729,-2951.59,0,0
37854.8,97.9573,-2931.13,0,0
38115.1,96.6312,-2911.46,0,0
38375.4,95.2185,-2891.35,0,0
38635.7,93.8046,-2871.61,0,0
38896.1,92.6237,-2852.15,0,0
39156.4,91.3071,-2832.73,0,0
39416.7,90.3168,-2813.28,0,0
39677,89.3554,-2794.49,0,0
39937.4,88.2118,-2775.46,0,0
40197.7,87.3551,-2756.47,0,0
40458,87.081,-2737.61,0,0
40718.3,87.1184,-2719.93,0,0
40978.7,86.4937,-2702.48,0,0
41239,85.745,-2684.85,0,0
41499.3,85.1575,-2667.61,0,0
41759.6,84.7649,-2650.42,0,0
42020,84.1643,-2633.67,0,0
42280.275,83.564,-2616.98,0,0
42540.6,82.9355,-2600.26,0,0
42800.925,82.9294,-2583.66,0,0
43061.25,82.9531,-2567.39,0,0
43321.575,82.9362,-2551.82,0,0
43581.9,83.081,-2536.41,0,0
43842.225,82.7898,-2521.97,0,0
44102.55,81.9773,-2507.23,0,0
44362.875,81.1962,-2492.2,0,0
44623.2,80.4872,-2477.09,0,0
44883.525,79.7267,-2462.74,0,0
45143.85,79.3051,-2448.22,0,0
45404.175,79.0268,-2433.65,0,0
45664.5,78.1797,-2419.33,0,0
45924.825,77.8357,-2405.41,0,0
46185.15,77.1942,-2391.17,0,0
46445.475,76.471,-2377.26,0,0
46705.8,76.5246,-2363.54,0,0
46966.125,75.9045,-2349.82,0,0
47226.45,75.6546,-2336.44,0,0
47486.775,75.4553,-2323.16,0,0
47747.1,75.3206,-2310.08,0,0
48007.425,74.8341,-2297.25,0,0
48267.75,74.5196,-2284.55,0,0
48528.075,74.2255,-2271.79,0,0
48788.4,73.8085,-2259.36,0,0
49048.725,73.2783,-2247.13,0,0
49309.05,72.7592,-2234.8,0,0
49569.375,72.3242,-2222.39,0,0
49829.7,72.0063,-2210.38,0,0
50090.025,71.6381,-2198.44,0,0
50350.35,71.3182,-2186.27,0,0
50610.675,71.0353,-2174.55,0,0
50871.0,70.7567,-2162.82,0,0
51131.325,70.6673,-2151.37,0,0
51391.65,70.4404,-2139.8,0,0
51651.975,70.3158,-2128.38,0,0
51912.3,70.3111,-2117.3,0,0
52172.625,70.1627,-2106.42,0,0
52432.95,70.0234,-2095.71,0,0
52693.275,69.7714,-2084.8,0,0
52953.6,69.8639,-2074.16,0,0
53213.925,70.036,-2063.81,0,0
53474.25,69.7374,-2053.66,0,0
53734.575,69.7925,-2043.49,0,0
53994.9,69.4627,-2034.01,0,0
54255.225,68.8505,-2024.16,0,0
54515.55,67.9581,-2014.16,0,0
54775.875,67.4022,-2003.96,0,0
55036.2,67.2085,-1994.39,0,0
55296.525,66.4632,-1984.66,0,0
55556.85,65.6616,-1974.86,0,0
55817.175,65.2023,-1964.82,0,0
56077.5,64.6865,-1955.06,0,0
56337.825,64.2423,-1945.3,0,0
56598.15,63.847,-1935.52,0,0
56858.475,63.4674,-1925.87,0,0
57118.8,63.2701,-1916.29,0,0
57379.125,63.098,-1906.84,0,0
57639.45,62.933,-1897.58,0,0
57899.775,62.7276,-1888.18,0,0
58160.1,62.5693,-1879.09,0,0
58420.4,62.5219,-1869.94,0,0
58680.7,62.5188,-1860.96,0,0
58941.1,62.5469,-1852.06,0,0
59201.4,62.744,-1843.56,0,0
59461.7,62.6234,-1835.28,0,0
59722,62.2774,-1826.86,0,0
59982.4,61.9182,-1818.45,0,0
60242.7,61.5549,-1809.84,0,0
60503,61.2739,-1801.33,0,0
60763.3,61.0257,-1792.9,0,0
61023.7,60.8961,-1784.38,0,0
61284,60.8908,-1775.99,0,0
61544.3,60.9277,-1767.74,0,0
61804.6,61.0147,-1759.66,0,0
62065,60.928,-1751.8,0,0
62325.3,60.7182,-1743.77,0,0
62585.6,60.6996,-1735.79,0,0
62845.9,60.664,-1727.75,0,0
63106.3,60.9098,-1719.81,0,0
63366.6,61.1073,-1712.04,0,0
63626.9,61.4613,-1704.51,0,0
63887.2,61.6635,-1697.08,0,0
64147.6,61.7925,-1689.65,0,0
64407.9,62.2621,-1682.19,0,0
64668.2,62.5916,-1675.53,0,0
64928.5,62.4958,-1668.69,0,0
65188.9,62.4949,-1661.87,0,0
65449.2,62.2967,-1655,0,0
65709.5,62.1686,-1648.48,0,0
65969.8,61.8891,-1641.67,0,0
66230.2,61.4379,-1634.87,0,0
66490.5,60.9889,-1628.37,0,0
66750.8,60.2144,-1621.51,0,0
67011.1,59.6924,-1614.28,0,0
67271.5,59.4521,-1607.35,0,0
67531.8,59.2743,-1600.33,0,0
67792.1,59.187,-1593.52,0,0
68052.4,59.0414,-1586.7,0,0
68312.8,58.7483,-1579.94,0,0
68573.1,58.5446,-1573.21,0,0
68833.4,58.456,-1566.56,0,0
69093.7,58.21,-1559.88,0,0
69354.1,58.111,-1553.25,0,0
69614.4,58.0593,-1546.52,0,0
69874.7,58.1739,-1539.97,0,0
70135,58.2163,-1533.51,0,0
70395.4,58.297,-1527.02,0,0
70655.7,58.4788,-1520.69,0,0
70916,58.6568,-1514.54,0,0
71176.3,58.709,-1508.49,0,0
71436.7,58.7399,-1502.37,0,0
71697,58.6631,-1496.18,0,0
71957.3,59.1599,-1490.35,0,0
72217.6,59.1756,-1484.57,0,0
72478,59.1734,-1478.83,0,0
72738.3,59.0336,-1473.19,0,0
72998.6,58.8196,-1467.45,0,0
73258.9,58.5678,-1461.69,0,0
73519.3,58.2995,-1455.81,0,0
73779.6,58.1372,-1449.89,0,0
74039.9,58.1061,-1444.01,0,0
74300.225,58.1565,-1438.39,0,0
74560.55,58.0376,-1432.8,0,0
74820.875,57.8702,-1427.18,0,0
75081.2,57.68,-1421.51,0,0
75341.525,57.5962,-1415.86,0,0
75601.85,57.4337,-1410.11,0,0
75862.175,57.4781,-1404.42,0,0
76122.5,57.5598,-1398.83,0,0
76382.825,57.6431,-1393.39,0,0
76643.15,57.6961,-1387.95,0,0
76903.475,57.7995,-1382.62,0,0
77163.8,57.7163,-1377.36,0,0
77424.125,57.6676,-1372.07,0,0
77684.45,57.5809,-1366.71,0,0
77944.775,57.6401,-1361.47,0,0
78205.1,57.5656,-1356.29,0,0
78465.425,57.465,-1351.05,0,0
78725.75,57.3002,-1345.93,0,0
78986.075,57.1662,-1340.59,0,0
79246.4,57.169,-1335.3,0,0
79506.725,57.1157,-1330.16,0,0
79767.05,57.0624,-1324.91,0,0
80027.375,57.1254,-1319.69,0,0
80287.7,57.1521,-1314.57,0,0
80548.025,57.2923,-1309.37,0,0
80808.35,57.4325,-1304.31,0,0
81068.675,57.4701,-1299.36,0,0
81329.0,57.4575,-1294.31,0,0
81589.325,57.5696,-1289.24,0,0
81849.65,57.6627,-1284.29,0,0
82109.975,57.7068,-1279.27,0,0
82370.3,57.7864,-1274.16,0,0
82630.625,58.122,-1269.07,0,0
82890.95,58.5103,-1264.13,0,0
83151.275,58.8741,-1259.38,0,0
83411.6,59.0798,-1254.64,0,0
83671.925,59.3102,-1249.75,0,0
83932.25,59.7895,-1244.88,0,0
84192.575,60.4223,-1240.29,0,0
84452.9,60.8135,-1235.82,0,0
84713.225,61.2038,-1231.48,0,0
84973.55,61.5788,-1227.06,0,0
85233.875,61.9528,-1222.79,0,0
85494.2,62.1344,-1218.74,0,0
85754.525,62.2505,-1214.59,0,0
86014.85,61.9066,-1210.3,0,0
86275.175,62.0135,-1205.8,0,0
86535.5,61.8677,-1201.33,0,0
86795.825,61.8701,-1196.78,0,0
87056.15,62.0842,-1192.15,0,0
87316.475,62.3967,-1187.65,0,0
87576.8,62.6254,-1183.27,0,0
87837.125,62.7905,-1178.72,0,0
88097.45,63.1161,-1174.26,0,0
88357.775,63.6224,-1169.76,0,0
88618.1,64.0699,-1165.49,0,0
88878.425,64.5161,-1161.2,0,0
89138.75,64.8877,-1156.98,0,0
89399.075,65.3139,-1152.69,0,0
89659.4,65.6614,-1148.34,0,0
89919.725,66.242,-1144.23,0,0
90180,66.7657,-1139.96,0,0
90440.4,67.4642,-1135.71,0,0
90700.7,68.0708,-1131.69,0,0
90961,68.7282,-1127.57,0,0
91221.3,69.477,-1123.45,0,0
91481.7,70.554,-1119.42,0,0
91742,71.6473,-1115.81,0,0
92002.3,72.6614,-1112.29,0,0
92262.6,73.6084,-1109.03,0,0
92523,74.4595,-1105.84,0,0
92783.3,75.176,-1102.86,0,0
93043.6,75.6577,-1100.04,0,0
93303.9,75.9752,-1097.24,0,0
93564.3,75.9053,-1094.56,0,0
93824.6,75.5419,-1091.51,0,0
94084.9,75.2527,-1088.11,0,0
94345.2,74.9133,-1084.57,0,0
94605.6,74.8216,-1080.9,0,0
94865.9,74.8212,-1076.98,0,0
95126.2,75.2536,-1073.22,0,0
95386.5,75.6194,-1069.95,0,0
95646.9,75.8039,-1066.32,0,0
95907.2,76.3391,-1062.98,0,0
96167.5,76.4668,-1059.87,0,0
96427.8,76.3741,-1056.39,0,0
96688.2,76.5325,-1052.67,0,0
96948.5,77.0465,-1049.07,0,0
97208.8,77.5888,-1045.74,0,0
97469.1,77.9968,-1042.39,0,0
97729.5,78.5744,-1039.12,0,0
97989.8,79.1845,-1036.08,0,0
98250.1,79.6514,-1033.13,0,0
98510.4,79.9293,-1030.2,0,0
98770.8,80.3109,-1027.21,0,0
99031.1,80.7408,-1024.39,0,0
99291.4,80.9677,-1021.79,0,0
99551.7,80.8758,-1019.12,0,0
99812.1,80.6408,-1016.21,0,0
100072,80.4779,-1013.05,0,0
100333,80.6416,-1009.87,0,0
100593,80.9166,-1006.83,0,0
100853,81.2092,-1004.03,0,0
101114,81.2933,-1001.4,0,0
101374,81.0756,-998.649,0,0
101634,80.9451,-995.716,0,0
101895,80.9196,-992.782,0,0
102155,80.8318,-989.979,0,0
102415,80.5922,-987.04,0,0
102676,80.4381,-984.142,0,0
102936,80.2789,-981.084,0,0
103196,80.216,-978.083,0,0
103457,80.0119,-975.063,0,0
103717,80.0181,-972.033,0,0
103977,79.9272,-969.138,0,0
104238,79.7365,-966.182,0,0
104498,79.509,-963.19,0,0
104758,79.2602,-960.091,0,0
105019,79.1821,-956.896,0,0
105279,79.0245,-953.844,0,0
105539,78.9049,-950.577,0,0
105800,78.8841,-947.329,0,0
106060,79.0026,-943.998,0,0
106320.175,79.278,-940.867,0,0
106580.5,79.5645,-937.766,0,0
106840.825,79.8851,-934.757,0,0
107101.15,80.1891,-931.866,0,0
107361.475,80.4879,-929.076,0,0
107621.8,80.6374,-926.375,0,0
107882.125,80.7047,-923.636,0,0
108142.45,80.6416,-920.9,0,0
108402.775,80.5727,-917.905,0,0
108663.1,80.7092,-914.87,0,0
108923.425,80.9926,-911.944,0,0
109183.75,81.1988,-909.146,0,0
109444.075,81.4647,-906.314,0,0
109704.4,81.7706,-903.574,0,0
109964.725,81.9627,-900.93,0,0
110225.05,82.1985,-898.312,0,0
110485.375,82.3725,-895.803,0,0
110745.7,82.3323,-893.133,0,0
111006.025,82.4905,-890.619,0,0
111266.35,82.3709,-888.079,0,0
111526.675,82.3419,-885.459,0,0
111787.0,82.3253,-882.718,0,0
112047.325,82.398,-880.018,0,0
112307.65,82.4586,-877.392,0,0
112567.975,82.4836,-874.786,0,0
112828.3,82.5338,-872.229,0,0
113088.625,82.5553,-869.613,0,0
113348.95,82.5488,-867.079,0,0
113609.275,82.5436,-864.525,0,0
113869.6,82.5288,-861.875,0,0
114129.925,82.4603,-859.336,0,0
114390.25,82.3686,-856.799,0,0
114650.575,82.1823,-854.21,0,0
114910.9,82.0919,-851.542,0,0
115171.225,82.0572,-848.867,0,0
115431.55,82.0275,-846.253,0,0
115691.875,82.032,-843.681,0,0
115952.2,81.9116,-841.042,0,0
116212.525,81.8548,-838.463,0,0
116472.85,81.8286,-835.913,0,0
116733.175,81.7168,-833.337,0,0
116993.5,81.5486,-830.792,0,0
117253.825,81.3285,-828.178,0,0
117514.15,81.1176,-825.486,0,0
117774.475,80.9546,-822.753,0,0
118034.8,80.8499,-819.98,0,0
118295.125,80.7102,-817.21,0,0
118555.45,80.6478,-814.356,0,0
118815.775,80.7188,-811.465,0,0
119076.1,80.9522,-808.731,0,0
119336.425,81.1164,-806.229,0,0
119596.75,81.0419,-803.768,0,0
119857.075,80.8984,-801.154,0,0
120117.4,80.7779,-798.532,0,0
120377.725,80.7444,-795.825,0,0
120638.05,80.6674,-793.163,0,0
120898.375,80.5653,-790.487,0,0
121158.7,80.4801,-787.655,0,0
121419.025,80.5858,-784.862,0,0
121679.35,80.6246,-782.202,0,0
121939.675,80.6089,-779.506,0,0
122200.0,80.6132,-776.731,0,0
122460,80.7005,-773.96,0,0
122721,80.8415,-771.235,0,0
122981,80.992,-768.589,0,0
123241,81.1223,-766.011,0,0
123502,81.1153,-763.455,0,0
123762,81.088,-760.808,0,0
124022,80.9746,-758.137,0,0
124283,80.9724,-755.312,0,0
124543,81.0569,-752.427,0,0
124803,81.2485,-749.611,0,0
125064,81.4013,-746.836,0,0
125324,81.6694,-744.091,0,0
125584,81.914,-741.442,0,0
125845,82.1184,-738.834,0,0
126105,82.2773,-736.154,0,0
126365,82.4126,-733.507,0,0
126626,82.6088,-730.765,0,0
126886,82.9034,-728.074,0,0
127146,83.2052,-725.433,0,0
127406,83.474,-722.866,0,0
127667,83.7728,-720.297,0,0
127927,83.9939,-717.789,0,0
128187,84.1881,-715.212,0,0
128448,84.4897,-712.733,0,0
128708,84.7091,-710.257,0,0
128968,84.8257,-707.847,0,0
129229,84.9496,-705.32,0,0
129489,85.001,-702.821,0,0
129749,85.0376,-700.303,0,0
130010,85.0469,-697.758,0,0
130270,84.9502,-695.17,0,0
130530,84.8234,-692.44,0,0
130791,84.7188,-689.632,0,0
131051,84.6569,-686.634,0,0
131311,84.6679,-683.401,0,0
131572,85.1438,-680.03,0,0
131832,86.0733,-677.038,0,0
132092,86.8482,-674.571,0,0
132353,87.3106,-672.209,0,0
132613,87.5466,-669.856,0,0
132873,87.5278,-667.224,0,0
133134,87.7019,-664.29,0,0
133394,88.1957,-661.298,0,0
133654,88.8073,-658.577,0,0
133915,89.3003,-655.977,0,0
134175,89.7476,-653.392,0,0
134435,90.1402,-650.69,0,0
134696,90.5819,-648,0,0
134956,91.0721,-645.441,0,0
135216,91.4436,-642.769,0,0
135477,91.8599,-639.983,0,0
135737,92.4496,-637.185,0,0
135997,93.1682,-634.465,0,0
136258,93.9711,-631.945,0,0
136518,94.6753,-629.612,0,0
136778,95.2247,-627.257,0,0
137039,95.9172,-624.914,0,0
137299,96.5132,-622.86,0,0
137559,96.89,-620.854,0,0
137819,96.9682,-618.935,0,0
138080,96.7824,-616.809,0,0
138340.125,96.4592,-614.465,0,0
138600.45,96.03,-611.807,0,0
138860.775,95.7318,-608.825,0,0
139121.1,95.6821,-605.731,0,0
139381.425,95.7635,-602.584,0,0
139641.75,96.0708,-599.463,0,0
139902.075,96.4139,-596.417,0,0
140162.4,96.7709,-593.433,0,0
140422.725,97.159,-590.491,0,0
140683.05,97.4833,-587.638,0,0
140943.375,97.6551,-584.693,0,0
141203.7,97.8315,-581.575,0,0
141464.025,98.0744,-578.379,0,0
141724.35,98.3767,-575.048,0,0
141984.675,98.8519,-571.706,0,0
142245.0,99.3638,-568.432,0,0
142505.325,99.838,-565.101,0,0
142765.65,100.382,-561.665,0,0
143025.975,101.109,-558.207,0,0
143286.3,101.844,-554.899,0,0
143546.625,102.459,-551.593,0,0
143806.95,103.044,-548.123,0,0
144067.275,103.673,-544.511,0,0
144327.6,104.41,-540.76,0,0
144587.925,105.294,-536.888,0,0
144848.25,106.365,-532.909,0,0
145108.575,107.642,-528.912,0,0
145368.9,109.109,-524.943,0,0
145629.225,110.759,-520.944,0,0
145889.55,112.726,-516.991,0,0
146149.875,114.989,-513.335,0,0
146410.2,117.243,-510.015,0,0
146670.525,119.35,-506.846,0,0
146930.85,121.435,-503.693,0,0
147191.175,123.537,-500.54,0,0
147451.5,125.808,-497.396,0,0
147711.825,128.26,-494.56,0,0
147972.15,130.64,-492.203,0,0
148232.475,132.36,-490.193,0,0
148492.8,133.433,-487.822,0,0
148753.125,134.285,-484.719,0,0
149013.45,135.446,-481.08,0,0
149273.775,136.907,-477.106,0,0
149534.1,138.853,-472.853,0,0
149794.425,141.35,-468.435,0,0
150054.75,144.399,-464.423,0,0
150315.075,147.582,-460.566,0,0
150575.4,151.168,-456.785,0,0
150835.725,154.984,-453.451,0,0
151096.05,158.862,-450.196,0,0
151356.375,163.033,-446.821,0,0
151616.7,168.076,-443.633,0,0
151877.025,173.809,-441.482,0,0
152137.35,179.507,-440.713,0,0
152397.675,184.426,-440.882,0,0
152658.0,188.585,-441.353,0,0
152918.325,192.156,-442.202,0,0
153178.65,194.96,-443.141,0,0
153438.975,197.181,-443.723,0,0
153699.3,199.076,-444.142,0,0
153959.625,200.744,-444.401,0,0
154219.95,202.095,-444.609,0,0
154480,202.865,-444.505,0,0
154741,203.302,-443.745,0,0
155001,203.939,-442.113,0,0
155261,205.189,-440.041,0,0
155522,207.081,-437.765,0,0
155782,209.747,-435.657,0,0
156042,213.067,-434.184,0,0
156303,216.717,-433.428,0,0
156563,220.357,-434.142,0,0
156823,222.793,-436.09,0,0
157084,223.563,-438.185,0,0
157344,222.855,-439.763,0,0
157604,220.539,-439.891,0,0
157864,218.503,-437.734,0,0
158125,217.458,-434.635,0,0
158385,217.396,-430.853,0,0
158645,218.19,-427.067,0,0
158906,219.665,-422.917,0,0
159166,222.265,-418.525,0,0
159426,226.388,-414.726,0,0
159687,231.536,-412.507,0,0
159947,236.565,-412.133,0,0
160207,240.475,-413.175,0,0
160468,242.831,-414.605,0,0
160728,243.861,-415.797,0,0
160988,243.979,-416.482,0,0
161249,243.155,-415.856,0,0
161509,242.775,-413.529,0,0
161769,243.467,-410.621,0,0
162030,245.01,-407.617,0,0
162290,247.084,-404.651,0,0
162550,249.936,-401.911,0,0
162811,253.412,-399.618,0,0
163071,257.134,-398.159,0,0
163331,260.758,-397.079,0,0
163592,264.561,-396.535,0,0
163852,268.223,-396.65,0,0
164112,271.65,-397.315,0,0
164373,274.596,-398.754,0,0
164633,276.308,-400.414,0,0
164893,277.322,-401.321,0,0
165154,278.48,-401.718,0,0
165414,279.868,-402.213,0,0
165674,281.254,-402.635,0,0
165935,282.881,-403.39,0,0
166195,284.313,-404.972,0,0
166455,284.733,-407.249,0,0
166716,283.86,-409.453,0,0
166976,282.057,-410.891,0,0
167236,279.594,-411.327,0,0
167497,276.928,-410.903,0,0
167757,274.62,-409.5,0,0
168017,272.381,-407.944,0,0
168277,270.043,-405.884,0,0
168538,267.885,-403.084,0,0
168798,266.194,-399.703,0,0
169058,264.812,-396.207,0,0
169319,263.658,-392.263,0,0
169579,262.848,-387.989,0,0
169839,262.653,-383.469,0,0
170100,262.957,-378.989,0,0
170360.075,263.546,-374.857,0,0
170620.4,263.993,-370.592,0,0
170880.725,264.614,-366.034,0,0
171141.05,265.617,-361.432,0,0
171401.375,266.81,-356.727,0,0
171661.7,268.293,-352.2,0,0
171922.025,269.629,-347.411,0,0
172182.35,271.378,-342.264,0,0
172442.675,273.572,-336.888,0,0
172703.0,276.351,-331.427,0,0
172963.325,279.913,-326.08,0,0
173223.65,283.939,-321.421,0,0
173483.975,287.849,-317.139,0,0
173744.3,291.991,-312.846,0,0
174004.625,296.198,-308.783,0,0
174264.95,300.919,-304.814,0,0
174525.275,305.829,-301.404,0,0
174785.6,310.804,-298.542,0,0
175045.925,315.389,-296.324,0,0
175306.25,319.447,-293.935,0,0
175566.575,323.504,-291.638,0,0
175826.9,326.947,-289.484,0,0
176087.225,330.007,-286.735,0,0
176347.55,333.122,-283.309,0,0
176607.875,336.713,-279.281,0,0
176868.2,341.051,-275.002,0,0
177128.525,346.074,-270.963,0,0
177388.85,351.589,-267.253,0,0
177649.175,357.349,-264.029,0,0
177909.5,362.982,-261.171,0,0
178169.825,368.575,-258.193,0,0
178430.15,374.431,-255.242,0,0
178690.475,380.568,-252.529,0,0
178950.8,386.967,-249.871,0,0
179211.125,393.726,-247.593,0,0
179471.45,400.531,-245.49,0,0
179731.775,407.639,-243.874,0,0
179992.1,414.597,-242.648,0,0
180252.425,421.472,-241.658,0,0
180512.75,428.187,-240.829,0,0
180773.075,435.007,-240.092,0,0
181033.4,441.967,-239.503,0,0
181293.725,449.201,-239.271,0,0
181554.05,456.195,-239.692,0,0
181814.375,462.607,-240.416,0,0
182074.7,468.798,-240.787,0,0
182335.025,475.163,-241.474,0,0
182595.35,480.932,-242.059,0,0
182855.675,486.992,-242.363,0,0
183116.0,493.492,-243.048,0,0
183376.325,499.949,-244.18,0,0
183636.65,505.496,-246.03,0,0
183896.975,510.415,-247.048,0,0
184157.3,515.36,-247.7,0,0
184417.625,520.47,-247.836,0,0
184677.95,525.953,-247.856,0,0
184938.275,531.851,-248.073,0,0
185198.6,537.407,-248.405,0,0
185458.925,542.53,-248.785,0,0
185719.25,547.703,-247.939,0,0
185979.575,553.792,-246.732,0,0
186239.9,560.804,-245.186,0,0
186500,568.572,-243.919,0,0
186761,577.464,-243.127,0,0
187021,586.895,-243.619,0,0
187281,595.912,-245.188,0,0
187542,604.239,-246.985,0,0
187802,612.237,-248.45,0,0
188062,620.725,-249.333,0,0
188322,630.219,-250.365,0,0
188583,640.494,-252.046,0,0
188843,651.343,-254.905,0,0
189103,662.098,-259.059,0,0
189364,672.305,-264.043,0,0
189624,681.789,-270.018,0,0
189884,690.119,-276.18,0,0
190145,697.676,-281.773,0,0
190405,705.29,-286.851,0,0
190665,713.121,-291.967,0,0
190926,720.693,-297.094,0,0
191186,728.205,-301.473,0,0
191446,736.868,-305.452,0,0
191707,746.58,-309.85,0,0
191967,757.291,-315.315,0,0
192227,768.502,-322.223,0,0
192488,779.214,-330.884,0,0
192748,788.75,-340.525,0,0
193008,796.45,-350.897,0,0
193269,802.929,-359.329,0,0
193529,810.345,-366.545,0,0
193789,819.359,-372.909,0,0
194050,830.513,-380.153,0,0
194310,842.849,-389.239,0,0
194570,855.907,-400.27,0,0
194831,869.445,-413.89,0,0
195091,882.079,-430.637,0,0
195351,892.181,-449.865,0,0
195612,899.429,-469.737,0,0
195872,904.594,-489.03,0,0
196132,909.054,-507.715,0,0
196393,913.363,-526.71,0,0
196653,917.406,-546.947,0,0
196913,919.786,-568.747,0,0
197174,919.901,-591.44,0,0
197434,917.649,-614.35,0,0
197694,912.883,-636.903,0,0
197955,905.984,-658.547,0,0
198215,897.075,-678.66,0,0
198475,887.027,-696.999,0,0
198735,876.359,-713.626,0,0
198996,865.587,-728.989,0,0
199256,854.761,-743.881,0,0
199516,843.239,-758.254,0,0
199777,831.108,-771.794,0,0
200037,818.313,-784.643,0,0
200297,804.681,-796.781,0,0
200558,789.968,-807.622,0,0
200818,774.633,-816.653,0,0
201078,759.351,-823.727,0,0
201339,745.041,-829.36,0,0
201599,731.49,-834.309,0,0
201859,718.793,-838.727,0,0
202120,706.518,-843.12,0,0
202380.025,694.233,-847.367,0,0
202640.35,681.849,-851.863,0,0
202900.675,668.269,-855.803,0,0
203161.0,654.129,-858.117,0,0
203421.325,640.374,-859.055,0,0
203681.65,627.487,-858.842,0,0
203941.975,615.124,-858.427,0,0
204202.3,602.819,-857.297,0,0
204462.625,590.975,-855.123,0,0
204722.95,579.688,-852.151,0,0
204983.275,569.472,-848.274,0,0
205243.6,560.296,-843.932,0,0
205503.925,552.318,-839.907,0,0
205764.25,544.704,-836.289,0,0
206024.575,537.36,-832.277,0,0
206284.9,530.198,-828.362,0,0
206545.225,523.381,-824.077,0,0
206805.55,516.866,-819.233,0,0
207065.875,511.244,-813.902,0,0
207326.2,506.565,-808.485,0,0
207586.525,502.771,-803.001,0,0
207846.85,499.895,-797.863,0,0
208107.175,497.749,-793.043,0,0
208367.5,496.342,-788.922,0,0
208627.825,495.236,-785.74,0,0
208888.15,493.967,-783.073,0,0
209148.475,492.329,-780.67,0,0
209408.8,490.698,-778.219,0,0
209669.125,489.119,-775.615,0,0
209929.45,487.986,-772.897,0,0
210189.775,487.369,-770.288,0,0
210450.1,487.251,-768.085,0,0
210710.425,487.242,-766.27,0,0
210970.75,487.444,-764.897,0,0
211231.075,487.743,-763.917,0,0
211491.4,487.93,-763.397,0,0
211751.725,487.976,-763.006,0,0
212012.05,488.265,-762.774,0,0
212272.375,488.51,-762.706,0,0
212532.7,488.89,-763.056,0,0
212793.025,489.403,-763.791,0,0
213053.35,489.871,-765.047,0,0
213313.675,490.141,-766.828,0,0
213574.0,490.056,-769.183,0,0
213834.325,489.291,-771.869,0,0
214094.65,487.888,-774.567,0,0
214354.975,486.004,-777.205,0,0
214615.3,483.709,-779.745,0,0
214875.625,480.936,-782.152,0,0
215135.95,477.677,-784.091,0,0
215396.275,474.276,-785.802,0,0
215656.6,470.576,-787.059,0,0
215916.925,466.898,-787.807,0,0
216177.25,463.094,-788.111,0,0
216437.575,459.5,-787.914,0,0
216697.9,456.129,-787.339,0,0
216958.225,452.897,-786.495,0,0
217218.55,449.961,-785.143,0,0
217478.875,447.623,-783.359,0,0
217739.2,446.133,-781.5,0,0
217999.525,445.248,-779.996,0,0
218259.85,444.748,-778.712,0,0
218520,444.551,-777.813,0,0
218780,444.697,-777.287,0,0
219041,445.078,-777.35,0,0
219301,445.386,-777.877,0,0
219561,445.506,-778.748,0,0
219822,445.534,-779.78,0,0
220082,445.326,-780.991,0,0
220342,445.212,-782.315,0,0
220603,445.271,-783.862,0,0
220863,445.145,-785.739,0,0
221123,444.93,-787.917,0,0
221384,444.581,-790.425,0,0
221644,443.883,-793.23,0,0
221904,442.766,-796.188,0,0
222165,441.546,-799.108,0,0
222425,439.962,-802.339,0,0
222685,438.218,-805.569,0,0
222946,435.939,-808.988,0,0
223206,433.286,-812.265,0,0
223466,430.209,-815.463,0,0
223727,426.828,-818.307,0,0
223987,423.264,-820.863,0,0
224247,419.674,-823.26,0,0
224508,415.979,-825.257,0,0
224768,412.408,-827.293,0,0
225028,408.809,-829.141,0,0
225289,405.215,-831.01,0,0
225549,401.512,-832.998,0,0
225809,397.785,-834.824,0,0
226070,394.049,-836.837,0,0
226330,389.899,-838.93,0,0
226590,385.407,-840.885,0,0
226851,380.595,-842.582,0,0
227111,375.532,-843.992,0,0
227371,370.343,-844.877,0,0
227632,365.319,-845.417,0,0
227892,360.453,-845.669,0,0
228152,355.576,-846.045,0,0
228413,350.649,-846.104,0,0
228673,345.75,-845.758,0,0
228933,341.152,-845.196,0,0
229193,336.802,-844.536,0,0
229454,332.633,-843.891,0,0
229714,328.565,-843.337,0,0
229974,324.394,-842.745,0,0
230235,320.331,-842.177,0,0
230495,316.281,-841.664,0,0
230755,312.099,-841.097,0,0
231016,307.802,-840.562,0,0
231276,303.459,-839.767,0,0
231536,299.087,-838.838,0,0
231797,294.828,-837.73,0,0
232057,290.573,-836.627,0,0
232317,286.256,-835.422,0,0
232578,281.997,-834.052,0,0
232838,277.706,-832.661,0,0
233098,273.369,-831.078,0,0
233359,268.985,-829.172,0,0
233619,264.73,-827.163,0,0
233879,260.639,-825.022,0,0
234140,256.645,-822.783,0,0
234400,252.617,-820.281,0,0
234660.3,248.823,-817.659,0,0
234920.625,245.067,-814.919,0,0
235180.95,241.45,-811.824,0,0
235441.275,238.183,-808.833,0,0
235701.6,234.986,-805.675,0,0
235961.925,232.044,-802.417,0,0
236222.25,229.313,-799.15,0,0
236482.575,226.826,-795.85,0,0
236742.9,224.478,-792.57,0,0
237003.225,222.369,-789.265,0,0
237263.55,220.552,-786.038,0,0
237523.875,218.787,-782.945,0,0
237784.2,217.225,-779.858,0,0
238044.525,215.871,-776.898,0,0
238304.85,214.603,-774.101,0,0
238565.175,213.42,-771.373,0,0
238825.5,212.29,-768.781,0,0
239085.825,211.234,-766.162,0,0
239346.15,210.404,-763.639,0,0
239606.475,209.602,-761.395,0,0
239866.8,209.038,-759.459,0,0
240127.125,208.502,-757.652,0,0
240387.45,207.646,-756.101,0,0
240647.775,206.756,-754.75,0,0
240908.1,205.713,-753.519,0,0
241168.425,204.466,-752.319,0,0
241428.75,202.93,-751.223,0,0
241689.075,201.314,-750.036,0,0
241949.4,199.48,-748.721,0,0
242209.725,197.583,-747.361,0,0
242470.05,195.527,-745.83,0,0
242730.375,193.362,-744.097,0,0
242990.7,191.206,-742.181,0,0
243251.025,189.168,-739.997,0,0
243511.35,187.187,-737.742,0,0
243771.675,185.32,-735.336,0,0
244032.0,183.635,-732.914,0,0
244292.325,182.099,-730.435,0,0
244552.65,180.664,-727.959,0,0
244812.975,179.326,-725.568,0,0
245073.3,177.921,-723.318,0,0
245333.625,176.447,-720.971,0,0
245593.95,174.919,-718.568,0,0
245854.275,173.515,-716.024,0,0
246114.6,172.092,-713.286,0,0
246374.925,170.794,-710.475,0,0
246635.25,169.715,-707.536,0,0
246895.575,168.778,-704.609,0,0
247155.9,167.911,-701.605,0,0
247416.225,167.387,-698.668,0,0
247676.55,167.026,-695.846,0,0
247936.875,166.743,-693.17,0,0
248197.2,166.421,-690.579,0,0
248457.525,166.224,-688.077,0,0
248717.85,165.882,-685.714,0,0
248978.175,165.545,-683.312,0,0
249238.5,165.23,-680.784,0,0
249498.825,164.976,-678.236,0,0
249759.15,164.712,-675.709,0,0
250019.475,164.742,-673.058,0,0
250279.8,164.717,-670.532,0,0
250540,164.87,-667.977,0,0
250800,165.087,-665.432,0,0
251061,165.324,-662.93,0,0
251321,165.698,-660.404,0,0
251581,166.204,-657.859,0,0
251842,166.867,-655.322,0,0
252102,167.771,-652.945,0,0
252362,168.821,-650.693,0,0
252623,170.047,-648.635,0,0
252883,171.366,-646.88,0,0
253143,172.709,-645.494,0,0
253404,173.839,-644.334,0,0
253664,174.789,-643.424,0,0
253924,175.433,-642.591,0,0
254185,175.833,-641.7,0,0
254445,176.044,-640.648,0,0
254705,176.126,-639.381,0,0
254966,176.25,-637.99,0,0
255226,176.479,-636.409,0,0
255486,176.803,-634.733,0,0
255747,177.255,-633.072,0,0
256007,177.846,-631.37,0,0
256267,178.579,-629.677,0,0
256528,179.439,-628.044,0,0
256788,180.46,-626.522,0,0
257048,181.542,-625.225,0,0
257309,182.55,-624.036,0,0
257569,183.483,-622.889,0,0
257829,184.437,-621.719,0,0
258090,185.41,-620.497,0,0
258350,186.497,-619.283,0,0
258610,187.714,-618.151,0,0
258871,189.06,-617.154,0,0
259131,190.368,-616.355,0,0
259391,191.655,-615.621,0,0
259651,193.008,-614.974,0,0
259912,194.367,-614.355,0,0
260172,195.683,-614.003,0,0
260432,196.848,-613.737,0,0
260693,197.975,-613.541,0,0
260953,199.006,-613.278,0,0
261213,200.107,-612.962,0,0
261474,201.307,-612.743,0,0
261734,202.53,-612.73,0,0
261994,203.676,-612.852,0,0
262255,204.704,-613.102,0,0
262515,205.63,-613.43,0,0
262775,206.38,-613.855,0,0
263036,206.927,-614.255,0,0
263296,207.297,-614.51,0,0
263556,207.584,-614.659,0,0
263817,207.963,-614.66,0,0
264077,208.41,-614.655,0,0
264337,208.806,-614.729,0,0
264598,209.028,-614.645,0,0
264858,209.227,-614.496,0,0
265118,209.503,-614.151,0,0
265379,209.885,-613.536,0,0
265639,210.491,-612.839,0,0
265899,211.336,-612.122,0,0
266160,212.363,-611.397,0,0
266420,213.753,-610.698,0,0
266680.25,215.37,-610.187,0,0
266940.575,217.179,-609.83,0,0
267200.9,219.165,-609.725,0,0
267461.225,221.281,-609.831,0,0
267721.55,223.562,-610.19,0,0
267981.875,226,-610.983,0,0
268242.2,228.378,-611.983,0,0
268502.525,230.723,-613.281,0,0
268762.85,233.113,-614.908,0,0
269023.175,235.529,-616.912,0,0
269283.5,237.884,-619.328,0,0
269543.825,239.905,-622.338,0,0
269804.15,241.555,-625.581,0,0
270064.475,242.843,-629.1,0,0
270324.8,243.722,-632.593,0,0
270585.125,244.437,-636.146,0,0
270845.45,245.141,-639.867,0,0
271105.775,245.378,-643.834,0,0
271366.1,245.238,-648.032,0,0
271626.425,244.668,-652.334,0,0
271886.75,243.618,-656.771,0,0
272147.075,242.182,-661.144,0,0
272407.4,240.273,-665.452,0,0
272667.725,237.949,-669.75,0,0
272928.05,235.081,-674.002,0,0
273188.375,231.675,-677.946,0,0
273448.7,227.787,-681.554,0,0
273709.025,223.518,-684.702,0,0
273969.35,218.982,-687.364,0,0
274229.675,214.247,-689.51,0,0
274490.0,209.433,-691.208,0,0
274750.325,204.604,-692.474,0,0
275010.65,199.809,-693.297,0,0
275270.975,195.015,-693.754,0,0
275531.3,190.186,-693.798,0,0
275791.625,185.463,-693.492,0,0
276051.95,180.877,-692.695,0,0
276312.275,176.576,-691.505,0,0
276572.6,172.574,-690,0,0
276832.925,168.987,-688.368,0,0
277093.25,165.768,-686.644,0,0
277353.575,162.808,-684.974,0,0
277613.9,159.996,-683.346,0,0
277874.225,157.173,-681.84,0,0
278134.55,154.535,-680.16,0,0
278394.875,152.037,-678.446,0,0
278655.2,149.587,-676.728,0,0
278915.525,147.215,-674.941,0,0
279175.85,144.944,-673.078,0,0
279436.175,142.826,-671.184,0,0
279696.5,140.762,-669.263,0,0
279956.825,138.832,-667.194,0,0
280217.15,136.988,-665.157,0,0
280477.475,135.321,-662.965,0,0
280737.8,133.866,-660.7,0,0
280998.125,132.644,-658.516,0,0
281258.45,131.69,-656.403,0,0
281518.775,130.83,-654.475,0,0
281779.1,130.027,-652.717,0,0
282039.425,129.18,-651.068,0,0
282299.75,128.342,-649.404,0,0
282560,127.511,-647.726,0,0
282820,126.78,-645.982,0,0
283081,126.122,-644.302,0,0
283341,125.552,-642.66,0,0
283601,125.053,-641.064,0,0
283862,124.622,-639.525,0,0
284122,124.234,-637.999,0,0
284382,123.908,-636.474,0,0
284643,123.723,-634.976,0,0
284903,123.662,-633.589,0,0
285163,123.655,-632.379,0,0
285424,123.659,-631.207,0,0
285684,123.706,-630.08,0,0
285944,123.841,-628.996,0,0
286205,124.086,-628.069,0,0
286465,124.417,-627.286,0,0
286725,124.698,-626.638,0,0
286986,125.146,-626.153,0,0
287246,125.653,-625.948,0,0
287506,126.11,-626.077,0,0
287767,126.359,-626.502,0,0
288027,126.355,-627.171,0,0
288287,125.983,-627.97,0,0
288548,125.299,-628.798,0,0
288808,124.307,-629.541,0,0
289068,123.071,-630.163,0,0
289329,121.665,-630.64,0,0
289589,120.107,-630.958,0,0
289849,118.44,-631.092,0,0
290109,116.735,-631.071,0,0
290370,114.968,-630.895,0,0
290630,113.171,-630.558,0,0
290890,111.424,-630.089,0,0
291151,109.736,-629.462,0,0
291411,108.109,-628.792,0,0
291671,106.581,-628.059,0,0
291932,105.109,-627.375,0,0
292192,103.61,-626.709,0,0
292452,102.045,-626.049,0,0
292713,100.382,-625.34,0,0
292973,98.6794,-624.536,0,0
293233,96.9505,-623.592,0,0
293494,95.2128,-622.525,0,0
293754,93.5042,-621.377,0,0
294014,91.8382,-620.09,0,0
294275,90.2566,-618.69,0,0
294535,88.7442,-617.236,0,0
294795,87.3321,-615.689,0,0
295056,86.0136,-614.135,0,0
295316,84.7788,-612.557,0,0
295576,83.6654,-610.944,0,0
295837,82.5985,-609.392,0,0
296097,81.5818,-607.855,0,0
296357,80.5702,-606.29,0,0
296618,79.5894,-604.721,0,0
296878,78.6456,-603.107,0,0
297138,77.7663,-601.476,0,0
297399,76.9336,-599.852,0,0
297659,76.1576,-598.227,0,0
297919,75.4173,-596.587,0,0
298180,74.7385,-594.957,0,0
298440,74.1058,-593.315,0,0
298700.2,73.5027,-591.68,0,0
298960.525,72.952,-590.059,0,0
299220.85,72.4563,-588.396,0,0
299481.175,72.0041,-586.775,0,0
299741.5,71.6081,-585.166,0,0
300001.825,71.2536,-583.591,0,0
300262.15,70.9495,-582.034,0,0
300522.475,70.6544,-580.481,0,0
300782.8,70.4033,-578.953,0,0
301043.125,70.1655,-577.429,0,0
301303.45,69.9663,-575.906,0,0
301563.775,69.8234,-574.385,0,0
301824.1,69.7144,-572.865,0,0
302084.425,69.6773,-571.364,0,0
302344.75,69.7173,-569.872,0,0
302605.075,69.8051,-568.449,0,0
302865.4,69.9637,-567.083,0,0
303125.725,70.1504,-565.809,0,0
303386.05,70.3419,-564.571,0,0
303646.375,70.5634,-563.39,0,0
303906.7,70.814,-562.282,0,0
304167.025,71.0458,-561.236,0,0
304427.35,71.2558,-560.263,0,0
304687.675,71.4666,-559.307,0,0
304948.0,71.6606,-558.396,0,0
305208.325,71.8329,-557.555,0,0
305468.65,71.9804,-556.713,0,0
305728.975,72.1186,-555.896,0,0
305989.3,72.2319,-555.095,0,0
306249.625,72.3426,-554.282,0,0
306509.95,72.4918,-553.488,0,0
306770.275,72.6653,-552.73,0,0
307030.6,72.8482,-552.023,0,0
307290.925,73.0278,-551.362,0,0
307551.25,73.1904,-550.767,0,0
307811.575,73.3079,-550.239,0,0
308071.9,73.3758,-549.711,0,0
308332.225,73.4448,-549.209,0,0
308592.55,73.4957,-548.732,0,0
308852.875,73.5444,-548.298,0,0
309113.2,73.5327,-547.943,0,0
309373.525,73.4405,-547.592,0,0
309633.85,73.297,-547.279,0,0
309894.175,73.0722,-546.971,0,0
310154.5,72.7784,-546.593,0,0
310414.825,72.4265,-546.217,0,0
310675.15,72.0605,-545.77,0,0
310935.475,71.6813,-545.262,0,0
311195.8,71.3071,-544.738,0,0
311456.125,70.9309,-544.197,0,0
311716.45,70.5831,-543.653,0,0
311976.775,70.2229,-543.086,0,0
312237.1,69.8597,-542.515,0,0
312497.425,69.5258,-541.955,0,0
312757.75,69.1421,-541.392,0,0
313018.075,68.768,-540.842,0,0
313278.4,68.3627,-540.266,0,0
313538.725,67.9501,-539.691,0,0
313799.05,67.5299,-539.112,0,0
314059.375,67.0878,-538.531,0,0
314319.7,66.5986,-537.925,0,0
314580,66.1225,-537.295,0,0
314840,65.5823,-536.591,0,0
315101,65.0701,-535.889,0,0
315361,64.5203,-535.097,0,0
315621,64.1244,-534.278,0,0
315882,63.5851,-533.344,0,0
316142,63.2484,-532.507,0,0
316402,62.7853,-531.655,0,0
316663,62.5586,-530.764,0,0
316923,62.1938,-529.866,0,0
317183,61.9389,-528.906,0,0
317444,61.6988,-528.072,0,0
317704,61.52,-527.114,0,0
317964,61.3788,-526.327,0,0
318225,61.2339,-525.435,0,0
318485,61.082,-524.603,0,0
318745,60.9772,-523.811,0,0
319006,60.9161,-522.981,0,0
319266,60.8187,-522.267,0,0
319526,60.7853,-521.587,0,0
319787,60.7568,-520.889,0,0
320047,60.6139,-520.275,0,0
320307,60.6582,-519.636,0,0
320567,60.5899,-519.051,0,0
320828,60.5329,-518.443,0,0
321088,60.4121,-517.926,0,0
321348,60.3967,-517.455,0,0
321609,60.1572,-517.016,0,0
321869,60.0456,-516.578,0,0
322129,59.7918,-516.141,0,0
322390,59.5115,-515.697,0,0
322650,59.19,-515.177,0,0
322910,58.8549,-514.73,0,0
323171,58.5684,-514.193,0,0
323431,58.2207,-513.751,0,0
323691,57.9234,-513.22,0,0
323952,57.6387,-512.684,0,0
324212,57.2738,-512.172,0,0
324472,56.9088,-511.707,0,0
324733,56.5071,-511.22,0,0
324993,56.0326,-510.647,0,0
325253,55.5401,-510.087,0,0
325514,55.054,-509.53,0,0
325774,54.5842,-508.838,0,0
326034,54.1222,-508.186,0,0
326295,53.6712,-507.562,0,0
326555,53.1634,-506.795,0,0
326815,52.7374,-506.071,0,0
327076,52.3443,-505.297,0,0
327336,51.923,-504.532,0,0
327596,51.5635,-503.814,0,0
327857,51.181,-503.058,0,0
328117,50.7407,-502.274,0,0
328377,50.3811,-501.492,0,0
328638,49.9924,-500.712,0,0
328898,49.6309,-499.881,0,0
329158,49.2927,-499.092,0,0
329419,48.9487,-498.247,0,0
329679,48.5542,-497.491,0,0
329939,48.2617,-496.605,0,0
330200,47.9975,-495.779,0,0
330460,47.635,-494.953,0,0
330720.15,47.4385,-494.064,0,0
330980.475,47.118,-493.222,0,0
331240.8,46.8709,-492.382,0,0
331501.125,46.6515,-491.566,0,0
331761.45,46.4361,-490.723,0,0
332021.775,46.1658,-489.862,0,0
332282.1,45.892,-489.029,0,0
332542.425,45.7144,-488.203,0,0
332802.75,45.4739,-487.32,0,0
333063.075,45.2849,-486.448,0,0
333323.4,45.0575,-485.579,0,0
333583.725,44.9155,-484.698,0,0
333844.05,44.7487,-483.793,0,0
334104.375,44.6653,-482.932,0,0
334364.7,44.5644,-482.064,0,0
334625.025,44.4777,-481.213,0,0
334885.35,44.3694,-480.332,0,0
335145.675,44.3143,-479.479,0,0
335406.0,44.2871,-478.626,0,0
335666.325,44.3658,-477.807,0,0
335926.65,44.3125,-477.077,0,0
336186.975,44.3241,-476.336,0,0
336447.3,44.2964,-475.54,0,0
336707.625,44.2883,-474.795,0,0
336967.95,44.3471,-474.101,0,0
337228.275,44.3398,-473.412,0,0
337488.6,44.3368,-472.758,0,0
337748.925,44.3257,-472.125,0,0
338009.25,44.2638,-471.464,0,0
338269.575,44.2459,-470.839,0,0
338529.9,44.2084,-470.187,0,0
338790.225,44.1359,-469.54,0,0
339050.55,44.1009,-468.91,0,0
339310.875,43.9714,-468.268,0,0
339571.2,43.9665,-467.704,0,0
339831.525,43.8153,-467.005,0,0
340091.85,43.7856,-466.416,0,0
340352.175,43.6897,-465.808,0,0
340612.5,43.5937,-465.157,0,0
340872.825,43.4894,-464.619,0,0
341133.15,43.3277,-463.976,0,0
341393.475,43.2396,-463.367,0,0
341653.8,43.0827,-462.737,0,0
341914.125,42.9353,-462.072,0,0
342174.45,42.7882,-461.425,0,0
342434.775,42.6553,-460.811,0,0
342695.1,42.5193,-460.14,0,0
342955.425,42.361,-459.446,0,0
343215.75,42.1667,-458.827,0,0
343476.075,42.0426,-458.121,0,0
343736.4,41.8491,-457.424,0,0
343996.725,41.7262,-456.713,0,0
344257.05,41.6001,-455.965,0,0
344517.375,41.457,-455.228,0,0
344777.7,41.3575,-454.455,0,0
345038.025,41.2514,-453.765,0,0
345298.35,41.1946,-452.959,0,0
345558.675,41.0673,-452.228,0,0
345819.0,41.0322,-451.439,0,0
346079.325,40.956,-450.728,0,0
346339.65,40.9162,-449.972,0,0
346599.975,40.8485,-449.236,0,0
346860,40.8243,-448.506,0,0
347121,40.7774,-447.732,0,0
347381,40.7649,-446.999,0,0
347641,40.7713,-446.25,0,0
347902,40.7913,-445.499,0,0
348162,40.8145,-444.739,0,0
348422,40.8254,-444.02,0,0
348683,40.9087,-443.325,0,0
348943,40.9868,-442.632,0,0
349203,41.0082,-441.957,0,0
349464,41.0694,-441.241,0,0
349724,41.1362,-440.527,0,0
349984,41.2582,-439.867,0,0
350245,41.2765,-439.164,0,0
350505,41.3998,-438.475,0,0
350765,41.4882,-437.84,0,0
351025,41.5826,-437.256,0,0
351286,41.6818,-436.541,0,0
351546,41.811,-435.959,0,0
351806,41.8831,-435.366,0,0
352067,42.0194,-434.793,0,0
352327,42.1294,-434.178,0,0
352587,42.2176,-433.646,0,0
352848,42.2941,-433.08,0,0
353108,42.3494,-432.521,0,0
353368,42.3807,-431.964,0,0
353629,42.4757,-431.365,0,0
353889,42.5825,-430.798,0,0
354149,42.631,-430.201,0,0
354410,42.7276,-429.671,0,0
354670,42.7781,-429.161,0,0
354930,42.8992,-428.588,0,0
355191,42.9864,-428.095,0,0
355451,43.0168,-427.529,0,0
355711,43.1564,-427.057,0,0
355972,43.1935,-426.56,0,0
356232,43.2542,-426.055,0,0
356492,43.3371,-425.596,0,0
356753,43.3856,-425.119,0,0
357013,43.3951,-424.635,0,0
357273,43.4375,-424.184,0,0
357534,43.386,-423.739,0,0
357794,43.4203,-423.28,0,0
358054,43.4041,-422.77,0,0
358315,43.3738,-422.283,0,0
358575,43.3407,-421.833,0,0
358835,43.2903,-421.311,0,0
359096,43.2448,-420.814,0,0
359356,43.2036,-420.283,0,0
359616,43.1308,-419.762,0,0
359877,43.1192,-419.217,0,0
360137,43.0176,-418.69,0,0
360397,43.0168,-418.108,0,0
360658,42.9422,-417.569,0,0
360918,42.9557,-416.951,0,0
361178,42.914,-416.331,0,0
361438,42.9034,-415.805,0,0
361699,42.8978,-415.199,0,0
361959,42.8467,-414.605,0,0
362219,42.8753,-414.006,0,0
362480,42.8769,-413.415,0,0
362740.1,42.8765,-412.828,0,0
363000.425,42.9,-412.207,0,0
363260.75,42.9207,-411.581,0,0
363521.075,42.9826,-410.962,0,0
363781.4,43.0261,-410.361,0,0
364041.725,43.0522,-409.714,0,0
364302.05,43.1503,-409.117,0,0
364562.375,43.26,-408.502,0,0
364822.7,43.3375,-407.905,0,0
365083.025,43.4454,-407.316,0,0
365343.35,43.5436,-406.724,0,0
365603.675,43.6967,-406.134,0,0
365864.0,43.8229,-405.532,0,0
366124.325,43.9851,-404.954,0,0
366384.65,44.1475,-404.383,0,0
366644.975,44.3303,-403.825,0,0
366905.3,44.4911,-403.298,0,0
367165.625,44.671,-402.791,0,0
367425.95,44.814,-402.332,0,0
367686.275,44.9748,-401.821,0,0
367946.6,45.1349,-401.338,0,0
368206.925,45.246,-400.87,0,0
368467.25,45.3939,-400.346,0,0
368727.575,45.5401,-399.858,0,0
368987.9,45.6559,-399.351,0,0
369248.225,45.7957,-398.808,0,0
369508.55,45.932,-398.339,0,0
369768.875,46.0818,-397.8,0,0
370029.2,46.3465,-397.298,0,0
370289.525,46.5703,-396.789,0,0
370549.85,46.8066,-396.324,0,0
370810.175,47.0694,-395.885,0,0
371070.5,47.3426,-395.451,0,0
371330.825,47.604,-395.032,0,0
371591.15,47.8579,-394.73,0,0
371851.475,48.1053,-394.4,0,0
372111.8,48.2714,-394.083,0,0
372372.125,48.4788,-393.823,0,0
372632.45,48.6599,-393.538,0,0
372892.775,48.8347,-393.275,0,0
373153.1,48.9442,-393.024,0,0
373413.425,49.0894,-392.751,0,0
373673.75,49.1735,-392.467,0,0
373934.075,49.2374,-392.25,0,0
374194.4,49.3006,-391.975,0,0
374454.725,49.3438,-391.648,0,0
374715.05,49.3969,-391.404,0,0
374975.375,49.4345,-391.069,0,0
375235.7,49.4311,-390.749,0,0
375496.025,49.5029,-390.393,0,0
375756.35,49.5687,-390.082,0,0
376016.675,49.6012,-389.749,0,0
376277.0,49.6834,-389.435,0,0
376537.325,49.7323,-389.148,0,0
376797.65,49.8198,-388.862,0,0
377057.975,49.8335,-388.578,0,0
377318.3,49.9264,-388.264,0,0
377578.625,49.9506,-387.968,0,0
377838.95,50.0262,-387.706,0,0
378099.275,50.0491,-387.483,0,0
378359.6,50.0253,-387.24,0,0
378619.925,49.9701,-387.034,0,0
378880,49.8507,-386.727,0,0
379141,49.7596,-386.471,0,0
379401,49.6584,-386.098,0,0
379661,49.5643,-385.673,0,0
379922,49.5047,-385.216,0,0
380182,49.4676,-384.704,0,0
380442,49.5718,-384.216,0,0
380703,49.6594,-383.799,0,0
380963,49.8984,-383.383,0,0
381223,50.1595,-383.054,0,0
381483,50.4095,-382.881,0,0
381744,50.6483,-382.753,0,0
382004,50.7695,-382.752,0,0
382264,50.8578,-382.78,0,0
382525,50.7759,-382.839,0,0
382785,50.5675,-382.909,0,0
383045,50.2966,-382.911,0,0
383306,49.9334,-382.793,0,0
383566,49.6366,-382.623,0,0
383826,49.2378,-382.345,0,0
384087,48.8529,-382.053,0,0
384347,48.4907,-381.676,0,0
384607,48.163,-381.28,0,0
384868,47.8709,-380.886,0,0
385128,47.5316,-380.415,0,0
385388,47.2755,-379.942,0,0
385649,46.9871,-379.485,0,0
385909,46.7348,-378.95,0,0
386169,46.5033,-378.429,0,0
386430,46.2868,-377.934,0,0
386690,46.0282,-377.335,0,0
386950,45.8653,-376.794,0,0
387211,45.6787,-376.227,0,0
387471,45.5217,-375.618,0,0
387731,45.3324,-375.051,0,0
387992,45.2626,-374.463,0,0
388252,45.1776,-373.871,0,0
388512,45.0622,-373.27,0,0
388773,45.01,-372.648,0,0
389033,44.9632,-372.046,0,0
389293,44.8978,-371.468,0,0
389554,44.9089,-370.849,0,0
389814,44.8975,-370.313,0,0
390074,44.9323,-369.746,0,0
390335,44.9851,-369.216,0,0
390595,44.9984,-368.651,0,0
390855,45.0442,-368.201,0,0
391116,45.0473,-367.683,0,0
391376,45.0392,-367.214,0,0
391636,45.0542,-366.744,0,0
391896,45.0244,-366.272,0,0
392157,44.9976,-365.766,0,0
392417,44.9794,-365.256,0,0
392677,44.9506,-364.761,0,0
392938,44.9105,-364.261,0,0
393198,44.9212,-363.75,0,0
393458,44.8962,-363.225,0,0
393719,44.8844,-362.713,0,0
393979,44.8461,-362.154,0,0
394239,44.8389,-361.643,0,0
394500,44.8605,-361.088,0,0
394760.05,44.8637,-360.511,0,0
395020.375,44.8567,-359.953,0,0
395280.7,44.9279,-359.402,0,0
395541.025,44.9684,-358.833,0,0
395801.35,45.0529,-358.298,0,0
396061.675,45.1093,-357.79,0,0
396322.0,45.1853,-357.238,0,0
396582.325,45.2718,-356.724,0,0
396842.65,45.359,-356.17,0,0
397102.975,45.4682,-355.696,0,0
397363.3,45.5859,-355.184,0,0
397623.625,45.6929,-354.718,0,0
397883.95,45.7575,-354.271,0,0
398144.275,45.8716,-353.806,0,0
398404.6,45.9458,-353.368,0,0
398664.925,46.0149,-352.94,0,0
398925.25,46.1126,-352.457,0,0
399185.575,46.1482,-352.014,0,0
399445.9,46.215,-351.6,0,0
399706.225,46.2407,-351.154,0,0
399966.55,46.2625,-350.682,0,0
400006.6,46.2729,-350.645,0,0