File: Accelerated corrosion test data/2025-10-02_06-00-03/sample_7.csv
Frequency (Hz),Impedance (ohms),Phase (Radians),Temperature (C),Humidity (%)
10000.0,277.699,-12084.4,0,0
10260.325,281.661,-11793,0,0
10520.65,261.016,-11494.7,0,0
10780.975,255.203,-11213.5,0,0
11041.3,251.912,-10945.6,0,0
11301.625,249.083,-10690.4,0,0
11561.95,251.022,-10442,0,0
11822.275,260.226,-10214,0,0
12082.6,264.237,-9987.92,0,0
12342.925,325.89,-9800.4,0,0
12603.25,266.632,-9645.93,0,0
12863.575,271.094,-9443.31,0,0
13123.9,241.534,-9268.92,0,0
13384.225,236.145,-9095.51,0,0
13644.55,223.336,-8909.81,0,0
13904.875,210.747,-8747.73,0,0
14165.2,206.974,-8576.46,0,0
14425.525,210.526,-8437.62,0,0
14685.8,207.226,-8283.47,0,0
14946.175,200.86,-8138.13,0,0
15206.5,201.399,-8006.73,0,0
15466.825,187.04,-7867.42,0,0
15727.15,188.274,-7739.04,0,0
15987.5,181.391,-7610.53,0,0
16247.8,182.213,-7488.81,0,0
16508.125,174.084,-7369.26,0,0
16768.45,173.07,-7250.47,0,0
17028.775,173.345,-7140.76,0,0
17289.1,169.355,-7032.34,0,0
17549.425,168.683,-6923.07,0,0
17809.75,170.546,-6813.87,0,0
18070.075,173.024,-6717.33,0,0
18330.4,180.498,-6611.24,0,0
18590.725,199.463,-6526.1,0,0
18851.05,197.744,-6462.96,0,0
19111.375,183.683,-6378.67,0,0
19371.7,206.397,-6298.89,0,0
19632.025,173.118,-6232.72,0,0
19892.35,158.813,-6135.57,0,0
20152.675,171.583,-6048.18,0,0
20413.0,175.28,-5977.58,0,0
20673.3,170.037,-5900.94,0,0
20933.65,178.844,-5838.01,0,0
21193.975,162.672,-5778.31,0,0
21454.3,154.198,-5703.22,0,0
21714.625,156.984,-5634.89,0,0
21974.9,149.089,-5572.89,0,0
22235.275,143.355,-5504.83,0,0
22495.6,142.006,-5440.96,0,0
22755.925,136.506,-5378.06,0,0
23016.25,132.753,-5314.95,0,0
23276.6,130.513,-5252.19,0,0
23536.9,130.518,-5191.5,0,0
23797.225,130.755,-5136.02,0,0
24057.55,126.906,-5079.67,0,0
24317.875,124.528,-5022.16,0,0
24578.2,125.894,-4967.09,0,0
24838.525,123.49,-4914.06,0,0
25098.85,123.131,-4862.34,0,0
25359.175,121.81,-4809.93,0,0
25619.5,120.752,-4758.32,0,0
25879.8,121.525,-4708.23,0,0
26140.1,121.462,-4656.56,0,0
26400.5,125.698,-4608.46,0,0
26660.8,125.109,-4563.78,0,0
26921.1,124.984,-4513.58,0,0
27181.4,130.95,-4465.43,0,0
27441.8,134.211,-4421.68,0,0
27702.1,145.841,-4372.53,0,0
27962.4,161.061,-4332.19,0,0
28222.7,182.061,-4306.57,0,0
28483.1,183.09,-4290.63,0,0
28743.4,176.327,-4271.2,0,0
29003.7,161.128,-4244.25,0,0
29264,146.783,-4207.46,0,0
29524.4,138.709,-4167.16,0,0
29784.7,134.331,-4129.87,0,0
30045,129.425,-4087.61,0,0
30305.3,132.562,-4049.05,0,0
30565.7,133.829,-4016.04,0,0
30826,137.617,-3984.03,0,0
31086.3,138.322,-3955.96,0,0
31346.6,134.132,-3928.9,0,0
31607,132.435,-3902.93,0,0
31867.3,122.633,-3872.03,0,0
32127.6,119.752,-3839.5,0,0
32387.9,116.259,-3809.44,0,0
32648.3,112.322,-3779.19,0,0
32908.6,109.002,-3747.92,0,0
33168.9,106.116,-3718.18,0,0
33429.2,103.683,-3688.44,0,0
33689.6,100.98,-3658.53,0,0
33949.9,99.6624,-3629.15,0,0
34210.2,97.1413,-3600.98,0,0
34470.5,95.8494,-3572.04,0,0
34730.9,94.6122,-3544.02,0,0
34991.2,93.3404,-3516.53,0,0
35251.5,92.2582,-3489.77,0,0
35511.8,91.0902,-3462.77,0,0
35772.2,90.4468,-3436.26,0,0
36032.5,90.1994,-3410.3,0,0
36292.8,89.4342,-3385.41,0,0
36553.1,88.7214,-3360.4,0,0
36813.5,88.0852,-3335.39,0,0
37073.8,87.9465,-3310.7,0,0
37334.1,87.874,-3286.67,0,0
37594.4,87.7181,-3263.22,0,0
37854.8,86.8679,-3240.12,0,0
38115.1,86.708,-3216.08,0,0
38375.4,87.137,-3192.99,0,0
38635.7,88.1881,-3169.94,0,0
38896.1,89.5089,-3147.18,0,0
39156.4,91.3302,-3126.17,0,0
39416.7,93.9809,-3104.6,0,0
39677,97.7227,-3085.91,0,0
39937.4,99.0409,-3069.77,0,0
40197.7,98.9898,-3053.43,0,0
40458,97.3732,-3037.55,0,0
40718.3,93.9565,-3019.84,0,0
40978.7,91.1806,-3001.31,0,0
41239,88.7463,-2982.49,0,0
41499.3,86.5644,-2963.16,0,0
41759.6,85.471,-2943.95,0,0
42020,83.8861,-2925.07,0,0
42280.275,82.3986,-2906.14,0,0
42540.6,81.5137,-2886.6,0,0
42800.925,81.9516,-2868.22,0,0
43061.25,81.8013,-2849.75,0,0
43321.575,82.8798,-2833.02,0,0
43581.9,81.2475,-2815.96,0,0
43842.225,80.7802,-2797.63,0,0
44102.55,82.1306,-2780.07,0,0
44362.875,83.8255,-2764.17,0,0
44623.2,84.1521,-2749.6,0,0
44883.525,83.9738,-2736.25,0,0
45143.85,81.7626,-2720.62,0,0
45404.175,80.727,-2704.78,0,0
45664.5,80.6377,-2687.75,0,0
45924.825,82.202,-2673.58,0,0
46185.15,81.4425,-2660.88,0,0
46445.475,79.1887,-2647.26,0,0
46705.8,76.6528,-2633.06,0,0
46966.125,74.4322,-2617.67,0,0
47226.45,73.2562,-2601.83,0,0
47486.775,72.7032,-2586.32,0,0
47747.1,72.1529,-2571.56,0,0
48007.425,72.055,-2557.19,0,0
48267.75,71.6182,-2543,0,0
48528.075,71.0551,-2529.23,0,0
48788.4,70.5167,-2515.34,0,0
49048.725,69.8136,-2501.42,0,0
49309.05,69.2662,-2487.66,0,0
49569.375,68.8049,-2474.18,0,0
49829.7,68.3704,-2460.62,0,0
50090.025,68.0954,-2447.28,0,0
50350.35,67.778,-2434.32,0,0
50610.675,67.4958,-2421.26,0,0
50871.0,67.1922,-2408.47,0,0
51131.325,66.727,-2395.8,0,0
51391.65,66.3182,-2383.25,0,0
51651.975,66.0932,-2370.7,0,0
51912.3,65.7358,-2358.38,0,0
52172.625,65.5662,-2345.89,0,0
52432.95,65.4909,-2334.02,0,0
52693.275,65.1695,-2322,0,0
52953.6,65.2526,-2310.17,0,0
53213.925,65.0721,-2298.57,0,0
53474.25,65.0715,-2287.14,0,0
53734.575,64.6387,-2275.98,0,0
53994.9,64.172,-2264.73,0,0
54255.225,63.8936,-2253.41,0,0
54515.55,63.6183,-2242.21,0,0
54775.875,63.3683,-2231.1,0,0
55036.2,63.2495,-2220.22,0,0
55296.525,62.8996,-2209.21,0,0
55556.85,62.686,-2198.63,0,0
55817.175,62.4414,-2187.92,0,0
56077.5,62.227,-2177.26,0,0
56337.825,62.1851,-2166.54,0,0
56598.15,62.2838,-2156.52,0,0
56858.475,61.9047,-2146.21,0,0
57118.8,61.7839,-2136.05,0,0
57379.125,61.5606,-2126.11,0,0
57639.45,61.4023,-2116.01,0,0
57899.775,61.12,-2105.95,0,0
58160.1,61.1058,-2095.79,0,0
58420.4,61.5398,-2086.01,0,0
58680.7,61.7166,-2076.73,0,0
58941.1,61.5498,-2067.47,0,0
59201.4,61.2544,-2058.2,0,0
59461.7,61.3023,-2048.68,0,0
59722,61.4323,-2039.57,0,0
59982.4,61.3767,-2030.64,0,0
60242.7,61.5265,-2021.79,0,0
60503,61.3908,-2013.35,0,0
60763.3,60.8316,-2004.73,0,0
61023.7,60.4324,-1996.08,0,0
61284,59.9783,-1987.26,0,0
61544.3,59.6914,-1978.58,0,0
61804.6,59.2779,-1970.02,0,0
62065,58.8745,-1961.37,0,0
62325.3,58.4249,-1952.68,0,0
62585.6,58.189,-1944.1,0,0
62845.9,57.9698,-1935.65,0,0
63106.3,57.8917,-1927.2,0,0
63366.6,57.633,-1918.85,0,0
63626.9,57.5769,-1910.75,0,0
63887.2,57.3589,-1902.56,0,0
64147.6,57.0173,-1894.42,0,0
64407.9,56.781,-1886.3,0,0
64668.2,56.6402,-1878.18,0,0
64928.5,56.6576,-1870.04,0,0
65188.9,56.6316,-1862.18,0,0
65449.2,56.852,-1854.29,0,0
65709.5,56.9607,-1846.97,0,0
65969.8,56.6122,-1839.74,0,0
66230.2,56.4286,-1832.26,0,0
66490.5,56.1588,-1824.81,0,0
66750.8,55.8993,-1817.56,0,0
67011.1,55.6589,-1810.35,0,0
67271.5,55.1625,-1802.9,0,0
67531.8,54.66,-1795.4,0,0
67792.1,54.4691,-1787.96,0,0
68052.4,54.2644,-1780.91,0,0
68312.8,53.9972,-1773.36,0,0
68573.1,53.8531,-1766.08,0,0
68833.4,53.7656,-1758.95,0,0
69093.7,53.5297,-1751.89,0,0
69354.1,53.5247,-1744.64,0,0
69614.4,53.3453,-1737.78,0,0
69874.7,53.3413,-1730.89,0,0
70135,53.3383,-1723.88,0,0
70395.4,53.2478,-1717.24,0,0
70655.7,53.1512,-1710.42,0,0
70916,53.1057,-1703.76,0,0
71176.3,53.0466,-1697.24,0,0
71436.7,52.9338,-1690.74,0,0
71697,52.6437,-1684.41,0,0
71957.3,52.4253,-1677.86,0,0
72217.6,52.2369,-1671.44,0,0
72478,52.0286,-1664.96,0,0
72738.3,51.831,-1658.5,0,0
72998.6,51.5799,-1652.15,0,0
73258.9,51.4771,-1645.78,0,0
73519.3,51.2806,-1639.44,0,0
73779.6,51.1213,-1633.12,0,0
74039.9,51.0459,-1626.97,0,0
74300.225,50.8708,-1620.69,0,0
74560.55,50.8178,-1614.57,0,0
74820.875,50.6891,-1608.44,0,0
75081.2,50.6238,-1602.35,0,0
75341.525,50.5275,-1596.3,0,0
75601.85,50.4809,-1590.33,0,0
75862.175,50.3166,-1584.43,0,0
76122.5,50.2018,-1578.55,0,0
76382.825,50.0758,-1572.6,0,0
76643.15,50.0457,-1566.75,0,0
76903.475,49.9228,-1560.91,0,0
77163.8,49.9074,-1555.19,0,0
77424.125,49.856,-1549.37,0,0
77684.45,49.771,-1543.72,0,0
77944.775,49.7453,-1538.08,0,0
78205.1,49.6733,-1532.42,0,0
78465.425,49.6337,-1526.88,0,0
78725.75,49.5321,-1521.29,0,0
78986.075,49.5589,-1515.74,0,0
79246.4,49.4289,-1510.22,0,0
79506.725,49.4038,-1504.7,0,0
79767.05,49.4779,-1499.33,0,0
80027.375,49.4864,-1494.01,0,0
80287.7,49.3573,-1488.67,0,0
80548.025,49.3367,-1483.33,0,0
80808.35,49.2758,-1478.13,0,0
81068.675,49.1839,-1472.82,0,0
81329.0,49.1088,-1467.59,0,0
81589.325,49.0788,-1462.34,0,0
81849.65,49.0095,-1457.14,0,0
82109.975,48.9421,-1452.01,0,0
82370.3,48.925,-1446.83,0,0
82630.625,48.9746,-1441.76,0,0
82890.95,49.0161,-1436.72,0,0
83151.275,48.9183,-1431.7,0,0
83411.6,48.8439,-1426.66,0,0
83671.925,48.8499,-1421.7,0,0
83932.25,48.8553,-1416.6,0,0
84192.575,48.8731,-1411.69,0,0
84452.9,48.935,-1406.75,0,0
84713.225,48.9292,-1401.91,0,0
84973.55,49.027,-1396.98,0,0
85233.875,49.2162,-1392.27,0,0
85494.2,49.1674,-1387.54,0,0
85754.525,49.1013,-1382.87,0,0
86014.85,49.1021,-1378.16,0,0
86275.175,49.1307,-1373.47,0,0
86535.5,49.1229,-1368.78,0,0
86795.825,49.1521,-1364.18,0,0
87056.15,49.1486,-1359.45,0,0
87316.475,49.1631,-1354.84,0,0
87576.8,49.2429,-1350.22,0,0
87837.125,49.3077,-1345.71,0,0
88097.45,49.3111,-1341.13,0,0
88357.775,49.4156,-1336.75,0,0
88618.1,49.3536,-1332.41,0,0
88878.425,49.3816,-1327.97,0,0
89138.75,49.3293,-1323.52,0,0
89399.075,49.3307,-1319.13,0,0
89659.4,49.3398,-1314.56,0,0
89919.725,49.2966,-1310.09,0,0
90180,49.3648,-1305.68,0,0
90440.4,49.5076,-1301.26,0,0
90700.7,49.5944,-1296.93,0,0
90961,49.7528,-1292.78,0,0
91221.3,49.7497,-1288.47,0,0
91481.7,49.8876,-1284.09,0,0
91742,50.0569,-1279.9,0,0
92002.3,50.1664,-1275.72,0,0
92262.6,50.2996,-1271.55,0,0
92523,50.3081,-1267.51,0,0
92783.3,50.2723,-1263.47,0,0
93043.6,50.1895,-1259.23,0,0
93303.9,50.1756,-1254.79,0,0
93564.3,50.4302,-1250.41,0,0
93824.6,50.6921,-1246.11,0,0
94084.9,51.481,-1241.82,0,0
94345.2,52.3172,-1238.17,0,0
94605.6,52.7782,-1234.71,0,0
94865.9,52.9155,-1231.35,0,0
95126.2,52.838,-1227.88,0,0
95386.5,52.8634,-1224.26,0,0
95646.9,52.5965,-1220.93,0,0
95907.2,52.055,-1217.24,0,0
96167.5,51.733,-1213.14,0,0
96427.8,51.803,-1209.25,0,0
96688.2,51.4641,-1205.4,0,0
96948.5,51.3636,-1201.28,0,0
97208.8,51.3942,-1197.23,0,0
97469.1,51.4422,-1193.27,0,0
97729.5,51.5027,-1189.16,0,0
97989.8,51.8404,-1185.22,0,0
98250.1,52.0965,-1181.56,0,0
98510.4,52.3667,-1177.82,0,0
98770.8,52.6039,-1174.37,0,0
99031.1,52.4767,-1170.8,0,0
99291.4,52.4505,-1167.08,0,0
99551.7,52.417,-1163.41,0,0
99812.1,52.2759,-1159.46,0,0
100072,52.5181,-1155.52,0,0
100333,52.7907,-1151.82,0,0
100593,52.9402,-1148.19,0,0
100853,52.943,-1144.44,0,0
101114,53.1975,-1140.48,0,0
101374,53.7124,-1136.76,0,0
101634,54.1068,-1133.29,0,0
101895,54.2719,-1129.7,0,0
102155,54.6594,-1126.16,0,0
102415,54.9125,-1122.55,0,0
102676,55.3016,-1118.98,0,0
102936,55.6993,-1115.49,0,0
103196,56.1914,-1111.85,0,0
103457,56.8991,-1108.44,0,0
103717,57.6456,-1105.29,0,0
103977,58.3107,-1102.6,0,0
104238,58.0668,-1099.86,0,0
104498,58.119,-1096.31,0,0
104758,58.6947,-1093.12,0,0
105019,59.017,-1090.34,0,0
105279,58.963,-1087.51,0,0
105539,58.8863,-1084.41,0,0
105800,58.8694,-1081.26,0,0
106060,58.7559,-1078.15,0,0
106320.175,58.5718,-1074.82,0,0
106580.5,58.6072,-1071.46,0,0
106840.825,58.6606,-1068.01,0,0
107101.15,58.9621,-1064.48,0,0
107361.475,59.3571,-1061.42,0,0
107621.8,59.4231,-1058.18,0,0
107882.125,59.7869,-1054.94,0,0
108142.45,60.051,-1051.82,0,0
108402.775,60.2281,-1048.78,0,0
108663.1,60.3826,-1045.74,0,0
108923.425,60.4351,-1042.65,0,0
109183.75,60.446,-1039.4,0,0
109444.075,60.6155,-1036.07,0,0
109704.4,60.7216,-1033.04,0,0
109964.725,60.7369,-1029.72,0,0
110225.05,60.6767,-1026.21,0,0
110485.375,60.9937,-1022.56,0,0
110745.7,61.4118,-1018.94,0,0
111006.025,62.0862,-1015.43,0,0
111266.35,62.8392,-1012.18,0,0
111526.675,63.4166,-1008.99,0,0
111787.0,63.9688,-1005.72,0,0
112047.325,64.6397,-1002.4,0,0
112307.65,65.5053,-999.078,0,0
112567.975,66.5492,-995.881,0,0
112828.3,67.4908,-992.764,0,0
113088.625,68.7326,-989.803,0,0
113348.95,69.7932,-987.113,0,0
113609.275,70.8193,-984.532,0,0
113869.6,71.6231,-981.984,0,0
114129.925,72.4599,-979.267,0,0
114390.25,73.3178,-976.561,0,0
114650.575,74.3765,-973.829,0,0
114910.9,75.4563,-971.31,0,0
115171.225,76.4377,-968.847,0,0
115431.55,77.4561,-966.279,0,0
115691.875,78.6111,-963.639,0,0
115952.2,80.1892,-961.118,0,0
116212.525,81.8067,-958.946,0,0
116472.85,83.5411,-957.109,0,0
116733.175,85.2096,-955.644,0,0
116993.5,86.6584,-954.517,0,0
117253.825,87.7994,-953.67,0,0
117514.15,88.4956,-952.865,0,0
117774.475,88.9528,-951.88,0,0
118034.8,89.2537,-950.921,0,0
118295.125,89.4535,-949.506,0,0
118555.45,90.1643,-947.926,0,0
118815.775,91.2224,-947.134,0,0
119076.1,91.7176,-946.767,0,0
119336.425,91.971,-946.264,0,0
119596.75,92.363,-946.111,0,0
119857.075,92.0519,-946.73,0,0
120117.4,90.6027,-946.996,0,0
120377.725,88.9139,-946.553,0,0
120638.05,87.1937,-945.941,0,0
120898.375,85.0228,-945.053,0,0
121158.7,82.6527,-943.749,0,0
121419.025,80.1367,-941.685,0,0
121679.35,78.1354,-938.965,0,0
121939.675,76.7795,-936.376,0,0
122200.0,75.3573,-934.125,0,0
122460,73.7087,-931.554,0,0
122721,72.3743,-928.621,0,0
122981,71.3813,-925.938,0,0
123241,70.2008,-923.318,0,0
123502,69.0689,-920.666,0,0
123762,67.9326,-917.734,0,0
124022,66.9618,-914.669,0,0
124283,66.3043,-911.669,0,0
124543,65.7875,-908.812,0,0
124803,65.2754,-906.035,0,0
125064,64.8117,-903.489,0,0
125324,64.0766,-901.071,0,0
125584,63.1347,-898.476,0,0
125845,62.1978,-895.633,0,0
126105,61.5037,-892.634,0,0
126365,60.8682,-889.792,0,0
126626,60.2694,-886.93,0,0
126886,59.636,-883.976,0,0
127146,58.9392,-881.135,0,0
127406,58.3487,-878.172,0,0
127667,57.8562,-874.933,0,0
127927,57.649,-871.91,0,0
128187,57.3247,-868.958,0,0
128448,57.0129,-866.111,0,0
128708,56.6321,-863.194,0,0
128968,56.3115,-860.255,0,0
129229,56.0211,-857.203,0,0
129489,55.8708,-854.245,0,0
129749,55.705,-851.424,0,0
130010,55.386,-848.514,0,0
130270,55.1608,-845.49,0,0
130530,55.1128,-842.518,0,0
130791,55.1073,-839.671,0,0
131051,54.9439,-836.91,0,0
131311,54.6649,-834.177,0,0
131572,54.3264,-831.153,0,0
131832,54.1124,-828.058,0,0
132092,54.0313,-824.915,0,0
132353,54.0464,-821.807,0,0
132613,54.0475,-818.805,0,0
132873,54.0933,-815.663,0,0
133134,54.2617,-812.552,0,0
133394,54.4172,-809.416,0,0
133654,54.6826,-806.3,0,0
133915,55.0704,-803.146,0,0
134175,55.5423,-800.059,0,0
134435,56.0984,-797.029,0,0
134696,56.7938,-793.99,0,0
134956,57.5122,-791.16,0,0
135216,58.2876,-788.379,0,0
135477,59.2406,-785.605,0,0
135737,60.2485,-783.159,0,0
135997,61.2728,-780.917,0,0
136258,62.1836,-778.924,0,0
136518,62.9491,-777.151,0,0
136778,63.4469,-775.506,0,0
137039,63.6363,-773.957,0,0
137299,63.3927,-772.263,0,0
137559,63.1338,-770.142,0,0
137819,63.0053,-767.975,0,0
138080,62.8394,-765.821,0,0
138340.125,62.5536,-763.621,0,0
138600.45,62.137,-761.234,0,0
138860.775,61.7878,-758.731,0,0
139121.1,61.5121,-755.915,0,0
139381.425,61.4963,-753.122,0,0
139641.75,61.5941,-750.459,0,0
139902.075,61.626,-747.844,0,0
140162.4,61.6967,-745.127,0,0
140422.725,61.856,-742.453,0,0
140683.05,62.0113,-739.892,0,0
140943.375,62.1027,-737.311,0,0
141203.7,62.1651,-734.651,0,0
141464.025,62.2963,-732.011,0,0
141724.35,62.3667,-729.364,0,0
141984.675,62.4676,-726.534,0,0
142245.0,62.7554,-723.691,0,0
142505.325,63.074,-721.044,0,0
142765.65,63.3201,-718.37,0,0
143025.975,63.5515,-715.549,0,0
143286.3,63.9972,-712.773,0,0
143546.625,64.4572,-710.077,0,0
143806.95,64.9357,-707.441,0,0
144067.275,65.4395,-704.845,0,0
144327.6,65.912,-702.36,0,0
144587.925,66.3746,-699.881,0,0
144848.25,66.7688,-697.484,0,0
145108.575,67.0951,-695.016,0,0
145368.9,67.5113,-692.61,0,0
145629.225,67.7376,-690.349,0,0
145889.55,67.6492,-687.92,0,0
146149.875,67.6561,-685.185,0,0
146410.2,67.8701,-682.306,0,0
146670.525,68.2792,-679.551,0,0
146930.85,68.6198,-676.909,0,0
147191.175,68.9708,-674.139,0,0
147451.5,69.4485,-671.561,0,0
147711.825,69.6391,-669.036,0,0
147972.15,69.8722,-666.24,0,0
148232.475,70.2515,-663.518,0,0
148492.8,70.5956,-660.824,0,0
148753.125,70.9483,-658.182,0,0
149013.45,71.173,-655.612,0,0
149273.775,71.2254,-652.932,0,0
149534.1,71.245,-650.076,0,0
149794.425,71.3156,-647.042,0,0
150054.75,71.4577,-643.935,0,0
150315.075,71.6924,-640.722,0,0
150575.4,71.9849,-637.488,0,0
150835.725,72.3148,-634.233,0,0
151096.05,72.647,-630.88,0,0
151356.375,73.0664,-627.436,0,0
151616.7,73.5863,-623.903,0,0
151877.025,74.2064,-620.338,0,0
152137.35,74.9634,-616.74,0,0
152397.675,75.8054,-613.134,0,0
152658.0,76.7174,-609.475,0,0
152918.325,77.7658,-605.831,0,0
153178.65,78.9322,-602.158,0,0
153438.975,80.2738,-598.539,0,0
153699.3,81.6361,-595.05,0,0
153959.625,82.9208,-591.549,0,0
154219.95,84.2859,-587.922,0,0
154480,85.8093,-584.265,0,0
154741,87.4855,-580.594,0,0
155001,89.3316,-576.982,0,0
155261,91.2669,-573.486,0,0
155522,93.2422,-569.991,0,0
155782,95.3472,-566.499,0,0
156042,97.6315,-563.134,0,0
156303,100.042,-559.912,0,0
156563,102.475,-556.821,0,0
156823,104.937,-553.827,0,0
157084,107.438,-550.922,0,0
157344,110.007,-548.148,0,0
157604,112.652,-545.506,0,0
157864,115.298,-543.042,0,0
158125,117.896,-540.81,0,0
158385,120.317,-538.742,0,0
158645,122.61,-536.693,0,0
158906,124.873,-534.769,0,0
159166,126.963,-533.048,0,0
159426,128.724,-531.49,0,0
159687,129.983,-529.953,0,0
159947,130.67,-528.091,0,0
160207,131.154,-525.51,0,0
160468,131.746,-522.383,0,0
160728,132.543,-518.795,0,0
160988,133.674,-515.035,0,0
161249,134.828,-511.107,0,0
161509,136.004,-506.622,0,0
161769,137.847,-501.551,0,0
162030,140.46,-496.466,0,0
162290,143.523,-491.521,0,0
162550,147.072,-486.77,0,0
162811,150.784,-482.391,0,0
163071,154.462,-477.97,0,0
163331,158.39,-473.336,0,0
163592,162.87,-468.553,0,0
163852,168.001,-464.049,0,0
164112,173.491,-459.929,0,0
164373,179.065,-456.289,0,0
164633,184.77,-452.762,0,0
164893,190.821,-449.552,0,0
165154,196.715,-446.801,0,0
165414,202.197,-443.978,0,0
165674,207.838,-440.791,0,0
165935,213.872,-437.336,0,0
166195,220.37,-433.559,0,0
166455,227.827,-429.636,0,0
166716,236.532,-425.94,0,0
166976,246.207,-423.381,0,0
167236,256.2,-421.833,0,0
167497,266.478,-421.114,0,0
167757,276.832,-421.243,0,0
168017,287.26,-422.245,0,0
168277,297.913,-424.02,0,0
168538,308.581,-426.773,0,0
168798,319.152,-430.806,0,0
169058,328.831,-435.698,0,0
169319,338.159,-441.176,0,0
169579,347.001,-447.623,0,0
169839,354.68,-454.422,0,0
170100,362.052,-460.883,0,0
170360.075,369.434,-467.487,0,0
170620.4,377.444,-474.703,0,0
170880.725,385.564,-483.856,0,0
171141.05,392.158,-494.837,0,0
171401.375,396.581,-506.536,0,0
171661.7,398.907,-517.771,0,0
171922.025,400.26,-527.693,0,0
172182.35,402.06,-536.979,0,0
172442.675,404.071,-547.005,0,0
172703.0,405.338,-558.334,0,0
172963.325,404.616,-570.415,0,0
173223.65,401.734,-582.053,0,0
173483.975,397.46,-592.386,0,0
173744.3,392.411,-601.922,0,0
174004.625,386.252,-610.348,0,0
174264.95,379.526,-617.624,0,0
174525.275,372.185,-623.503,0,0
174785.6,365.097,-627.937,0,0
175045.925,358.041,-631.862,0,0
175306.25,350.483,-634.626,0,0
175566.575,343.372,-635.976,0,0
175826.9,335.88,-636.241,0,0
176087.225,329.209,-633.587,0,0
176347.55,325.914,-629.487,0,0
176607.875,325.297,-626.518,0,0
176868.2,325.785,-625.041,0,0
177128.525,326.829,-624.743,0,0
177388.85,328.115,-625.388,0,0
177649.175,329.734,-626.641,0,0
177909.5,331.566,-628.86,0,0
178169.825,334.012,-631.877,0,0
178430.15,336.996,-636.904,0,0
178690.475,338.954,-644.733,0,0
178950.8,337.93,-654.342,0,0
179211.125,333.81,-663.425,0,0
179471.45,327.971,-670.985,0,0
179731.775,321.344,-677.435,0,0
179992.1,313.597,-683.117,0,0
180252.425,304.86,-686.549,0,0
180512.75,297.266,-688.063,0,0
180773.075,291.075,-689.466,0,0
181033.4,285.371,-691.531,0,0
181293.725,279.267,-694.47,0,0
181554.05,271.618,-697.6,0,0
181814.375,262.559,-699.592,0,0
182074.7,253.076,-699.822,0,0
182335.025,244.076,-698.831,0,0
182595.35,235.443,-697.133,0,0
182855.675,226.909,-694.646,0,0
183116.0,218.805,-691.103,0,0
183376.325,211.58,-686.737,0,0
183636.65,205.406,-682.167,0,0
183896.975,199.697,-677.838,0,0
184157.3,194.053,-673.383,0,0
184417.625,188.596,-668.341,0,0
184677.95,183.801,-662.644,0,0
184938.275,180.339,-656.6,0,0
185198.6,178.094,-651.516,0,0
185458.925,175.758,-647.662,0,0
185719.25,172.649,-644.156,0,0
185979.575,168.928,-640.341,0,0
186239.9,165.016,-635.73,0,0
186500,161.676,-630.426,0,0
186761,159.063,-625.103,0,0
187021,156.621,-619.868,0,0
187281,154.307,-614.34,0,0
187542,152.675,-608.358,0,0
187802,152.049,-602.637,0,0
188062,151.888,-597.564,0,0
188322,152.004,-592.96,0,0
188583,152.404,-589.129,0,0
188843,152.361,-586.248,0,0
189103,151.263,-583.611,0,0
189364,149.562,-580.43,0,0
189624,147.788,-576.695,0,0
189884,146.125,-572.695,0,0
190145,144.456,-568.395,0,0
190405,142.988,-563.736,0,0
190665,141.879,-559.006,0,0
190926,140.763,-554.285,0,0
191186,139.663,-549.118,0,0
191446,139.104,-543.549,0,0
191707,139.223,-538.078,0,0
191967,139.734,-533.052,0,0
192227,140.212,-528.379,0,0
192488,140.475,-523.775,0,0
192748,140.716,-518.946,0,0
193008,141.218,-513.958,0,0
193269,141.948,-509.081,0,0
193529,142.741,-504.258,0,0
193789,143.63,-499.399,0,0
194050,144.635,-494.439,0,0
194310,145.875,-489.408,0,0
194570,147.4,-484.393,0,0
194831,149.168,-479.472,0,0
195091,151.163,-474.596,0,0
195351,153.483,-469.948,0,0
195612,155.801,-465.615,0,0
195872,158.058,-461.461,0,0
196132,160.468,-457.219,0,0
196393,162.876,-453.038,0,0
196653,165.509,-449.099,0,0
196913,168.137,-445.267,0,0
197174,170.816,-441.582,0,0
197434,173.309,-438.01,0,0
197694,175.826,-434.335,0,0
197955,178.401,-430.737,0,0
198215,180.888,-427.19,0,0
198475,183.414,-423.45,0,0
198735,186.077,-419.703,0,0
198996,188.899,-415.991,0,0
199256,191.69,-412.327,0,0
199516,194.492,-408.645,0,0
199777,197.17,-404.885,0,0
200037,200.016,-400.861,0,0
200297,203.119,-396.613,0,0
200558,206.514,-392.211,0,0
200818,210.36,-387.931,0,0
201078,214.429,-383.895,0,0
201339,218.487,-380.009,0,0
201599,222.613,-375.976,0,0
201859,227.043,-371.666,0,0
202120,232.015,-367.358,0,0
202380.025,237.46,-363.252,0,0
202640.35,243.288,-359.639,0,0
202900.675,249.072,-356.369,0,0
203161.0,254.943,-353.064,0,0
203421.325,261.15,-349.739,0,0
203681.65,267.84,-346.845,0,0
203941.975,274.735,-344.298,0,0
204202.3,281.829,-342.074,0,0
204462.625,289.047,-340.278,0,0
204722.95,296.381,-338.818,0,0
204983.275,303.781,-337.789,0,0
205243.6,311.081,-337.147,0,0
205503.925,318.404,-336.52,0,0
205764.25,326.062,-336.164,0,0
206024.575,334.062,-336.455,0,0
206284.9,341.919,-337.657,0,0
206545.225,349.36,-339.41,0,0
206805.55,356.454,-341.479,0,0
207065.875,363.059,-344.185,0,0
207326.2,368.693,-347.119,0,0
207586.525,373.567,-349.483,0,0
207846.85,378.126,-351.424,0,0
208107.175,382.39,-352.725,0,0
208367.5,386.702,-353.304,0,0
208627.825,391.606,-352.853,0,0
208888.15,397.652,-351.804,0,0
209148.475,405.251,-350.573,0,0
209408.8,414.526,-350.119,0,0
209669.125,424.963,-351.163,0,0
209929.45,436.023,-354.052,0,0
210189.775,446.859,-358.987,0,0
210450.1,456.702,-365.093,0,0
210710.425,465.978,-371.922,0,0
210970.75,474.742,-379.851,0,0
211231.075,482.675,-388.823,0,0
211491.4,489.44,-398.711,0,0
211751.725,494.623,-409.041,0,0
212012.05,498.378,-419.288,0,0
212272.375,501.025,-429.041,0,0
212532.7,502.933,-438.132,0,0
212793.025,504.679,-446.576,0,0
213053.35,506.481,-454.94,0,0
213313.675,508.07,-463.525,0,0
213574.0,509.067,-472.344,0,0
213834.325,509.418,-481.017,0,0
214094.65,509.415,-489.566,0,0
214354.975,508.909,-498.185,0,0
214615.3,507.792,-506.908,0,0
214875.625,505.379,-515.504,0,0
215135.95,501.848,-522.959,0,0
215396.275,498.276,-528.875,0,0
215656.6,495.414,-533.834,0,0
215916.925,493.374,-538.694,0,0
216177.25,491.639,-543.72,0,0
216437.575,490.29,-549.111,0,0
216697.9,488.83,-555.113,0,0
216958.225,486.943,-561.62,0,0
217218.55,484.221,-568.438,0,0
217478.875,480.604,-575.258,0,0
217739.2,476.115,-581.649,0,0
217999.525,470.834,-587.406,0,0
218259.85,465.207,-592.268,0,0
218520,459.639,-596.362,0,0
218780,454.202,-600.203,0,0
219041,448.432,-604.096,0,0
219301,441.792,-607.676,0,0
219561,434.459,-610.093,0,0
219822,427.036,-611.082,0,0
220082,420.011,-610.878,0,0
220342,413.625,-609.802,0,0
220603,407.988,-608.053,0,0
220863,403.174,-605.956,0,0
221123,398.921,-603.603,0,0
221384,395.226,-601.085,0,0
221644,392.123,-598.462,0,0
221904,389.423,-595.684,0,0
222165,387.219,-592.733,0,0
222425,385.785,-589.704,0,0
222685,384.894,-586.866,0,0
222946,384.602,-584.39,0,0
223206,384.478,-582.339,0,0
223466,384.506,-580.509,0,0
223727,384.506,-578.823,0,0
223987,384.618,-577.031,0,0
224247,385.051,-575.222,0,0
224508,385.797,-573.607,0,0
224768,386.716,-572.084,0,0
225028,387.635,-570.638,0,0
225289,388.912,-568.774,0,0
225549,390.753,-567.048,0,0
225809,393.189,-565.556,0,0
226070,396.108,-564.509,0,0
226330,399.44,-563.823,0,0
226590,403.306,-563.783,0,0
226851,407.344,-564.705,0,0
227111,411.018,-566.478,0,0
227371,414.229,-568.564,0,0
227632,417.211,-570.711,0,0
227892,420.155,-573.011,0,0
228152,423.227,-575.503,0,0
228413,426.552,-578.299,0,0
228673,430.004,-581.707,0,0
228933,433.427,-585.955,0,0
229193,436.536,-590.894,0,0
229454,439.011,-596.612,0,0
229714,440.609,-602.812,0,0
229974,441.334,-608.755,0,0
230235,441.839,-614.395,0,0
230495,442.508,-620.226,0,0
230755,443.074,-626.806,0,0
231016,442.635,-634.131,0,0
231276,440.979,-641.44,0,0
231536,438.456,-648.182,0,0
231797,435.553,-654.373,0,0
232057,432.531,-660.212,0,0
232317,429.343,-665.835,0,0
232578,426.166,-671.435,0,0
232838,422.798,-677.27,0,0
233098,418.935,-683.281,0,0
233359,414.561,-689.337,0,0
233619,409.677,-695.563,0,0
233879,403.844,-702.104,0,0
234140,396.444,-708.293,0,0
234400,387.916,-713.299,0,0
234660.3,378.793,-717.195,0,0
234920.625,369.153,-719.809,0,0
235180.95,359.311,-720.917,0,0
235441.275,349.859,-720.654,0,0
235701.6,341.107,-719.071,0,0
235961.925,333.391,-716.748,0,0
236222.25,326.562,-714.066,0,0
236482.575,320.44,-711.192,0,0
236742.9,315.067,-708.077,0,0
237003.225,310.683,-705.053,0,0
237263.55,306.892,-702.831,0,0
237523.875,302.82,-701.33,0,0
237784.2,298.169,-699.843,0,0
238044.525,293.146,-698.003,0,0
238304.85,287.833,-695.669,0,0
238565.175,282.459,-692.386,0,0
238825.5,277.679,-688.171,0,0
239085.825,273.867,-683.208,0,0
239346.15,271.26,-678.207,0,0
239606.475,269.742,-673.6,0,0
239866.8,268.741,-669.717,0,0
240127.125,267.873,-666.329,0,0
240387.45,267.527,-663.082,0,0
240647.775,267.744,-660.696,0,0
240908.1,267.713,-659.504,0,0
241168.425,266.784,-658.787,0,0
241428.75,265.15,-657.887,0,0
241689.075,263.387,-656.633,0,0
241949.4,261.66,-655.414,0,0
242209.725,259.746,-654.398,0,0
242470.05,257.228,-653.434,0,0
242730.375,254.013,-651.916,0,0
242990.7,250.639,-649.345,0,0
243251.025,247.835,-645.832,0,0
243511.35,245.882,-642.08,0,0
243771.675,244.43,-638.553,0,0
244032.0,243.06,-634.954,0,0
244292.325,242.069,-630.981,0,0
244552.65,241.67,-626.918,0,0
244812.975,242.003,-622.993,0,0
245073.3,242.918,-619.279,0,0
245333.625,244.351,-616.119,0,0
245593.95,246.156,-613.655,0,0
245854.275,248.002,-611.92,0,0
246114.6,249.508,-610.909,0,0
246374.925,250.412,-610.138,0,0
246635.25,251.03,-609.346,0,0
246895.575,251.495,-608.422,0,0
247155.9,251.923,-607.578,0,0
247416.225,252.241,-606.856,0,0
247676.55,252.235,-606.046,0,0
247936.875,252.15,-604.928,0,0
248197.2,252.278,-603.623,0,0
248457.525,252.596,-602.316,0,0
248717.85,253.048,-601.166,0,0
248978.175,253.6,-600.075,0,0
249238.5,254.145,-598.996,0,0
249498.825,254.821,-598.011,0,0
249759.15,255.564,-597.007,0,0
250019.475,256.441,-596.233,0,0
250279.8,257.493,-595.609,0,0
250540,258.369,-595.264,0,0
250800,259.197,-595.076,0,0
251061,259.844,-594.917,0,0
251321,260.486,-594.691,0,0
251581,261.201,-594.509,0,0
251842,261.998,-594.453,0,0
252102,262.823,-594.549,0,0
252362,263.653,-594.834,0,0
252623,264.421,-595.329,0,0
252883,265.049,-596.003,0,0
253143,265.535,-596.801,0,0
253404,265.818,-597.697,0,0
253664,266.027,-598.617,0,0
253924,266.12,-599.65,0,0
254185,266.11,-600.846,0,0
254445,265.821,-602.212,0,0
254705,265.248,-603.639,0,0
254966,264.31,-604.98,0,0
255226,263.131,-606.124,0,0
255486,261.74,-607.268,0,0
255747,260.065,-608.218,0,0
256007,258.122,-608.885,0,0
256267,256.108,-609.241,0,0
256528,254.036,-609.21,0,0
256788,252.091,-608.92,0,0
257048,250.274,-608.459,0,0
257309,248.542,-607.912,0,0
257569,246.827,-607.307,0,0
257829,245.042,-606.553,0,0
258090,243.32,-605.531,0,0
258350,241.69,-604.316,0,0
258610,240.184,-602.931,0,0
258871,238.918,-601.369,0,0
259131,237.887,-599.755,0,0
259391,237.066,-598.217,0,0
259651,236.242,-596.741,0,0
259912,235.423,-595.141,0,0
260172,234.752,-593.417,0,0
260432,234.166,-591.699,0,0
260693,233.658,-589.886,0,0
260953,233.295,-587.884,0,0
261213,233.166,-585.804,0,0
261474,233.237,-583.638,0,0
261734,233.572,-581.39,0,0
261994,234.233,-579.072,0,0
262255,235.275,-576.784,0,0
262515,236.802,-574.602,0,0
262775,238.796,-572.708,0,0
263036,241.118,-571.254,0,0
263296,243.654,-570.338,0,0
263556,246.267,-569.906,0,0
263817,248.838,-569.97,0,0
264077,251.342,-570.521,0,0
264337,253.553,-571.641,0,0
264598,255.325,-573.187,0,0
264858,256.475,-574.859,0,0
265118,257.143,-576.395,0,0
265379,257.507,-577.713,0,0
265639,257.755,-578.764,0,0
265899,257.887,-579.625,0,0
266160,258.123,-580.257,0,0
266420,258.516,-580.838,0,0
266680.25,259.043,-581.415,0,0
266940.575,259.662,-582.072,0,0
267200.9,260.386,-582.858,0,0
267461.225,261.181,-583.833,0,0
267721.55,261.972,-585.002,0,0
267981.875,262.662,-586.452,0,0
268242.2,263.05,-588.127,0,0
268502.525,263.085,-589.803,0,0
268762.85,262.988,-591.236,0,0
269023.175,262.752,-592.538,0,0
269283.5,262.512,-593.717,0,0
269543.825,262.315,-594.671,0,0
269804.15,262.369,-595.471,0,0
270064.475,262.665,-596.277,0,0
270324.8,263.247,-597.305,0,0
270585.125,264.044,-598.565,0,0
270845.45,264.962,-600.181,0,0
271105.775,265.804,-602.186,0,0
271366.1,266.597,-604.429,0,0
271626.425,267.293,-606.849,0,0
271886.75,268.142,-609.534,0,0
272147.075,269.134,-612.688,0,0
272407.4,270.089,-616.62,0,0
272667.725,270.666,-621.504,0,0
272928.05,270.472,-627.242,0,0
273188.375,268.93,-633.416,0,0
273448.7,266.239,-639.492,0,0
273709.025,262.681,-645.296,0,0
273969.35,258.216,-650.915,0,0
274229.675,252.779,-656.124,0,0
274490.0,246.468,-660.668,0,0
274750.325,239.448,-664.337,0,0
275010.65,231.965,-667.02,0,0
275270.975,224.315,-668.761,0,0
275531.3,216.514,-669.618,0,0
275791.625,208.75,-669.67,0,0
276051.95,201.075,-668.871,0,0
276312.275,193.609,-667.27,0,0
276572.6,186.515,-664.873,0,0
276832.925,179.935,-661.908,0,0
277093.25,173.795,-658.514,0,0
277353.575,168.087,-654.677,0,0
277613.9,162.861,-650.479,0,0
277874.225,158.095,-645.896,0,0
278134.55,153.943,-641.038,0,0
278394.875,150.42,-636.007,0,0
278655.2,147.505,-630.922,0,0
278915.525,145.2,-625.91,0,0
279175.85,143.373,-621.099,0,0
279436.175,141.967,-616.521,0,0
279696.5,140.824,-612.175,0,0
279956.825,139.877,-608.002,0,0
280217.15,139.177,-603.972,0,0
280477.475,138.669,-600.117,0,0
280737.8,138.412,-596.444,0,0
280998.125,138.365,-593.003,0,0
281258.45,138.445,-589.919,0,0
281518.775,138.47,-587.136,0,0
281779.1,138.391,-584.569,0,0
282039.425,138.207,-582.085,0,0
282299.75,137.908,-579.651,0,0
282560,137.513,-577.222,0,0
282820,137.026,-574.79,0,0
283081,136.463,-572.208,0,0
283341,135.949,-569.449,0,0
283601,135.567,-566.591,0,0
283862,135.284,-563.688,0,0
284122,135.096,-560.666,0,0
284382,135.115,-557.513,0,0
284643,135.424,-554.334,0,0
284903,136.026,-551.255,0,0
285163,136.801,-548.285,0,0
285424,137.821,-545.483,0,0
285684,138.981,-542.876,0,0
285944,140.217,-540.502,0,0
286205,141.511,-538.348,0,0
286465,142.795,-536.355,0,0
286725,144.097,-534.534,0,0
286986,145.397,-532.906,0,0
287246,146.571,-531.482,0,0
287506,147.616,-530.175,0,0
287767,148.485,-528.939,0,0
288027,149.18,-527.684,0,0
288287,149.758,-526.349,0,0
288548,150.238,-524.909,0,0
288808,150.706,-523.302,0,0
289068,151.245,-521.533,0,0
289329,151.939,-519.643,0,0
289589,152.822,-517.723,0,0
289849,153.872,-515.896,0,0
290109,155.003,-514.135,0,0
290370,156.181,-512.481,0,0
290630,157.393,-510.834,0,0
290890,158.667,-509.202,0,0
291151,160.071,-507.591,0,0
291411,161.595,-506.089,0,0
291671,163.174,-504.739,0,0
291932,164.733,-503.525,0,0
292192,166.258,-502.36,0,0
292452,167.796,-501.213,0,0
292713,169.372,-500.106,0,0
292973,170.97,-499.069,0,0
293233,172.61,-498.129,0,0
293494,174.188,-497.223,0,0
293754,175.752,-496.333,0,0
294014,177.357,-495.476,0,0
294275,178.966,-494.584,0,0
294535,180.625,-493.724,0,0
294795,182.333,-492.894,0,0
295056,184.065,-492.077,0,0
295316,185.818,-491.222,0,0
295576,187.717,-490.342,0,0
295837,189.773,-489.484,0,0
296097,191.978,-488.731,0,0
296357,194.293,-488.11,0,0
296618,196.683,-487.604,0,0
296878,199.154,-487.201,0,0
297138,201.741,-486.902,0,0
297399,204.418,-486.756,0,0
297659,207.19,-486.801,0,0
297919,210.01,-487.04,0,0
298180,212.86,-487.46,0,0
298440,215.707,-488.088,0,0
298700.2,218.544,-488.874,0,0
298960.525,221.297,-489.876,0,0
299220.85,224.17,-490.971,0,0
299481.175,226.837,-492.257,0,0
299741.5,229.643,-493.638,0,0
300001.825,232.374,-495.134,0,0
300262.15,235.186,-496.799,0,0
300522.475,237.908,-498.597,0,0
300782.8,240.841,-500.579,0,0
301043.125,243.843,-502.844,0,0
301303.45,246.862,-505.405,0,0
301563.775,249.921,-508.306,0,0
301824.1,253.003,-511.652,0,0
302084.425,255.989,-515.484,0,0
302344.75,258.889,-519.84,0,0
302605.075,261.51,-525.048,0,0
302865.4,263.534,-530.813,0,0
303125.725,264.653,-537.166,0,0
303386.05,264.707,-543.691,0,0
303646.375,263.872,-550.058,0,0
303906.7,262.234,-556.088,0,0
304167.025,259.976,-561.641,0,0
304427.35,257.324,-566.694,0,0
304687.675,254.434,-571.3,0,0
304948.0,251.373,-575.595,0,0
305208.325,248.097,-579.579,0,0
305468.65,244.604,-583.296,0,0
305728.975,240.922,-586.687,0,0
305989.3,237.12,-589.75,0,0
306249.625,233.222,-592.547,0,0
306509.95,229.181,-595.08,0,0
306770.275,224.984,-597.341,0,0
307030.6,220.672,-599.227,0,0
307290.925,216.313,-600.731,0,0
307551.25,212.039,-601.885,0,0
307811.575,207.821,-602.777,0,0
308071.9,203.679,-603.425,0,0
308332.225,199.6,-603.844,0,0
308592.55,195.531,-604.024,0,0
308852.875,191.579,-603.924,0,0
309113.2,187.715,-603.582,0,0
309373.525,184.028,-603.003,0,0
309633.85,180.533,-602.284,0,0
309894.175,177.261,-601.442,0,0
310154.5,174.101,-600.506,0,0
310414.825,171.067,-599.504,0,0
310675.15,168.163,-598.398,0,0
310935.475,165.427,-597.231,0,0
311195.8,162.787,-596.031,0,0
311456.125,160.255,-594.78,0,0
311716.45,157.828,-593.435,0,0
311976.775,155.545,-592.054,0,0
312237.1,153.422,-590.652,0,0
312497.425,151.443,-589.325,0,0
312757.75,149.505,-588.04,0,0
313018.075,147.59,-586.778,0,0
313278.4,145.678,-585.501,0,0
313538.725,143.799,-584.184,0,0
313799.05,141.955,-582.835,0,0
314059.375,140.165,-581.425,0,0
314319.7,138.4,-579.998,0,0
314580,136.727,-578.464,0,0
314840,135.094,-576.897,0,0
315101,133.571,-575.276,0,0
315361,132.166,-573.603,0,0
315621,130.873,-571.905,0,0
315882,129.693,-570.202,0,0
316142,128.629,-568.535,0,0
316402,127.68,-566.891,0,0
316663,126.815,-565.304,0,0
316923,126.02,-563.762,0,0
317183,125.301,-562.27,0,0
317444,124.638,-560.829,0,0
317704,124.042,-559.46,0,0
317964,123.435,-558.175,0,0
318225,122.853,-556.927,0,0
318485,122.229,-555.72,0,0
318745,121.601,-554.478,0,0
319006,121.003,-553.255,0,0
319266,120.492,-551.965,0,0
319526,120.042,-550.679,0,0
319787,119.666,-549.451,0,0
320047,119.365,-548.31,0,0
320307,119.146,-547.21,0,0
320567,118.917,-546.22,0,0
320828,118.716,-545.298,0,0
321088,118.495,-544.491,0,0
321348,118.234,-543.73,0,0
321609,117.931,-543.023,0,0
321869,117.605,-542.308,0,0
322129,117.251,-541.624,0,0
322390,116.905,-540.977,0,0
322650,116.533,-540.364,0,0
322910,116.103,-539.803,0,0
323171,115.634,-539.257,0,0
323431,115.102,-538.666,0,0
323691,114.565,-538.056,0,0
323952,114.004,-537.428,0,0
324212,113.466,-536.776,0,0
324472,112.939,-536.11,0,0
324733,112.396,-535.453,0,0
324993,111.871,-534.81,0,0
325253,111.355,-534.156,0,0
325514,110.835,-533.488,0,0
325774,110.313,-532.839,0,0
326034,109.82,-532.171,0,0
326295,109.358,-531.539,0,0
326555,108.904,-530.925,0,0
326815,108.427,-530.368,0,0
327076,107.926,-529.842,0,0
327336,107.406,-529.299,0,0
327596,106.855,-528.761,0,0
327857,106.302,-528.224,0,0
328117,105.746,-527.698,0,0
328377,105.166,-527.199,0,0
328638,104.534,-526.705,0,0
328898,103.879,-526.18,0,0
329158,103.21,-525.633,0,0
329419,102.533,-525.042,0,0
329679,101.871,-524.464,0,0
329939,101.226,-523.871,0,0
330200,100.572,-523.282,0,0
330460,99.8935,-522.709,0,0
330720.15,99.2048,-522.129,0,0
330980.475,98.5425,-521.492,0,0
331240.8,97.8917,-520.901,0,0
331501.125,97.297,-520.319,0,0
331761.45,96.6542,-519.869,0,0
332021.775,95.9401,-519.341,0,0
332282.1,95.1242,-518.886,0,0
332542.425,94.2299,-518.391,0,0
332802.75,93.323,-517.869,0,0
333063.075,92.3342,-517.216,0,0
333323.4,91.3472,-516.592,0,0
333583.725,90.3339,-515.886,0,0
333844.05,89.3448,-515.141,0,0
334104.375,88.3334,-514.267,0,0
334364.7,87.3359,-513.389,0,0
334625.025,86.4134,-512.411,0,0
334885.35,85.4512,-511.454,0,0
335145.675,84.5727,-510.443,0,0
335406.0,83.6554,-509.423,0,0
335666.325,82.7782,-508.338,0,0
335926.65,81.9156,-507.282,0,0
336186.975,81.0753,-506.258,0,0
336447.3,80.2502,-505.131,0,0
336707.625,79.2914,-503.943,0,0
336967.95,78.5657,-502.685,0,0
337228.275,77.8004,-501.395,0,0
337488.6,77.0679,-500.177,0,0
337748.925,76.3443,-498.816,0,0
338009.25,75.7273,-497.447,0,0
338269.575,75.1974,-496.129,0,0
338529.9,74.621,-494.772,0,0
338790.225,74.2067,-493.385,0,0
339050.55,73.7806,-492.082,0,0
339310.875,73.357,-490.814,0,0
339571.2,72.9704,-489.48,0,0
339831.525,72.6011,-488.192,0,0
340091.85,72.202,-486.858,0,0
340352.175,71.9035,-485.604,0,0
340612.5,71.5614,-484.332,0,0
340872.825,71.2218,-483.017,0,0
341133.15,70.9776,-481.734,0,0
341393.475,70.6831,-480.409,0,0
341653.8,70.4723,-479.04,0,0
341914.125,70.2267,-477.777,0,0
342174.45,70.1542,-476.413,0,0
342434.775,70.0102,-475.136,0,0
342695.1,69.9635,-473.853,0,0
342955.425,69.8396,-472.557,0,0
343215.75,69.8221,-471.276,0,0
343476.075,69.8753,-470.028,0,0
343736.4,69.8873,-468.803,0,0
343996.725,69.9239,-467.53,0,0
344257.05,70.0943,-466.369,0,0
344517.375,70.2174,-465.161,0,0
344777.7,70.4054,-464.08,0,0
345038.025,70.6436,-462.949,0,0
345298.35,70.7857,-461.971,0,0
345558.675,70.9919,-460.992,0,0
345819.0,71.186,-460.04,0,0
346079.325,71.3865,-459.164,0,0
346339.65,71.5304,-458.27,0,0
346599.975,71.6659,-457.469,0,0
346860,71.7944,-456.629,0,0
347121,71.8644,-455.795,0,0
347381,71.9376,-455.067,0,0
347641,71.9601,-454.259,0,0
347902,71.9563,-453.537,0,0
348162,71.9437,-452.764,0,0
348422,71.866,-452.001,0,0
348683,71.7788,-451.18,0,0
348943,71.6413,-450.362,0,0
349203,71.513,-449.453,0,0
349464,71.4214,-448.523,0,0
349724,71.3351,-447.553,0,0
349984,71.2016,-446.591,0,0
350245,71.1184,-445.572,0,0
350505,71.096,-444.579,0,0
350765,71.0798,-443.588,0,0
351025,71.0648,-442.552,0,0
351286,71.064,-441.493,0,0
351546,71.0868,-440.404,0,0
351806,71.1829,-439.286,0,0
352067,71.3275,-438.177,0,0
352327,71.5744,-437.112,0,0
352587,71.7795,-436.018,0,0
352848,72.048,-434.942,0,0
353108,72.3739,-433.927,0,0
353368,72.7064,-432.927,0,0
353629,73.0986,-431.986,0,0
353889,73.5611,-431.065,0,0
354149,74.004,-430.199,0,0
354410,74.4627,-429.451,0,0
354670,74.9261,-428.729,0,0
354930,75.3965,-428.007,0,0
355191,75.7833,-427.44,0,0
355451,76.2137,-426.867,0,0
355711,76.5723,-426.339,0,0
355972,76.9126,-425.877,0,0
356232,77.1496,-425.468,0,0
356492,77.2879,-425.035,0,0
356753,77.3829,-424.59,0,0
357013,77.4812,-424.138,0,0
357273,77.4693,-423.65,0,0
357534,77.4656,-423.172,0,0
357794,77.4042,-422.613,0,0
358054,77.2866,-422.038,0,0
358315,77.158,-421.401,0,0
358575,76.9714,-420.735,0,0
358835,76.8343,-419.953,0,0
359096,76.6946,-419.122,0,0
359356,76.5273,-418.206,0,0
359616,76.4355,-417.256,0,0
359877,76.3991,-416.284,0,0
360137,76.4409,-415.203,0,0
360397,76.5919,-414.149,0,0
360658,76.771,-413.035,0,0
360918,76.9805,-412.002,0,0
361178,77.3056,-410.984,0,0
361438,77.6317,-409.984,0,0
361699,78.0232,-408.992,0,0
361959,78.4134,-408.04,0,0
362219,78.8754,-407.145,0,0
362480,79.3527,-406.255,0,0
362740.1,79.8018,-405.402,0,0
363000.425,80.3335,-404.612,0,0
363260.75,80.8509,-403.808,0,0
363521.075,81.4132,-403.055,0,0
363781.4,81.9318,-402.333,0,0
364041.725,82.5218,-401.684,0,0
364302.05,83.0371,-400.995,0,0
364562.375,83.5698,-400.357,0,0
364822.7,84.114,-399.749,0,0
365083.025,84.6905,-399.152,0,0
365343.35,85.2902,-398.594,0,0
365603.675,85.8371,-398.12,0,0
365864.0,86.4151,-397.671,0,0
366124.325,86.9504,-397.296,0,0
366384.65,87.4868,-396.877,0,0
366644.975,87.9501,-396.52,0,0
366905.3,88.3995,-396.206,0,0
367165.625,88.8018,-395.88,0,0
367425.95,89.1635,-395.447,0,0
367686.275,89.5355,-395.1,0,0
367946.6,89.9384,-394.703,0,0
368206.925,90.318,-394.329,0,0
368467.25,90.7021,-393.976,0,0
368727.575,91.1649,-393.672,0,0
368987.9,91.6088,-393.375,0,0
369248.225,92.0235,-393.148,0,0
369508.55,92.3948,-392.965,0,0
369768.875,92.7361,-392.818,0,0
370029.2,93.0443,-392.731,0,0
370289.525,93.2679,-392.708,0,0
370549.85,93.3972,-392.666,0,0
370810.175,93.4367,-392.593,0,0
371070.5,93.3577,-392.487,0,0
371330.825,93.1962,-392.297,0,0
371591.15,93.0491,-392.073,0,0
371851.475,92.7766,-391.744,0,0
372111.8,92.5466,-391.274,0,0
372372.125,92.3378,-390.757,0,0
372632.45,92.1608,-390.133,0,0
372892.775,92.0443,-389.458,0,0
373153.1,91.9604,-388.71,0,0
373413.425,91.9499,-387.996,0,0
373673.75,92.012,-387.246,0,0
373934.075,92.1695,-386.455,0,0
374194.4,92.2709,-385.73,0,0
374454.725,92.491,-385.01,0,0
374715.05,92.6989,-384.264,0,0
374975.375,92.9206,-383.579,0,0
375235.7,93.1989,-382.9,0,0
375496.025,93.4464,-382.245,0,0
375756.35,93.6822,-381.599,0,0
376016.675,93.9897,-380.868,0,0
376277.0,94.2221,-380.208,0,0
376537.325,94.5243,-379.607,0,0
376797.65,94.8371,-378.902,0,0
377057.975,95.1427,-378.279,0,0
377318.3,95.4697,-377.653,0,0
377578.625,95.7995,-377.021,0,0
377838.95,96.1137,-376.411,0,0
378099.275,96.3873,-375.741,0,0
378359.6,96.7282,-375.053,0,0
378619.925,97.0462,-374.374,0,0
378880,97.4081,-373.694,0,0
379141,97.8685,-372.977,0,0
379401,98.303,-372.268,0,0
379661,98.7824,-371.566,0,0
379922,99.2858,-370.959,0,0
380182,99.7955,-370.258,0,0
380442,100.356,-369.651,0,0
380703,100.935,-369.071,0,0
380963,101.475,-368.492,0,0
381223,101.984,-367.935,0,0
381483,102.555,-367.383,0,0
381744,103.119,-366.876,0,0
382004,103.764,-366.334,0,0
382264,104.335,-365.791,0,0
382525,104.98,-365.29,0,0
382785,105.606,-364.843,0,0
383045,106.277,-364.39,0,0
383306,106.922,-364.011,0,0
383566,107.553,-363.602,0,0
383826,108.16,-363.25,0,0
384087,108.753,-362.919,0,0
384347,109.309,-362.598,0,0
384607,109.869,-362.234,0,0
384868,110.481,-361.92,0,0
385128,111.09,-361.631,0,0
385388,111.623,-361.293,0,0
385649,112.178,-361.06,0,0
385909,112.706,-360.756,0,0
386169,113.142,-360.478,0,0
386430,113.596,-360.132,0,0
386690,114.054,-359.752,0,0
386950,114.517,-359.327,0,0
387211,115.029,-358.93,0,0
387471,115.598,-358.465,0,0
387731,116.165,-358.022,0,0
387992,116.793,-357.592,0,0
388252,117.395,-357.161,0,0
388512,118.033,-356.748,0,0
388773,118.688,-356.307,0,0
389033,119.393,-355.883,0,0
389293,120.099,-355.452,0,0
389554,120.827,-355.005,0,0
389814,121.681,-354.661,0,0
390074,122.518,-354.313,0,0
390335,123.348,-354.025,0,0
390595,124.188,-353.737,0,0
390855,125.088,-353.537,0,0
391116,125.931,-353.35,0,0
391376,126.79,-353.151,0,0
391636,127.566,-353.022,0,0
391896,128.39,-352.893,0,0
392157,129.189,-352.798,0,0
392417,129.92,-352.65,0,0
392677,130.685,-352.477,0,0
392938,131.506,-352.271,0,0
393198,132.342,-352.051,0,0
393458,133.208,-351.811,0,0
393719,134.164,-351.606,0,0
393979,135.129,-351.445,0,0
394239,136.102,-351.271,0,0
394500,137.127,-351.121,0,0
394760.05,138.209,-351.014,0,0
395020.375,139.352,-350.88,0,0
395280.7,140.554,-350.801,0,0
395541.025,141.82,-350.801,0,0
395801.35,143.13,-350.884,0,0
396061.675,144.481,-351.063,0,0
396322.0,145.824,-351.292,0,0
396582.325,147.141,-351.56,0,0
396842.65,148.524,-351.914,0,0
397102.975,149.962,-352.308,0,0
397363.3,151.459,-352.774,0,0
397623.625,152.981,-353.431,0,0
397883.95,154.559,-354.162,0,0
398144.275,156.142,-355.072,0,0
398404.6,157.663,-356.221,0,0
398664.925,159.127,-357.451,0,0
398925.25,160.53,-358.882,0,0
399185.575,161.807,-360.436,0,0
399445.9,162.964,-362.176,0,0
399706.225,163.977,-364.05,0,0
399966.55,164.772,-366.043,0,0
400006.6,164.885,-366.336,0,0