File: Accelerated corrosion test data/2025-10-02_06-00-03/sample_2.csv
Frequency (Hz),Impedance (ohms),Phase (Radians),Temperature (C),Humidity (%)
10000.0,225.321,-11388.3,0,0
10260.325,219.505,-11101.4,0,0
10520.65,214.352,-10828.9,0,0
10780.975,209.899,-10569.2,0,0
11041.3,204.726,-10322.2,0,0
11301.625,200.679,-10086.6,0,0
11561.95,197.416,-9859.41,0,0
11822.275,194.104,-9648.51,0,0
12082.6,191.598,-9442.65,0,0
12342.925,184.713,-9245.66,0,0
12603.25,181.032,-9054.62,0,0
12863.575,177.837,-8871.76,0,0
13123.9,175.745,-8700.14,0,0
13384.225,171.335,-8529.09,0,0
13644.55,169.122,-8363.43,0,0
13904.875,183.651,-8216.63,0,0
14165.2,162.767,-8065.52,0,0
14425.525,159.156,-7918.21,0,0
14685.8,162.18,-7772.61,0,0
14946.175,159.727,-7645.2,0,0
15206.5,161.871,-7524.43,0,0
15466.825,163.749,-7388.85,0,0
15727.15,149.562,-7276.75,0,0
15987.5,146.152,-7155.42,0,0
16247.8,146.115,-7040.73,0,0
16508.125,141.728,-6931.85,0,0
16768.45,139.16,-6824.01,0,0
17028.775,137.788,-6720.17,0,0
17289.1,136.088,-6619.66,0,0
17549.425,133.18,-6521.15,0,0
17809.75,131.67,-6425.81,0,0
18070.075,128.887,-6333.54,0,0
18330.4,127.775,-6242.73,0,0
18590.725,127.372,-6154.43,0,0
18851.05,125.868,-6068.89,0,0
19111.375,128.225,-5988.37,0,0
19371.7,127.002,-5910.95,0,0
19632.025,121.948,-5833.03,0,0
19892.35,119.486,-5755.49,0,0
20152.675,117.942,-5680.03,0,0
20413.0,117.324,-5606.34,0,0
20673.3,116.561,-5533.63,0,0
20933.65,117.108,-5462.63,0,0
21193.975,120.939,-5395.74,0,0
21454.3,129.08,-5333.43,0,0
21714.625,127.074,-5277.11,0,0
21974.9,123.227,-5212.83,0,0
22235.275,118.303,-5160.01,0,0
22495.6,114.108,-5099.32,0,0
22755.925,110.99,-5038.25,0,0
23016.25,111.277,-4983.51,0,0
23276.6,111.779,-4927.72,0,0
23536.9,107.53,-4874.2,0,0
23797.225,105.72,-4820,0,0
24057.55,105.794,-4768.87,0,0
24317.875,102.308,-4718.7,0,0
24578.2,100.19,-4667.46,0,0
24838.525,99.674,-4618.54,0,0
25098.85,98.1521,-4568.97,0,0
25359.175,97.708,-4521.9,0,0
25619.5,96.4059,-4475.74,0,0
25879.8,95.4348,-4429.21,0,0
26140.1,95.9435,-4384.79,0,0
26400.5,95.2239,-4341.97,0,0
26660.8,95.4127,-4300.57,0,0
26921.1,94.4992,-4257.61,0,0
27181.4,93.291,-4218.7,0,0
27441.8,91.7427,-4178.75,0,0
27702.1,90.1799,-4138.21,0,0
27962.4,89.7732,-4098.46,0,0
28222.7,89.6894,-4059.45,0,0
28483.1,89.2009,-4021.99,0,0
28743.4,89.0504,-3984.42,0,0
29003.7,89.8591,-3947.07,0,0
29264,90.5379,-3911.73,0,0
29524.4,93.6893,-3876.66,0,0
29784.7,96.7655,-3849.48,0,0
30045,91.5138,-3816.78,0,0
30305.3,93.9496,-3783.06,0,0
30565.7,90.275,-3755.56,0,0
30826,87.7457,-3722.72,0,0
31086.3,86.2334,-3691.04,0,0
31346.6,84.6132,-3659.89,0,0
31607,84.777,-3629.43,0,0
31867.3,82.601,-3600.06,0,0
32127.6,81.6777,-3569.61,0,0
32387.9,82.0356,-3539.08,0,0
32648.3,83.5636,-3511.49,0,0
32908.6,82.7007,-3485.98,0,0
33168.9,81.3894,-3458.61,0,0
33429.2,79.5202,-3431.27,0,0
33689.6,79.4677,-3404.96,0,0
33949.9,78.5868,-3379.16,0,0
34210.2,76.8225,-3352.81,0,0
34470.5,76.0152,-3327.14,0,0
34730.9,75.5247,-3301.35,0,0
34991.2,75.0228,-3276.36,0,0
35251.5,74.538,-3251.89,0,0
35511.8,73.8653,-3227.76,0,0
35772.2,73.7471,-3203.61,0,0
36032.5,72.8919,-3180.5,0,0
36292.8,72.5715,-3157.28,0,0
36553.1,71.8683,-3134.39,0,0
36813.5,71.2582,-3111.64,0,0
37073.8,71.0038,-3089.36,0,0
37334.1,70.8464,-3067.53,0,0
37594.4,70.6915,-3046,0,0
37854.8,70.2182,-3024.55,0,0
38115.1,69.5855,-3003.83,0,0
38375.4,68.9872,-2983.14,0,0
38635.7,68.7598,-2962.51,0,0
38896.1,68.4389,-2942.3,0,0
39156.4,68.0382,-2922.56,0,0
39416.7,67.6365,-2902.91,0,0
39677,67.2536,-2883.33,0,0
39937.4,66.9747,-2864.14,0,0
40197.7,66.4007,-2845.35,0,0
40458,66.0198,-2826.34,0,0
40718.3,65.9208,-2807.88,0,0
40978.7,65.9472,-2789.63,0,0
41239,65.4674,-2771.79,0,0
41499.3,65.526,-2753.84,0,0
41759.6,65.264,-2736.25,0,0
42020,65.1095,-2719.24,0,0
42280.275,64.8207,-2702.41,0,0
42540.6,64.3428,-2685.33,0,0
42800.925,64.2474,-2668.53,0,0
43061.25,63.7903,-2651.98,0,0
43321.575,63.5045,-2635.63,0,0
43581.9,63.5757,-2619.7,0,0
43842.225,63.1295,-2603.72,0,0
44102.55,63.0901,-2587.96,0,0
44362.875,62.7836,-2572.67,0,0
44623.2,62.1863,-2557.26,0,0
44883.525,62.0075,-2541.95,0,0
45143.85,61.7506,-2526.57,0,0
45404.175,61.8459,-2511.84,0,0
45664.5,61.3136,-2497.05,0,0
45924.825,61.6299,-2481.98,0,0
46185.15,61.7549,-2468.07,0,0
46445.475,61.1142,-2454.24,0,0
46705.8,60.7606,-2439.97,0,0
46966.125,60.6764,-2425.95,0,0
47226.45,60.6756,-2411.88,0,0
47486.775,61.0765,-2398.32,0,0
47747.1,60.7273,-2385.2,0,0
48007.425,60.485,-2371.62,0,0
48267.75,61.046,-2358.13,0,0
48528.075,61.5942,-2346.11,0,0
48788.4,60.9124,-2334.03,0,0
49048.725,60.3968,-2321.46,0,0
49309.05,59.7923,-2309.22,0,0
49569.375,58.8517,-2296.67,0,0
49829.7,58.7377,-2283.86,0,0
50090.025,58.2577,-2271.96,0,0
50350.35,57.8076,-2259.47,0,0
50610.675,57.7222,-2247.24,0,0
50871.0,57.6828,-2235.37,0,0
51131.325,57.5944,-2223.72,0,0
51391.65,57.3072,-2212.38,0,0
51651.975,56.7139,-2200.87,0,0
51912.3,56.1814,-2189.3,0,0
52172.625,55.8051,-2177.7,0,0
52432.95,55.5194,-2166.26,0,0
52693.275,55.3256,-2154.86,0,0
52953.6,55.01,-2143.68,0,0
53213.925,54.8832,-2132.58,0,0
53474.25,54.6558,-2121.6,0,0
53734.575,54.5856,-2110.73,0,0
53994.9,54.2975,-2099.99,0,0
54255.225,54.2593,-2089.26,0,0
54515.55,54.2191,-2078.6,0,0
54775.875,54.0914,-2068.27,0,0
55036.2,54.0372,-2057.83,0,0
55296.525,53.9434,-2047.52,0,0
55556.85,53.9206,-2037.4,0,0
55817.175,53.8906,-2027.33,0,0
56077.5,53.8001,-2017.42,0,0
56337.825,53.6817,-2007.48,0,0
56598.15,53.7146,-1997.51,0,0
56858.475,53.8089,-1987.72,0,0
57118.8,54.0199,-1978.14,0,0
57379.125,53.9465,-1968.68,0,0
57639.45,53.8436,-1959.12,0,0
57899.775,54.0915,-1949.75,0,0
58160.1,54.0796,-1940.72,0,0
58420.4,53.9771,-1931.46,0,0
58680.7,54.0551,-1922.11,0,0
58941.1,54.2773,-1912.93,0,0
59201.4,54.3588,-1903.96,0,0
59461.7,54.5608,-1895,0,0
59722,54.8865,-1886.01,0,0
59982.4,55.579,-1877.33,0,0
60242.7,56.125,-1869.12,0,0
60503,56.0055,-1861.2,0,0
60763.3,55.943,-1852.45,0,0
61023.7,56.3355,-1843.79,0,0
61284,57.1324,-1835.42,0,0
61544.3,58.43,-1827.73,0,0
61804.6,59.0567,-1820.92,0,0
62065,58.8913,-1814.57,0,0
62325.3,57.8953,-1807.16,0,0
62585.6,57.5042,-1799.42,0,0
62845.9,57.5682,-1792.21,0,0
63106.3,56.7945,-1785.21,0,0
63366.6,56.1901,-1777.55,0,0
63626.9,55.2252,-1770.22,0,0
63887.2,54.9723,-1762.35,0,0
64147.6,54.4822,-1755.33,0,0
64407.9,53.2776,-1747.7,0,0
64668.2,52.9611,-1739.85,0,0
64928.5,52.3672,-1732.61,0,0
65188.9,51.5535,-1724.91,0,0
65449.2,50.8026,-1716.86,0,0
65709.5,50.711,-1708.73,0,0
65969.8,50.7527,-1700.99,0,0
66230.2,50.67,-1693.5,0,0
66490.5,50.8955,-1685.86,0,0
66750.8,50.9949,-1678.57,0,0
67011.1,50.9712,-1671.08,0,0
67271.5,51.2019,-1663.64,0,0
67531.8,51.8931,-1656.31,0,0
67792.1,52.6923,-1649.42,0,0
68052.4,53.3489,-1643.21,0,0
68312.8,53.2373,-1636.54,0,0
68573.1,53.5318,-1629.93,0,0
68833.4,54.1152,-1623.59,0,0
69093.7,54.2206,-1617.28,0,0
69354.1,54.5519,-1610.76,0,0
69614.4,55.3578,-1604.65,0,0
69874.7,55.907,-1599.49,0,0
70135,55.7489,-1594.33,0,0
70395.4,55.0609,-1589.07,0,0
70655.7,54.2192,-1583.36,0,0
70916,53.3493,-1577.39,0,0
71176.3,52.9801,-1571.42,0,0
71436.7,52.3693,-1566.01,0,0
71697,51.2926,-1560.38,0,0
71957.3,49.9627,-1554.38,0,0
72217.6,48.7705,-1547.9,0,0
72478,47.6895,-1541.21,0,0
72738.3,47.1737,-1534.62,0,0
72998.6,46.5382,-1528.03,0,0
73258.9,46.1176,-1521.59,0,0
73519.3,45.5241,-1514.91,0,0
73779.6,45.2408,-1508.35,0,0
74039.9,45.1449,-1501.75,0,0
74300.225,45.0536,-1495.33,0,0
74560.55,45.1125,-1488.83,0,0
74820.875,45.2297,-1482.63,0,0
75081.2,45.2101,-1476.32,0,0
75341.525,45.4736,-1470.1,0,0
75601.85,45.7202,-1463.94,0,0
75862.175,46.0771,-1457.88,0,0
76122.5,46.5108,-1451.93,0,0
76382.825,46.9392,-1446.19,0,0
76643.15,47.2524,-1440.39,0,0
76903.475,47.6886,-1434.57,0,0
77163.8,48.2228,-1428.88,0,0
77424.125,48.881,-1423.28,0,0
77684.45,49.5781,-1417.93,0,0
77944.775,50.232,-1412.7,0,0
78205.1,51.0232,-1407.51,0,0
78465.425,51.7909,-1402.66,0,0
78725.75,52.3949,-1397.99,0,0
78986.075,53.0129,-1393.56,0,0
79246.4,53.0784,-1389.33,0,0
79506.725,53.3017,-1384.76,0,0
79767.05,53.437,-1380.9,0,0
80027.375,52.748,-1376.8,0,0
80287.7,51.983,-1372.27,0,0
80548.025,51.2333,-1367.6,0,0
80808.35,50.4189,-1362.56,0,0
81068.675,50.0592,-1357.47,0,0
81329.0,49.6412,-1352.43,0,0
81589.325,49.3061,-1347.46,0,0
81849.65,48.8726,-1342.37,0,0
82109.975,48.5774,-1337.34,0,0
82370.3,48.2874,-1332.21,0,0
82630.625,48.0735,-1327.01,0,0
82890.95,47.9202,-1321.93,0,0
83151.275,47.9816,-1316.8,0,0
83411.6,48.0802,-1311.66,0,0
83671.925,48.2979,-1306.77,0,0
83932.25,48.5409,-1301.9,0,0
84192.575,48.8131,-1297.07,0,0
84452.9,48.9356,-1292.51,0,0
84713.225,48.9414,-1287.89,0,0
84973.55,49.0108,-1283.07,0,0
85233.875,49.1189,-1278.42,0,0
85494.2,49.5336,-1273.76,0,0
85754.525,49.7286,-1269.24,0,0
86014.85,49.9529,-1264.86,0,0
86275.175,50.0516,-1260.57,0,0
86535.5,50.0726,-1256.16,0,0
86795.825,50.143,-1251.66,0,0
87056.15,50.4389,-1247.18,0,0
87316.475,50.8694,-1242.85,0,0
87576.8,51.1162,-1239.06,0,0
87837.125,50.8822,-1234.93,0,0
88097.45,50.6702,-1230.45,0,0
88357.775,50.9431,-1225.95,0,0
88618.1,51.1514,-1222.16,0,0
88878.425,50.6999,-1218.12,0,0
89138.75,50.5619,-1213.35,0,0
89399.075,50.9711,-1208.85,0,0
89659.4,51.2045,-1204.77,0,0
89919.725,51.5923,-1200.7,0,0
90180,51.8423,-1196.77,0,0
90440.4,51.7204,-1193.01,0,0
90700.7,51.3002,-1188.78,0,0
90961,51.3538,-1184.14,0,0
91221.3,51.9595,-1179.69,0,0
91481.7,52.3996,-1175.86,0,0
91742,52.594,-1171.78,0,0
92002.3,52.801,-1167.62,0,0
92262.6,53.4531,-1163.37,0,0
92523,54.3237,-1159.61,0,0
92783.3,54.7701,-1156.14,0,0
93043.6,55.2894,-1152.6,0,0
93303.9,55.7231,-1149.29,0,0
93564.3,56.0677,-1146,0,0
93824.6,56.2962,-1142.88,0,0
94084.9,56.1725,-1139.9,0,0
94345.2,55.7114,-1136.67,0,0
94605.6,55.2141,-1133.04,0,0
94865.9,55.0042,-1129.29,0,0
95126.2,54.698,-1125.76,0,0
95386.5,54.2231,-1121.82,0,0
95646.9,53.8697,-1117.48,0,0
95907.2,54.4896,-1113.01,0,0
96167.5,55.4288,-1109.22,0,0
96427.8,56.1731,-1105.97,0,0
96688.2,56.5678,-1102.85,0,0
96948.5,56.7842,-1099.65,0,0
97208.8,57.1717,-1096.29,0,0
97469.1,57.7374,-1093.45,0,0
97729.5,57.7733,-1090.77,0,0
97989.8,57.7102,-1087.88,0,0
98250.1,57.6757,-1085.02,0,0
98510.4,57.5731,-1082.25,0,0
98770.8,57.4145,-1079.68,0,0
99031.1,56.8475,-1077.38,0,0
99291.4,55.7437,-1074.72,0,0
99551.7,54.4764,-1071.67,0,0
99812.1,53.1591,-1068.2,0,0
100072,52.1549,-1064.3,0,0
100333,51.5922,-1060.25,0,0
100593,51.4279,-1056.61,0,0
100853,50.9513,-1053.47,0,0
101114,50.084,-1050.11,0,0
101374,49.0326,-1046.44,0,0
101634,48.0645,-1042.28,0,0
101895,47.6436,-1037.89,0,0
102155,47.6403,-1033.86,0,0
102415,47.4105,-1030.21,0,0
102676,46.8554,-1026.36,0,0
102936,46.4728,-1022.27,0,0
103196,46.126,-1018.02,0,0
103457,46.0472,-1013.71,0,0
103717,46.0809,-1009.42,0,0
103977,46.3601,-1004.88,0,0
104238,47.0351,-1000.62,0,0
104498,47.8786,-996.689,0,0
104758,48.6136,-992.937,0,0
105019,49.3205,-989.238,0,0
105279,50.1124,-985.582,0,0
105539,50.9286,-982.051,0,0
105800,51.8091,-978.44,0,0
106060,53.0392,-975.043,0,0
106320.175,54.2791,-972.16,0,0
106580.5,55.3667,-969.434,0,0
106840.825,56.3106,-967.011,0,0
107101.15,56.9169,-964.881,0,0
107361.475,57.1698,-962.527,0,0
107621.8,57.4992,-960.224,0,0
107882.125,57.6779,-958.021,0,0
108142.45,57.5232,-955.826,0,0
108402.775,57.1012,-953.439,0,0
108663.1,56.7288,-950.923,0,0
108923.425,56.3203,-948.492,0,0
109183.75,55.4875,-945.871,0,0
109444.075,54.7912,-942.866,0,0
109704.4,54.201,-939.874,0,0
109964.725,53.4154,-936.7,0,0
110225.05,52.7863,-933.239,0,0
110485.375,52.3399,-929.757,0,0
110745.7,52.0015,-926.166,0,0
111006.025,51.8331,-922.721,0,0
111266.35,51.7114,-919.422,0,0
111526.675,51.5034,-915.96,0,0
111787.0,51.4608,-912.225,0,0
112047.325,51.6265,-908.754,0,0
112307.65,51.7381,-905.397,0,0
112567.975,51.7691,-902.035,0,0
112828.3,51.7131,-898.543,0,0
113088.625,51.9321,-895.025,0,0
113348.95,52.2375,-891.519,0,0
113609.275,52.4802,-888.082,0,0
113869.6,52.8741,-884.612,0,0
114129.925,53.3533,-881.308,0,0
114390.25,53.8012,-878.082,0,0
114650.575,54.164,-874.763,0,0
114910.9,54.6415,-871.503,0,0
115171.225,55.1275,-868.213,0,0
115431.55,55.6748,-865.044,0,0
115691.875,56.2096,-861.945,0,0
115952.2,56.696,-858.743,0,0
116212.525,57.2533,-855.558,0,0
116472.85,57.8775,-852.391,0,0
116733.175,58.6557,-849.265,0,0
116993.5,59.4406,-846.343,0,0
117253.825,60.1372,-843.461,0,0
117514.15,60.8791,-840.525,0,0
117774.475,61.6519,-837.682,0,0
118034.8,62.4614,-834.932,0,0
118295.125,63.1501,-832.304,0,0
118555.45,63.86,-829.556,0,0
118815.775,64.6418,-826.881,0,0
119076.1,65.5304,-824.285,0,0
119336.425,66.333,-821.764,0,0
119596.75,67.3311,-819.365,0,0
119857.075,68.2551,-817.43,0,0
120117.4,68.7637,-815.521,0,0
120377.725,69.1354,-813.502,0,0
120638.05,69.537,-811.57,0,0
120898.375,69.5526,-809.82,0,0
121158.7,69.2291,-807.657,0,0
121419.025,69.0993,-805.207,0,0
121679.35,69.1003,-802.737,0,0
121939.675,69.0457,-800.347,0,0
122200.0,69.0005,-797.901,0,0
122460,68.8915,-795.364,0,0
122721,68.8004,-792.735,0,0
122981,68.8224,-790.06,0,0
123241,68.9047,-787.439,0,0
123502,68.9796,-784.862,0,0
123762,69.0016,-782.312,0,0
124022,68.9939,-779.721,0,0
124283,68.9557,-777.052,0,0
124543,68.9222,-774.396,0,0
124803,68.8562,-771.67,0,0
125064,68.804,-768.91,0,0
125324,68.7977,-766.055,0,0
125584,68.7829,-763.202,0,0
125845,68.7716,-760.267,0,0
126105,68.8459,-757.301,0,0
126365,68.9965,-754.264,0,0
126626,69.1661,-751.244,0,0
126886,69.4305,-748.185,0,0
127146,69.7248,-745.083,0,0
127406,70.1157,-741.94,0,0
127667,70.7344,-738.844,0,0
127927,71.4409,-735.923,0,0
128187,72.004,-733.073,0,0
128448,72.6837,-730.164,0,0
128708,73.3869,-727.345,0,0
128968,74.099,-724.61,0,0
129229,74.7923,-721.938,0,0
129489,75.559,-719.289,0,0
129749,76.2601,-716.732,0,0
130010,77.0101,-714.117,0,0
130270,77.7852,-711.672,0,0
130530,78.4383,-709.324,0,0
130791,79.0743,-706.981,0,0
131051,79.6927,-704.616,0,0
131311,80.2362,-702.357,0,0
131572,80.6856,-700.043,0,0
131832,81.1844,-697.786,0,0
132092,81.5221,-695.532,0,0
132353,81.8462,-693.248,0,0
132613,82.0817,-690.929,0,0
132873,82.2398,-688.558,0,0
133134,82.3767,-686.084,0,0
133394,82.575,-683.534,0,0
133654,82.8215,-680.991,0,0
133915,83.0268,-678.423,0,0
134175,83.2081,-675.86,0,0
134435,83.3743,-673.21,0,0
134696,83.5775,-670.469,0,0
134956,83.8361,-667.765,0,0
135216,84.0969,-665.061,0,0
135477,84.3079,-662.332,0,0
135737,84.4893,-659.536,0,0
135997,84.7064,-656.651,0,0
136258,85.0114,-653.679,0,0
136518,85.3853,-650.749,0,0
136778,85.7668,-647.747,0,0
137039,86.2504,-644.746,0,0
137299,86.8,-641.773,0,0
137559,87.3529,-638.94,0,0
137819,87.7833,-636.058,0,0
138080,88.2291,-633.126,0,0
138340.125,88.6717,-630.178,0,0
138600.45,89.1437,-627.152,0,0
138860.775,89.599,-624.162,0,0
139121.1,89.9738,-621.05,0,0
139381.425,90.4135,-617.834,0,0
139641.75,90.923,-614.592,0,0
139902.075,91.381,-611.258,0,0
140162.4,91.9107,-607.741,0,0
140422.725,92.5646,-604.071,0,0
140683.05,93.4918,-600.348,0,0
140943.375,94.5545,-596.771,0,0
141203.7,95.5374,-593.127,0,0
141464.025,96.7479,-589.281,0,0
141724.35,98.2799,-585.528,0,0
141984.675,99.9613,-581.879,0,0
142245.0,101.768,-578.46,0,0
142505.325,103.487,-575.162,0,0
142765.65,105.283,-571.793,0,0
143025.975,107.239,-568.604,0,0
143286.3,109.083,-565.596,0,0
143546.625,110.821,-562.55,0,0
143806.95,112.58,-559.472,0,0
144067.275,114.357,-556.304,0,0
144327.6,116.251,-553.147,0,0
144587.925,118.199,-550.051,0,0
144848.25,120.178,-546.925,0,0
145108.575,122.219,-543.813,0,0
145368.9,124.363,-540.731,0,0
145629.225,126.526,-537.699,0,0
145889.55,128.676,-534.713,0,0
146149.875,130.806,-531.624,0,0
146410.2,132.982,-528.437,0,0
146670.525,135.31,-525.144,0,0
146930.85,137.834,-521.807,0,0
147191.175,140.566,-518.462,0,0
147451.5,143.476,-515.189,0,0
147711.825,146.52,-511.941,0,0
147972.15,149.745,-508.755,0,0
148232.475,153.082,-505.608,0,0
148492.8,156.579,-502.43,0,0
148753.125,160.367,-499.155,0,0
149013.45,164.587,-495.873,0,0
149273.775,169.463,-492.8,0,0
149534.1,174.797,-490.34,0,0
149794.425,180.288,-488.474,0,0
150054.75,185.772,-487.166,0,0
150315.075,191.217,-486.168,0,0
150575.4,196.844,-485.545,0,0
150835.725,202.603,-485.587,0,0
151096.05,208.18,-486.34,0,0
151356.375,213.349,-487.703,0,0
151616.7,218.077,-489.33,0,0
151877.025,222.652,-491.293,0,0
152137.35,226.812,-493.861,0,0
152397.675,230.288,-496.727,0,0
152658.0,233.205,-499.7,0,0
152918.325,235.533,-502.761,0,0
153178.65,237.286,-505.753,0,0
153438.975,238.527,-508.595,0,0
153699.3,239.357,-511.1,0,0
153959.625,239.986,-513.399,0,0
154219.95,240.32,-515.513,0,0
154480,240.402,-517.354,0,0
154741,240.433,-518.89,0,0
155001,240.35,-520.21,0,0
155261,240.003,-521.486,0,0
155522,239.981,-522.504,0,0
155782,239.704,-523.529,0,0
156042,239.23,-524.384,0,0
156303,238.755,-525.02,0,0
156563,238.354,-525.628,0,0
156823,237.829,-526.193,0,0
157084,237.108,-526.413,0,0
157344,236.614,-526.678,0,0
157604,235.834,-527.043,0,0
157864,234.842,-526.945,0,0
158125,233.932,-526.872,0,0
158385,233.004,-526.605,0,0
158645,231.664,-526.055,0,0
158906,230.445,-524.999,0,0
159166,229.714,-523.635,0,0
159426,228.952,-522.391,0,0
159687,228.209,-520.573,0,0
159947,228.325,-518.417,0,0
160207,228.923,-516.893,0,0
160468,229.188,-515.749,0,0
160728,229.458,-514.251,0,0
160988,229.875,-512.488,0,0
161249,230.998,-510.64,0,0
161509,232.741,-509.111,0,0
161769,235.104,-508.38,0,0
162030,237.284,-508.808,0,0
162290,238.911,-509.727,0,0
162550,240.239,-510.919,0,0
162811,241.364,-512.742,0,0
163071,241.532,-515.723,0,0
163331,239.729,-518.691,0,0
163592,236.954,-520.138,0,0
163852,234.317,-520.787,0,0
164112,231.652,-521.088,0,0
164373,229.049,-521.152,0,0
164633,225.88,-521,0,0
164893,222.459,-520.048,0,0
165154,219.402,-518.721,0,0
165414,216.267,-517.231,0,0
165674,212.572,-515.254,0,0
165935,209.042,-512.232,0,0
166195,206.271,-508.544,0,0
166455,204.077,-504.642,0,0
166716,202.453,-500.777,0,0
166976,200.963,-497.205,0,0
167236,199.482,-493.57,0,0
167497,198.159,-489.868,0,0
167757,196.944,-486.174,0,0
168017,195.57,-482.305,0,0
168277,194.316,-478.048,0,0
168538,193.293,-473.409,0,0
168798,192.914,-468.388,0,0
169058,193.07,-463.623,0,0
169319,193.563,-459.198,0,0
169579,194.049,-454.986,0,0
169839,194.487,-450.877,0,0
170100,194.998,-446.727,0,0
170360.075,195.572,-442.696,0,0
170620.4,196.014,-438.746,0,0
170880.725,196.169,-434.512,0,0
171141.05,196.423,-429.8,0,0
171401.375,197.27,-424.784,0,0
171661.7,198.495,-419.958,0,0
171922.025,199.907,-415.113,0,0
172182.35,201.471,-410.505,0,0
172442.675,203.048,-405.899,0,0
172703.0,204.725,-400.996,0,0
172963.325,206.912,-396.055,0,0
173223.65,209.233,-391.456,0,0
173483.975,211.648,-386.914,0,0
173744.3,214.174,-382.403,0,0
174004.625,216.715,-377.921,0,0
174264.95,219.364,-373.363,0,0
174525.275,222.194,-368.568,0,0
174785.6,225.482,-363.678,0,0
175045.925,229.376,-358.949,0,0
175306.25,233.571,-354.732,0,0
175566.575,237.709,-350.998,0,0
175826.9,241.639,-347.433,0,0
176087.225,245.465,-343.593,0,0
176347.55,249.699,-339.666,0,0
176607.875,254.325,-335.749,0,0
176868.2,259.41,-331.993,0,0
177128.525,265.09,-328.689,0,0
177388.85,271.209,-326.183,0,0
177649.175,277.26,-324.676,0,0
177909.5,282.805,-324.078,0,0
178169.825,287.482,-324.006,0,0
178430.15,290.788,-323.565,0,0
178690.475,294.5,-321.536,0,0
178950.8,299.06,-320.613,0,0
179211.125,303.293,-320.432,0,0
179471.45,306.87,-320.406,0,0
179731.775,310.312,-320.528,0,0
179992.1,313.163,-321.02,0,0
180252.425,315.053,-321.512,0,0
180512.75,316.026,-321.553,0,0
180773.075,316.277,-320.735,0,0
181033.4,316.285,-318.636,0,0
181293.725,316.79,-315.545,0,0
181554.05,318.022,-311.965,0,0
181814.375,319.657,-308.331,0,0
182074.7,321.311,-304.61,0,0
182335.025,323.05,-300.11,0,0
182595.35,325.524,-295.051,0,0
182855.675,329.002,-289.805,0,0
183116.0,333.042,-285.125,0,0
183376.325,337.212,-280.683,0,0
183636.65,341.435,-276.249,0,0
183896.975,345.871,-271.537,0,0
184157.3,350.808,-266.667,0,0
184417.625,356.244,-261.812,0,0
184677.95,362.175,-257.065,0,0
184938.275,368.647,-252.353,0,0
185198.6,375.788,-248.016,0,0
185458.925,383.296,-244.377,0,0
185719.25,390.927,-240.982,0,0
185979.575,399.037,-238.105,0,0
186239.9,407.315,-236.203,0,0
186500,414.851,-235.105,0,0
186761,421.706,-233.963,0,0
187021,428.059,-232.191,0,0
187281,434.59,-229.651,0,0
187542,442.268,-226.712,0,0
187802,450.91,-224.496,0,0
188062,459.679,-223.409,0,0
188322,467.931,-223.011,0,0
188583,475.379,-222.562,0,0
188843,482.796,-221.607,0,0
189103,490.679,-220.236,0,0
189364,498.945,-219.161,0,0
189624,507.247,-218.454,0,0
189884,515.346,-217.824,0,0
190145,523.415,-216.892,0,0
190405,531.689,-215.268,0,0
190665,540.976,-213.457,0,0
190926,550.954,-211.921,0,0
191186,561.713,-210.369,0,0
191446,573.506,-209.368,0,0
191707,585.968,-209.437,0,0
191967,598.47,-210.479,0,0
192227,610.933,-211.951,0,0
192488,623.639,-213.712,0,0
192748,637.051,-215.817,0,0
193008,651.231,-219.001,0,0
193269,665.586,-223.571,0,0
193529,679.866,-229.476,0,0
193789,693.384,-236.726,0,0
194050,705.915,-244.277,0,0
194310,718.403,-252.077,0,0
194570,730.647,-260.637,0,0
194831,742.345,-269.691,0,0
195091,753.9,-278.968,0,0
195351,765.53,-288.96,0,0
195612,776.717,-299.908,0,0
195872,787.088,-311.724,0,0
196132,796.406,-323.635,0,0
196393,805.255,-335.352,0,0
196653,814.345,-347.051,0,0
196913,823.498,-359.501,0,0
197174,832.269,-372.848,0,0
197434,840.384,-387.039,0,0
197694,847.357,-401.826,0,0
197955,853.29,-416.213,0,0
198215,859.113,-430.314,0,0
198475,865.329,-444.722,0,0
198735,871.465,-460.391,0,0
198996,876.542,-477.184,0,0
199256,880.273,-494.711,0,0
199516,882.422,-512.332,0,0
199777,882.951,-529.457,0,0
200037,883.053,-545.621,0,0
200297,883.271,-561.598,0,0
200558,883.165,-578.029,0,0
200818,882.186,-594.769,0,0
201078,880.435,-611.492,0,0
201339,878.009,-628.589,0,0
201599,874.402,-645.917,0,0
201859,869.445,-662.89,0,0
202120,863.546,-679.308,0,0
202380.025,856.731,-695.526,0,0
202640.35,848.625,-711.388,0,0
202900.675,839.096,-726.268,0,0
203161.0,828.374,-739.67,0,0
203421.325,817.593,-751.246,0,0
203681.65,807.023,-761.782,0,0
203941.975,796.651,-771.382,0,0
204202.3,786.105,-780.271,0,0
204462.625,776.037,-787.995,0,0
204722.95,767.065,-795.294,0,0
204983.275,758.679,-803.043,0,0
205243.6,750.076,-811.542,0,0
205503.925,740.342,-819.944,0,0
205764.25,729.883,-827.891,0,0
206024.575,718.758,-834.643,0,0
206284.9,707.677,-840.322,0,0
206545.225,696.909,-845.312,0,0
206805.55,686.403,-849.594,0,0
207065.875,675.997,-853.309,0,0
207326.2,666.069,-856.455,0,0
207586.525,656.601,-859.287,0,0
207846.85,647.376,-861.902,0,0
208107.175,638.325,-864.166,0,0
208367.5,629.78,-865.648,0,0
208627.825,622.319,-867.204,0,0
208888.15,615.26,-869.352,0,0
209148.475,608.196,-872.056,0,0
209408.8,601.114,-874.856,0,0
209669.125,593.745,-878.083,0,0
209929.45,585.819,-881.417,0,0
210189.775,577.449,-884.711,0,0
210450.1,568.516,-887.557,0,0
210710.425,559.338,-889.904,0,0
210970.75,549.982,-891.882,0,0
211231.075,540.294,-893.45,0,0
211491.4,530.246,-894.416,0,0
211751.725,520.023,-894.342,0,0
212012.05,510.149,-893.219,0,0
212272.375,500.978,-891.31,0,0
212532.7,492.689,-888.992,0,0
212793.025,485.153,-886.764,0,0
213053.35,477.842,-884.713,0,0
213313.675,470.546,-882.572,0,0
213574.0,463.34,-880.246,0,0
213834.325,456.65,-877.471,0,0
214094.65,450.319,-874.614,0,0
214354.975,444.34,-871.814,0,0
214615.3,438.661,-868.964,0,0
214875.625,433.243,-866.1,0,0
215135.95,427.974,-863.32,0,0
215396.275,422.872,-860.569,0,0
215656.6,417.761,-857.734,0,0
215916.925,412.903,-854.666,0,0
216177.25,408.299,-851.438,0,0
216437.575,403.926,-848.206,0,0
216697.9,399.927,-844.982,0,0
216958.225,396.09,-841.75,0,0
217218.55,392.45,-838.484,0,0
217478.875,389.1,-835.195,0,0
217739.2,386.044,-831.958,0,0
217999.525,383.183,-828.805,0,0
218259.85,380.554,-825.778,0,0
218520,378.099,-822.9,0,0
218780,375.791,-820.039,0,0
219041,373.626,-817.303,0,0
219301,371.616,-814.631,0,0
219561,369.74,-812.125,0,0
219822,367.92,-809.698,0,0
220082,366.166,-807.398,0,0
220342,364.435,-805.178,0,0
220603,362.872,-803.054,0,0
220863,361.135,-800.85,0,0
221123,359.562,-798.639,0,0
221384,358.231,-796.366,0,0
221644,357.026,-794.156,0,0
221904,356.034,-791.949,0,0
222165,355.257,-789.954,0,0
222425,354.737,-788.021,0,0
222685,354.307,-786.456,0,0
222946,353.986,-785.191,0,0
223206,353.616,-784.024,0,0
223466,353.152,-783.192,0,0
223727,352.721,-782.407,0,0
223987,352.082,-781.826,0,0
224247,351.422,-781.216,0,0
224508,350.574,-780.756,0,0
224768,349.81,-780.12,0,0
225028,348.951,-779.531,0,0
225289,348.285,-778.997,0,0
225549,347.493,-778.509,0,0
225809,346.73,-777.981,0,0
226070,346.153,-777.394,0,0
226330,345.768,-776.982,0,0
226590,345.511,-776.798,0,0
226851,345.199,-776.874,0,0
227111,344.787,-777.135,0,0
227371,344.175,-777.413,0,0
227632,343.755,-777.731,0,0
227892,343.214,-778.156,0,0
228152,342.797,-778.691,0,0
228413,342.383,-779.462,0,0
228673,341.969,-780.502,0,0
228933,341.432,-781.821,0,0
229193,340.632,-783.379,0,0
229454,339.5,-785.101,0,0
229714,338.089,-786.878,0,0
229974,336.425,-788.663,0,0
230235,334.472,-790.534,0,0
230495,332.259,-792.15,0,0
230755,329.845,-793.751,0,0
231016,327.366,-795.287,0,0
231276,324.629,-796.684,0,0
231536,321.7,-797.979,0,0
231797,318.562,-798.992,0,0
232057,315.463,-799.808,0,0
232317,312.373,-800.552,0,0
232578,309.267,-801.087,0,0
232838,306.079,-801.56,0,0
233098,302.915,-802.01,0,0
233359,299.753,-802.327,0,0
233619,296.497,-802.557,0,0
233879,293.295,-802.628,0,0
234140,290.166,-802.665,0,0
234400,286.997,-802.717,0,0
234660.3,283.862,-802.71,0,0
234920.625,280.587,-802.68,0,0
235180.95,277.274,-802.557,0,0
235441.275,273.819,-802.349,0,0
235701.6,270.336,-802.088,0,0
235961.925,266.825,-801.528,0,0
236222.25,263.359,-800.835,0,0
236482.575,259.974,-800.043,0,0
236742.9,256.667,-799.182,0,0
237003.225,253.378,-798.327,0,0
237263.55,250.04,-797.406,0,0
237523.875,246.683,-796.322,0,0
237784.2,243.34,-795.126,0,0
238044.525,240.107,-793.746,0,0
238304.85,236.896,-792.233,0,0
238565.175,233.844,-790.783,0,0
238825.5,230.907,-789.254,0,0
239085.825,227.888,-787.727,0,0
239346.15,224.959,-786.129,0,0
239606.475,221.958,-784.418,0,0
239866.8,219.118,-782.602,0,0
240127.125,216.422,-780.705,0,0
240387.45,213.705,-778.664,0,0
240647.775,211.189,-776.672,0,0
240908.1,208.695,-774.584,0,0
241168.425,206.321,-772.49,0,0
241428.75,204.073,-770.311,0,0
241689.075,202.132,-768.072,0,0
241949.4,200.143,-766.013,0,0
242209.725,198.275,-763.96,0,0
242470.05,196.54,-761.952,0,0
242730.375,194.798,-759.963,0,0
242990.7,193.149,-758.002,0,0
243251.025,191.648,-756.078,0,0
243511.35,190.257,-754.294,0,0
243771.675,188.821,-752.577,0,0
244032.0,187.464,-751.024,0,0
244292.325,186.116,-749.622,0,0
244552.65,184.711,-748.252,0,0
244812.975,183.141,-747.042,0,0
245073.3,181.724,-745.838,0,0
245333.625,180.154,-744.678,0,0
245593.95,178.527,-743.597,0,0
245854.275,176.807,-742.743,0,0
246114.6,174.964,-741.896,0,0
246374.925,172.783,-741.098,0,0
246635.25,170.373,-740.297,0,0
246895.575,167.744,-739.356,0,0
247155.9,164.866,-738.02,0,0
247416.225,161.925,-736.456,0,0
247676.55,159.094,-734.599,0,0
247936.875,156.284,-732.611,0,0
248197.2,153.554,-730.455,0,0
248457.525,150.949,-728.168,0,0
248717.85,148.306,-725.805,0,0
248978.175,145.702,-723.214,0,0
249238.5,143.229,-720.553,0,0
249498.825,140.84,-717.705,0,0
249759.15,138.559,-714.72,0,0
250019.475,136.413,-711.613,0,0
250279.8,134.414,-708.484,0,0
250540,132.57,-705.259,0,0
250800,130.913,-701.93,0,0
251061,129.393,-698.538,0,0
251321,128.001,-695.235,0,0
251581,126.786,-691.924,0,0
251842,125.599,-688.617,0,0
252102,124.541,-685.27,0,0
252362,123.604,-681.937,0,0
252623,122.812,-678.577,0,0
252883,122.144,-675.255,0,0
253143,121.583,-671.942,0,0
253404,121.119,-668.705,0,0
253664,120.73,-665.495,0,0
253924,120.4,-662.332,0,0
254185,120.141,-659.16,0,0
254445,119.961,-656.048,0,0
254705,119.877,-652.888,0,0
254966,119.866,-649.78,0,0
255226,119.961,-646.652,0,0
255486,120.144,-643.597,0,0
255747,120.365,-640.531,0,0
256007,120.701,-637.52,0,0
256267,121.148,-634.536,0,0
256528,121.681,-631.589,0,0
256788,122.299,-628.643,0,0
257048,123.007,-625.769,0,0
257309,123.84,-622.933,0,0
257569,124.803,-620.208,0,0
257829,125.875,-617.545,0,0
258090,127.002,-615.03,0,0
258350,128.169,-612.608,0,0
258610,129.324,-610.301,0,0
258871,130.517,-608.019,0,0
259131,131.75,-605.758,0,0
259391,133.049,-603.591,0,0
259651,134.463,-601.457,0,0
259912,135.909,-599.435,0,0
260172,137.423,-597.522,0,0
260432,139.023,-595.73,0,0
260693,140.578,-593.951,0,0
260953,142.223,-592.305,0,0
261213,143.909,-590.768,0,0
261474,145.606,-589.335,0,0
261734,147.354,-588.023,0,0
261994,149.106,-586.855,0,0
262255,150.84,-585.842,0,0
262515,152.525,-584.895,0,0
262775,154.139,-584.046,0,0
263036,155.72,-583.224,0,0
263296,157.329,-582.476,0,0
263556,159.02,-581.764,0,0
263817,160.745,-581.241,0,0
264077,162.472,-580.862,0,0
264337,164.11,-580.66,0,0
264598,165.665,-580.631,0,0
264858,167.048,-580.697,0,0
265118,168.334,-580.864,0,0
265379,169.472,-581.111,0,0
265639,170.476,-581.347,0,0
265899,171.286,-581.592,0,0
266160,171.97,-581.79,0,0
266420,172.589,-581.914,0,0
266680.25,173.214,-581.911,0,0
266940.575,173.881,-581.922,0,0
267200.9,174.486,-581.934,0,0
267461.225,175.194,-581.991,0,0
267721.55,175.854,-582.148,0,0
267981.875,176.449,-582.364,0,0
268242.2,176.9,-582.663,0,0
268502.525,177.228,-582.989,0,0
268762.85,177.41,-583.361,0,0
269023.175,177.344,-583.66,0,0
269283.5,177.122,-583.788,0,0
269543.825,176.771,-583.702,0,0
269804.15,176.381,-583.369,0,0
270064.475,176.077,-582.748,0,0
270324.8,175.911,-582.004,0,0
270585.125,175.869,-581.101,0,0
270845.45,176.042,-580.161,0,0
271105.775,176.359,-579.103,0,0
271366.1,176.94,-578.076,0,0
271626.425,177.615,-577.064,0,0
271886.75,178.42,-576.133,0,0
272147.075,179.352,-575.234,0,0
272407.4,180.325,-574.39,0,0
272667.725,181.409,-573.504,0,0
272928.05,182.644,-572.691,0,0
273188.375,184.02,-571.866,0,0
273448.7,185.588,-571.054,0,0
273709.025,187.452,-570.279,0,0
273969.35,189.615,-569.647,0,0
274229.675,192.128,-569.339,0,0
274490.0,194.86,-569.425,0,0
274750.325,197.73,-569.971,0,0
275010.65,200.564,-571.082,0,0
275270.975,203.324,-572.586,0,0
275531.3,205.933,-574.48,0,0
275791.625,208.32,-576.848,0,0
276051.95,210.435,-579.629,0,0
276312.275,212.14,-582.733,0,0
276572.6,213.426,-586.083,0,0
276832.925,214.256,-589.652,0,0
277093.25,214.594,-593.304,0,0
277353.575,214.383,-596.993,0,0
277613.9,213.708,-600.544,0,0
277874.225,212.604,-603.921,0,0
278134.55,211.117,-607.047,0,0
278394.875,209.414,-609.804,0,0
278655.2,207.532,-612.322,0,0
278915.525,205.561,-614.665,0,0
279175.85,203.447,-616.714,0,0
279436.175,201.331,-618.584,0,0
279696.5,199.118,-620.315,0,0
279956.825,196.892,-621.863,0,0
280217.15,194.647,-623.336,0,0
280477.475,192.376,-624.68,0,0
280737.8,190.071,-625.91,0,0
280998.125,187.677,-627.075,0,0
281258.45,185.201,-628.185,0,0
281518.775,182.651,-629.146,0,0
281779.1,180.004,-630.011,0,0
282039.425,177.302,-630.776,0,0
282299.75,174.456,-631.454,0,0
282560,171.464,-631.948,0,0
282820,168.31,-632.195,0,0
283081,165.083,-632.123,0,0
283341,161.835,-631.675,0,0
283601,158.749,-630.845,0,0
283862,155.973,-629.71,0,0
284122,153.58,-628.473,0,0
284382,151.515,-627.322,0,0
284643,149.596,-626.447,0,0
284903,147.621,-625.809,0,0
285163,145.421,-625.281,0,0
285424,142.936,-624.643,0,0
285684,140.298,-623.795,0,0
285944,137.595,-622.668,0,0
286205,134.875,-621.35,0,0
286465,132.159,-619.826,0,0
286725,129.406,-618.042,0,0
286986,126.672,-615.976,0,0
287246,124.026,-613.572,0,0
287506,121.52,-610.849,0,0
287767,119.235,-607.771,0,0
288027,117.237,-604.408,0,0
288287,115.625,-600.773,0,0
288548,114.444,-596.969,0,0
288808,113.689,-593.025,0,0
289068,113.402,-589.046,0,0
289329,113.56,-585.08,0,0
289589,114.185,-581.16,0,0
289849,115.336,-577.391,0,0
290109,117.001,-573.842,0,0
290370,119.083,-570.658,0,0
290630,121.559,-567.916,0,0
290890,124.301,-565.718,0,0
291151,127.152,-564.063,0,0
291411,130.002,-562.88,0,0
291671,132.795,-562.14,0,0
291932,135.539,-561.772,0,0
292192,138.172,-561.805,0,0
292452,140.728,-562.23,0,0
292713,143.104,-563.044,0,0
292973,145.211,-564.291,0,0
293233,146.938,-565.941,0,0
293494,148.104,-567.88,0,0
293754,148.634,-569.89,0,0
294014,148.559,-571.704,0,0
294275,148.014,-573.17,0,0
294535,147.184,-574.146,0,0
294795,146.311,-574.555,0,0
295056,145.663,-574.423,0,0
295316,145.535,-573.982,0,0
295576,145.968,-573.526,0,0
295837,146.942,-573.363,0,0
296097,148.262,-573.78,0,0
296357,149.632,-574.86,0,0
296618,150.761,-576.536,0,0
296878,151.422,-578.757,0,0
297138,151.471,-581.234,0,0
297399,150.849,-583.778,0,0
297659,149.63,-586.14,0,0
297919,147.938,-588.148,0,0
298180,145.989,-589.711,0,0
298440,143.932,-590.871,0,0
298700.2,141.895,-591.732,0,0
298960.525,139.913,-592.327,0,0
299220.85,138.022,-592.744,0,0
299481.175,136.16,-593.089,0,0
299741.5,134.336,-593.328,0,0
300001.825,132.461,-593.533,0,0
300262.15,130.55,-593.581,0,0
300522.475,128.597,-593.449,0,0
300782.8,126.693,-593.095,0,0
301043.125,124.893,-592.575,0,0
301303.45,123.224,-591.905,0,0
301563.775,121.739,-591.114,0,0
301824.1,120.439,-590.286,0,0
302084.425,119.346,-589.437,0,0
302344.75,118.451,-588.647,0,0
302605.075,117.735,-588.019,0,0
302865.4,117.119,-587.561,0,0
303125.725,116.489,-587.328,0,0
303386.05,115.824,-587.258,0,0
303646.375,114.995,-587.334,0,0
303906.7,114.006,-587.496,0,0
304167.025,112.851,-587.63,0,0
304427.35,111.604,-587.724,0,0
304687.675,110.261,-587.803,0,0
304948.0,108.803,-587.827,0,0
305208.325,107.213,-587.803,0,0
305468.65,105.545,-587.666,0,0
305728.975,103.813,-587.427,0,0
305989.3,102.037,-587.022,0,0
306249.625,100.269,-586.515,0,0
306509.95,98.4924,-585.881,0,0
306770.275,96.7423,-585.146,0,0
307030.6,95.024,-584.284,0,0
307290.925,93.3891,-583.343,0,0
307551.25,91.8167,-582.324,0,0
307811.575,90.3291,-581.264,0,0
308071.9,88.9039,-580.183,0,0
308332.225,87.5127,-579.071,0,0
308592.55,86.1727,-577.944,0,0
308852.875,84.8764,-576.795,0,0
309113.2,83.5998,-575.632,0,0
309373.525,82.3657,-574.427,0,0
309633.85,81.1696,-573.175,0,0
309894.175,79.9954,-571.926,0,0
310154.5,78.8983,-570.662,0,0
310414.825,77.8288,-569.36,0,0
310675.15,76.7975,-568.081,0,0
310935.475,75.7884,-566.77,0,0
311195.8,74.8266,-565.442,0,0
311456.125,73.914,-564.069,0,0
311716.45,73.0314,-562.698,0,0
311976.775,72.2199,-561.325,0,0
312237.1,71.4588,-559.97,0,0
312497.425,70.7422,-558.624,0,0
312757.75,70.0562,-557.299,0,0
313018.075,69.4005,-555.994,0,0
313278.4,68.7676,-554.713,0,0
313538.725,68.1301,-553.433,0,0
313799.05,67.5124,-552.17,0,0
314059.375,66.9167,-550.898,0,0
314319.7,66.3436,-549.629,0,0
314580,65.7885,-548.339,0,0
314840,65.2625,-547.129,0,0
315101,64.6521,-545.925,0,0
315361,64.1547,-544.671,0,0
315621,63.5374,-543.458,0,0
315882,63.1017,-542.164,0,0
316142,62.5462,-540.874,0,0
316402,62.0974,-539.577,0,0
316663,61.5318,-538.253,0,0
316923,61.1381,-536.999,0,0
317183,60.8095,-535.61,0,0
317444,60.5022,-534.372,0,0
317704,60.2244,-533.057,0,0
317964,59.9341,-531.788,0,0
318225,59.749,-530.545,0,0
318485,59.5519,-529.328,0,0
318745,59.2568,-528.146,0,0
319006,59.0508,-526.975,0,0
319266,58.8656,-525.851,0,0
319526,58.69,-524.727,0,0
319787,58.4708,-523.586,0,0
320047,58.2799,-522.464,0,0
320307,58.0396,-521.362,0,0
320567,57.8123,-520.308,0,0
320828,57.5871,-519.107,0,0
321088,57.4314,-517.987,0,0
321348,57.2374,-516.847,0,0
321609,57.0642,-515.738,0,0
321869,56.8427,-514.605,0,0
322129,56.687,-513.53,0,0
322390,56.5423,-512.379,0,0
322650,56.4373,-511.244,0,0
322910,56.1905,-510.13,0,0
323171,56.0357,-509.003,0,0
323431,55.8247,-507.77,0,0
323691,55.6898,-506.58,0,0
323952,55.5964,-505.289,0,0
324212,55.5429,-504.01,0,0
324472,55.5215,-502.673,0,0
324733,55.5521,-501.304,0,0
324993,55.7389,-499.921,0,0
325253,55.894,-498.518,0,0
325514,56.2017,-497.181,0,0
325774,56.6703,-495.884,0,0
326034,57.1198,-494.704,0,0
326295,57.7394,-493.534,0,0
326555,58.4141,-492.456,0,0
326815,59.1001,-491.547,0,0
327076,59.7201,-490.763,0,0
327336,60.4066,-490.01,0,0
327596,60.9613,-489.458,0,0
327857,61.514,-488.904,0,0
328117,61.917,-488.431,0,0
328377,62.4145,-487.937,0,0
328638,62.6931,-487.424,0,0
328898,63.1098,-486.964,0,0
329158,63.5053,-486.52,0,0
329419,63.8482,-486.089,0,0
329679,64.2542,-485.703,0,0
329939,64.6237,-485.345,0,0
330200,64.9098,-485.074,0,0
330460,65.269,-484.814,0,0
330720.15,65.4786,-484.64,0,0
330980.475,65.643,-484.464,0,0
331240.8,65.8382,-484.361,0,0
331501.125,65.9533,-484.22,0,0
331761.45,66.0086,-484.145,0,0
332021.775,65.9506,-484.1,0,0
332282.1,65.9523,-484.089,0,0
332542.425,65.7654,-484.031,0,0
332802.75,65.5304,-484.014,0,0
333063.075,65.1194,-483.874,0,0
333323.4,64.7656,-483.694,0,0
333583.725,64.3354,-483.525,0,0
333844.05,63.8459,-483.205,0,0
334104.375,63.3964,-482.87,0,0
334364.7,62.8796,-482.453,0,0
334625.025,62.4129,-482.053,0,0
334885.35,61.9268,-481.546,0,0
335145.675,61.4379,-481.034,0,0
335406.0,60.9762,-480.511,0,0
335666.325,60.5641,-479.904,0,0
335926.65,60.1001,-479.304,0,0
336186.975,59.6997,-478.651,0,0
336447.3,59.22,-477.969,0,0
336707.625,58.8486,-477.259,0,0
336967.95,58.4283,-476.618,0,0
337228.275,58.0702,-475.83,0,0
337488.6,57.7098,-475.024,0,0
337748.925,57.3209,-474.273,0,0
338009.25,57.0242,-473.461,0,0
338269.575,56.7144,-472.667,0,0
338529.9,56.4886,-471.892,0,0
338790.225,56.253,-471.09,0,0
339050.55,55.9519,-470.294,0,0
339310.875,55.8022,-469.443,0,0
339571.2,55.5464,-468.668,0,0
339831.525,55.3696,-467.811,0,0
340091.85,55.1462,-466.966,0,0
340352.175,54.9449,-466.161,0,0
340612.5,54.7961,-465.349,0,0
340872.825,54.5843,-464.547,0,0
341133.15,54.467,-463.723,0,0
341393.475,54.3131,-462.818,0,0
341653.8,54.1535,-462.012,0,0
341914.125,54.0546,-461.127,0,0
342174.45,53.9401,-460.23,0,0
342434.775,53.8822,-459.348,0,0
342695.1,53.8238,-458.487,0,0
342955.425,53.7742,-457.602,0,0
343215.75,53.7199,-456.662,0,0
343476.075,53.7601,-455.807,0,0
343736.4,53.7705,-454.898,0,0
343996.725,53.7824,-454.03,0,0
344257.05,53.8463,-453.152,0,0
344517.375,53.9113,-452.255,0,0
344777.7,54.0357,-451.382,0,0
345038.025,54.1211,-450.505,0,0
345298.35,54.2337,-449.618,0,0
345558.675,54.4778,-448.809,0,0
345819.0,54.5768,-447.926,0,0
346079.325,54.7818,-447.14,0,0
346339.65,55.0235,-446.33,0,0
346599.975,55.2271,-445.542,0,0
346860,55.4631,-444.74,0,0
347121,55.7376,-443.991,0,0
347381,55.9824,-443.234,0,0
347641,56.2437,-442.515,0,0
347902,56.5067,-441.783,0,0
348162,56.7595,-441.07,0,0
348422,57.0729,-440.39,0,0
348683,57.3518,-439.68,0,0
348943,57.6622,-439.001,0,0
349203,58.0046,-438.364,0,0
349464,58.3744,-437.72,0,0
349724,58.7689,-437.053,0,0
349984,59.1362,-436.506,0,0
350245,59.5145,-435.934,0,0
350505,59.9154,-435.412,0,0
350765,60.2888,-434.985,0,0
351025,60.6653,-434.541,0,0
351286,60.9407,-434.132,0,0
351546,61.2787,-433.738,0,0
351806,61.5842,-433.365,0,0
352067,61.829,-432.956,0,0
352327,62.0222,-432.546,0,0
352587,62.2954,-432.108,0,0
352848,62.457,-431.727,0,0
353108,62.7443,-431.296,0,0
353368,62.9032,-430.859,0,0
353629,63.1712,-430.444,0,0
353889,63.3853,-429.962,0,0
354149,63.6422,-429.56,0,0
354410,63.9034,-429.108,0,0
354670,64.1711,-428.709,0,0
354930,64.4821,-428.337,0,0
355191,64.7402,-427.962,0,0
355451,64.9844,-427.613,0,0
355711,65.221,-427.226,0,0
355972,65.4835,-426.857,0,0
356232,65.7029,-426.513,0,0
356492,65.9971,-426.121,0,0
356753,66.2769,-425.77,0,0
357013,66.481,-425.393,0,0
357273,66.8728,-425.077,0,0
357534,67.189,-424.711,0,0
357794,67.4814,-424.358,0,0
358054,67.8354,-424.069,0,0
358315,68.193,-423.794,0,0
358575,68.559,-423.56,0,0
358835,68.9296,-423.34,0,0
359096,69.3621,-423.177,0,0
359356,69.7174,-423.028,0,0
359616,70.102,-423.002,0,0
359877,70.4552,-423,0,0
360137,70.7794,-423.022,0,0
360397,70.9812,-423.08,0,0
360658,71.1597,-423.119,0,0
360918,71.3292,-423.207,0,0
361178,71.3938,-423.285,0,0
361438,71.4657,-423.31,0,0
361699,71.536,-423.371,0,0
361959,71.4763,-423.466,0,0
362219,71.4987,-423.42,0,0
362480,71.4506,-423.45,0,0
362740.1,71.4144,-423.437,0,0
363000.425,71.3521,-423.392,0,0
363260.75,71.3091,-423.351,0,0
363521.075,71.2321,-423.348,0,0
363781.4,71.1744,-423.342,0,0
364041.725,70.9923,-423.274,0,0
364302.05,70.8783,-423.235,0,0
364562.375,70.7329,-423.16,0,0
364822.7,70.5608,-423.12,0,0
365083.025,70.393,-423.001,0,0
365343.35,70.185,-422.861,0,0
365603.675,69.9753,-422.704,0,0
365864.0,69.781,-422.517,0,0
366124.325,69.6089,-422.33,0,0
366384.65,69.3698,-422.094,0,0
366644.975,69.2319,-421.857,0,0
366905.3,69.0928,-421.588,0,0
367165.625,68.967,-421.308,0,0
367425.95,68.8674,-421.068,0,0
367686.275,68.7733,-420.789,0,0
367946.6,68.7427,-420.538,0,0
368206.925,68.6934,-420.267,0,0
368467.25,68.657,-420.08,0,0
368727.575,68.6559,-419.87,0,0
368987.9,68.6604,-419.683,0,0
369248.225,68.6619,-419.582,0,0
369508.55,68.6645,-419.489,0,0
369768.875,68.6047,-419.409,0,0
370029.2,68.561,-419.369,0,0
370289.525,68.3752,-419.413,0,0
370549.85,68.2442,-419.387,0,0
370810.175,67.9909,-419.337,0,0
371070.5,67.7371,-419.247,0,0
371330.825,67.4667,-419.122,0,0
371591.15,67.2145,-418.988,0,0
371851.475,66.9526,-418.809,0,0
372111.8,66.6917,-418.682,0,0
372372.125,66.4463,-418.506,0,0
372632.45,66.2258,-418.309,0,0
372892.775,66.0221,-418.134,0,0
373153.1,65.8049,-417.911,0,0
373413.425,65.5765,-417.755,0,0
373673.75,65.329,-417.616,0,0
373934.075,65.1091,-417.445,0,0
374194.4,64.852,-417.302,0,0
374454.725,64.6079,-417.152,0,0
374715.05,64.2914,-417.025,0,0
374975.375,64.022,-416.864,0,0
375235.7,63.6598,-416.732,0,0
375496.025,63.2809,-416.551,0,0
375756.35,62.931,-416.317,0,0
376016.675,62.5454,-416.093,0,0
376277.0,62.1613,-415.869,0,0
376537.325,61.8463,-415.581,0,0
376797.65,61.5069,-415.295,0,0
377057.975,61.1758,-414.976,0,0
377318.3,60.9476,-414.686,0,0
377578.625,60.667,-414.48,0,0
377838.95,60.3882,-414.289,0,0
378099.275,60.0806,-414.153,0,0
378359.6,59.6668,-413.973,0,0
378619.925,59.2233,-413.829,0,0
378880,58.7517,-413.697,0,0
379141,58.1331,-413.497,0,0
379401,57.4892,-413.178,0,0
379661,56.7779,-412.796,0,0
379922,56.1226,-412.271,0,0
380182,55.5247,-411.653,0,0
380442,54.9524,-410.953,0,0
380703,54.5221,-410.122,0,0
380963,54.2284,-409.3,0,0
381223,54.141,-408.583,0,0
381483,54.0582,-407.936,0,0
381744,54.0512,-407.367,0,0
382004,54.0178,-406.915,0,0
382264,53.9531,-406.583,0,0
382525,53.8554,-406.291,0,0
382785,53.6672,-405.996,0,0
383045,53.4403,-405.775,0,0
383306,53.1445,-405.447,0,0
383566,52.8276,-405.141,0,0
383826,52.4322,-404.846,0,0
384087,52.0338,-404.493,0,0
384347,51.6584,-404.075,0,0
384607,51.2428,-403.649,0,0
384868,50.8321,-403.191,0,0
385128,50.4573,-402.701,0,0
385388,50.0363,-402.201,0,0
385649,49.5934,-401.665,0,0
385909,49.2621,-401.127,0,0
386169,48.8973,-400.539,0,0
386430,48.4833,-399.972,0,0
386690,48.1175,-399.346,0,0
386950,47.7711,-398.726,0,0
387211,47.4001,-398.064,0,0
387471,47.1044,-397.417,0,0
387731,46.8335,-396.692,0,0
387992,46.5539,-396.027,0,0
388252,46.2707,-395.231,0,0
388512,46.0799,-394.522,0,0
388773,45.8839,-393.787,0,0
389033,45.7511,-393.039,0,0
389293,45.6329,-392.276,0,0
389554,45.5962,-391.556,0,0
389814,45.5328,-390.837,0,0
390074,45.5965,-390.171,0,0
390335,45.5804,-389.546,0,0
390595,45.6669,-388.962,0,0
390855,45.7139,-388.401,0,0
391116,45.804,-387.931,0,0
391376,45.8273,-387.482,0,0
391636,45.7956,-387.095,0,0
391896,45.7784,-386.749,0,0
392157,45.6478,-386.446,0,0
392417,45.4839,-386.125,0,0
392677,45.2373,-385.786,0,0
392938,44.9534,-385.38,0,0
393198,44.646,-384.979,0,0
393458,44.3349,-384.499,0,0
393719,43.9242,-383.987,0,0
393979,43.6111,-383.453,0,0
394239,43.2278,-382.751,0,0
394500,42.8465,-382.155,0,0
394760.05,42.5634,-381.407,0,0
395020.375,42.2208,-380.643,0,0
395280.7,41.963,-379.878,0,0
395541.025,41.7518,-379.041,0,0
395801.35,41.5792,-378.284,0,0
396061.675,41.4124,-377.496,0,0
396322.0,41.3136,-376.63,0,0
396582.325,41.2169,-375.804,0,0
396842.65,41.1759,-375,0,0
397102.975,41.1507,-374.18,0,0
397363.3,41.1417,-373.378,0,0
397623.625,41.1494,-372.547,0,0
397883.95,41.2041,-371.811,0,0
398144.275,41.268,-371.032,0,0
398404.6,41.3494,-370.234,0,0
398664.925,41.4259,-369.521,0,0
398925.25,41.586,-368.767,0,0
399185.575,41.6742,-368.053,0,0
399445.9,41.829,-367.344,0,0
399706.225,41.9684,-366.687,0,0
399966.55,42.126,-365.979,0,0
400006.6,42.132,-365.905,0,0