File: Accelerated corrosion test data/2025-10-02_06-00-03/sample_4.csv
Frequency (Hz),Impedance (ohms),Phase (Radians),Temperature (C),Humidity (%)
10000.0,264.749,-11855.1,0,0
10260.325,261.5,-11556.6,0,0
10520.65,252.222,-11274.2,0,0
10780.975,245.621,-11004,0,0
11041.3,240.888,-10746,0,0
11301.625,235.868,-10503.5,0,0
11561.95,230.296,-10267.7,0,0
11822.275,225.922,-10042.9,0,0
12082.6,220.85,-9828.39,0,0
12342.925,216.585,-9622.11,0,0
12603.25,214.171,-9423.43,0,0
12863.575,210.432,-9236.78,0,0
13123.9,211.227,-9057.38,0,0
13384.225,200.981,-8879.52,0,0
13644.55,197.266,-8709.2,0,0
13904.875,194.981,-8543.69,0,0
14165.2,196.547,-8381.25,0,0
14425.525,202.343,-8230.04,0,0
14685.8,202.558,-8121.92,0,0
14946.175,183.864,-7964.8,0,0
15206.5,182.188,-7820.33,0,0
15466.825,189.623,-7676.34,0,0
15727.15,191.202,-7577.32,0,0
15987.5,189.495,-7462.23,0,0
16247.8,172.202,-7334.46,0,0
16508.125,184.811,-7205.51,0,0
16768.45,180.201,-7108.24,0,0
17028.775,172.658,-7018.6,0,0
17289.1,161.538,-6905.33,0,0
17549.425,160.005,-6801.15,0,0
17809.75,157.163,-6699.66,0,0
18070.075,153.566,-6601.62,0,0
18330.4,154.519,-6505.16,0,0
18590.725,155.627,-6418.53,0,0
18851.05,151.048,-6332.43,0,0
19111.375,146.312,-6244.54,0,0
19371.7,143.759,-6159.1,0,0
19632.025,142.808,-6074.87,0,0
19892.35,144.77,-5993.79,0,0
20152.675,145.17,-5917.55,0,0
20413.0,142.093,-5845,0,0
20673.3,141.243,-5769.01,0,0
20933.65,138.897,-5696.95,0,0
21193.975,140.829,-5622.29,0,0
21454.3,153.412,-5554.96,0,0
21714.625,145.567,-5499.31,0,0
21974.9,151.577,-5429.7,0,0
22235.275,149.424,-5380.71,0,0
22495.6,137.762,-5327.42,0,0
22755.925,129.648,-5262.87,0,0
23016.25,126.382,-5200.39,0,0
23276.6,123.979,-5139.88,0,0
23536.9,122.97,-5082.86,0,0
23797.225,120.13,-5026.56,0,0
24057.55,118.716,-4970.63,0,0
24317.875,117.038,-4915.93,0,0
24578.2,115.762,-4862.83,0,0
24838.525,115.724,-4810.72,0,0
25098.85,115.68,-4761.11,0,0
25359.175,114.273,-4712.87,0,0
25619.5,113.562,-4662.93,0,0
25879.8,112.667,-4619.31,0,0
26140.1,109.302,-4570.49,0,0
26400.5,108.357,-4523.82,0,0
26660.8,108.226,-4478.05,0,0
26921.1,107.72,-4434.7,0,0
27181.4,106.569,-4389.06,0,0
27441.8,107.414,-4344.59,0,0
27702.1,109.331,-4301.39,0,0
27962.4,118.499,-4260.14,0,0
28222.7,120.879,-4227.75,0,0
28483.1,116.89,-4198.23,0,0
28743.4,111.773,-4157.45,0,0
29003.7,111.443,-4116.3,0,0
29264,116.144,-4082,0,0
29524.4,114.21,-4052.12,0,0
29784.7,108.622,-4020.82,0,0
30045,108.495,-3983.75,0,0
30305.3,102.929,-3950.55,0,0
30565.7,101.586,-3915.13,0,0
30826,99.8965,-3881.15,0,0
31086.3,99.8051,-3847.23,0,0
31346.6,100.487,-3814.15,0,0
31607,99.5509,-3784.03,0,0
31867.3,97.6317,-3752.63,0,0
32127.6,100.155,-3720.8,0,0
32387.9,99.1746,-3694.5,0,0
32648.3,97.9908,-3664.18,0,0
32908.6,95.9833,-3638.23,0,0
33168.9,93.2799,-3608.97,0,0
33429.2,91.0399,-3580.25,0,0
33689.6,89.7797,-3550.94,0,0
33949.9,88.6786,-3522.94,0,0
34210.2,88.7849,-3495.08,0,0
34470.5,87.1777,-3469.3,0,0
34730.9,85.8175,-3442.32,0,0
34991.2,85.8286,-3415.43,0,0
35251.5,84.8797,-3390.18,0,0
35511.8,84.2984,-3364.46,0,0
35772.2,83.9728,-3339.64,0,0
36032.5,82.6602,-3314.61,0,0
36292.8,81.882,-3290.06,0,0
36553.1,81.8404,-3265.72,0,0
36813.5,81.6498,-3241.65,0,0
37073.8,81.6986,-3219.22,0,0
37334.1,80.7594,-3196.23,0,0
37594.4,80.2572,-3172.98,0,0
37854.8,79.9071,-3150.93,0,0
38115.1,78.9369,-3129.11,0,0
38375.4,78.327,-3106.69,0,0
38635.7,78.1536,-3084.48,0,0
38896.1,78.4236,-3062.96,0,0
39156.4,77.946,-3042.28,0,0
39416.7,77.4349,-3021.21,0,0
39677,77.2717,-2999.8,0,0
39937.4,77.7828,-2979.08,0,0
40197.7,79.2261,-2958.15,0,0
40458,82.0374,-2940.56,0,0
40718.3,79.4004,-2923.32,0,0
40978.7,79.4934,-2902.65,0,0
41239,80.5417,-2883.51,0,0
41499.3,83.5397,-2867.11,0,0
41759.6,80.7142,-2852.21,0,0
42020,78.5838,-2833.48,0,0
42280.275,77.9937,-2814.26,0,0
42540.6,79.8309,-2797.61,0,0
42800.925,78.0825,-2782.38,0,0
43061.25,76.5628,-2763.61,0,0
43321.575,76.8876,-2747.35,0,0
43581.9,75.3773,-2730.91,0,0
43842.225,74.6807,-2713.7,0,0
44102.55,74.718,-2697.7,0,0
44362.875,73.2142,-2680.95,0,0
44623.2,73.0357,-2664.36,0,0
44883.525,72.6783,-2648.57,0,0
45143.85,71.967,-2632.54,0,0
45404.175,71.3769,-2615.92,0,0
45664.5,72.5678,-2599.49,0,0
45924.825,73.0835,-2585.46,0,0
46185.15,72.6598,-2571.44,0,0
46445.475,71.5407,-2555.75,0,0
46705.8,72.1971,-2540.4,0,0
46966.125,72.602,-2526.75,0,0
47226.45,72.8842,-2512.52,0,0
47486.775,72.1369,-2500.36,0,0
47747.1,70.6205,-2485.97,0,0
48007.425,69.8464,-2472.09,0,0
48267.75,69.4063,-2457.61,0,0
48528.075,68.9094,-2444.25,0,0
48788.4,67.9989,-2430.59,0,0
49048.725,66.844,-2416.76,0,0
49309.05,67.0306,-2402.55,0,0
49569.375,66.2596,-2389.97,0,0
49829.7,65.7177,-2376.21,0,0
50090.025,65.4881,-2362.68,0,0
50350.35,65.3517,-2349.44,0,0
50610.675,65.1238,-2336.5,0,0
50871.0,64.8061,-2323.63,0,0
51131.325,64.431,-2310.55,0,0
51391.65,64.3889,-2297.54,0,0
51651.975,64.8614,-2284.83,0,0
51912.3,64.5827,-2272.43,0,0
52172.625,64.8339,-2259.66,0,0
52432.95,65.0126,-2247.37,0,0
52693.275,65.1707,-2234.42,0,0
52953.6,66.774,-2221.85,0,0
53213.925,67.5048,-2210.83,0,0
53474.25,68.02,-2198.84,0,0
53734.575,69.4772,-2186.47,0,0
53994.9,72.1928,-2175.34,0,0
54255.225,74.376,-2165.51,0,0
54515.55,77.1213,-2156.79,0,0
54775.875,76.986,-2150.44,0,0
55036.2,74.6483,-2141.48,0,0
55296.525,73.9774,-2131.84,0,0
55556.85,72.1661,-2122.42,0,0
55817.175,71.1272,-2112.39,0,0
56077.5,69.1448,-2102.48,0,0
56337.825,67.8333,-2091.57,0,0
56598.15,66.6558,-2080.18,0,0
56858.475,66.2409,-2069.07,0,0
57118.8,66.2834,-2058.14,0,0
57379.125,66.5473,-2047.6,0,0
57639.45,66.7936,-2037.2,0,0
57899.775,66.8811,-2026.88,0,0
58160.1,67.0323,-2016.63,0,0
58420.4,67.8552,-2006.42,0,0
58680.7,68.3323,-1997.43,0,0
58941.1,68.311,-1987.07,0,0
59201.4,69.0152,-1976.18,0,0
59461.7,71.2712,-1965.93,0,0
59722,73.9973,-1957.05,0,0
59982.4,76.8701,-1949.53,0,0
60242.7,77.3739,-1943.01,0,0
60503,78.4644,-1934.89,0,0
60763.3,81.3717,-1928.2,0,0
61023.7,81.326,-1925.02,0,0
61284,78.9401,-1919.71,0,0
61544.3,75.1656,-1913.59,0,0
61804.6,71.6178,-1903.88,0,0
62065,70.5495,-1895.2,0,0
62325.3,69.1445,-1887.1,0,0
62585.6,66.5047,-1878.51,0,0
62845.9,65.3267,-1868.07,0,0
63106.3,64.9972,-1858.7,0,0
63366.6,65.1368,-1849.37,0,0
63626.9,65.3206,-1841.06,0,0
63887.2,64.8882,-1832.81,0,0
64147.6,64.0606,-1824.17,0,0
64407.9,64.0878,-1815.02,0,0
64668.2,64.9723,-1806.28,0,0
64928.5,65.4705,-1798.64,0,0
65188.9,65.273,-1790.55,0,0
65449.2,65.8929,-1782.17,0,0
65709.5,66.0302,-1774.18,0,0
65969.8,66.9274,-1765.98,0,0
66230.2,67.9346,-1758.68,0,0
66490.5,68.5298,-1751.6,0,0
66750.8,68.994,-1744.28,0,0
67011.1,69.3497,-1737.09,0,0
67271.5,70.5196,-1729.74,0,0
67531.8,71.7246,-1722.9,0,0
67792.1,72.7165,-1716.62,0,0
68052.4,74.0633,-1710.93,0,0
68312.8,74.4091,-1705.93,0,0
68573.1,74.3016,-1700.79,0,0
68833.4,73.7574,-1695.92,0,0
69093.7,72.1449,-1690.95,0,0
69354.1,70.2396,-1684.91,0,0
69614.4,68.3464,-1678.24,0,0
69874.7,66.879,-1671,0,0
70135,65.9734,-1663.91,0,0
70395.4,65.0059,-1656.83,0,0
70655.7,64.5992,-1648.92,0,0
70916,65.7057,-1642.13,0,0
71176.3,65.7849,-1636.75,0,0
71436.7,64.9305,-1630.84,0,0
71697,64.7125,-1624.87,0,0
71957.3,63.332,-1619.66,0,0
72217.6,61.0808,-1613.13,0,0
72478,59.5588,-1605.75,0,0
72738.3,58.9867,-1598.37,0,0
72998.6,57.988,-1591.27,0,0
73258.9,57.355,-1583.37,0,0
73519.3,57.7558,-1575.96,0,0
73779.6,58.0707,-1568.97,0,0
74039.9,58.5924,-1562.18,0,0
74300.225,58.9315,-1555.69,0,0
74560.55,59.1711,-1549.2,0,0
74820.875,59.6155,-1542.76,0,0
75081.2,60.1877,-1536.38,0,0
75341.525,60.8195,-1530.26,0,0
75601.85,61.3924,-1524.42,0,0
75862.175,61.761,-1518.7,0,0
76122.5,62.2847,-1512.87,0,0
76382.825,62.6975,-1507.51,0,0
76643.15,62.5299,-1502.13,0,0
76903.475,62.3997,-1496.04,0,0
77163.8,63.099,-1489.58,0,0
77424.125,64.4739,-1484.11,0,0
77684.45,65.5052,-1479.41,0,0
77944.775,66.1725,-1475.06,0,0
78205.1,66.1876,-1470.81,0,0
78465.425,65.8524,-1466.38,0,0
78725.75,65.3304,-1461.94,0,0
78986.075,64.5891,-1457.2,0,0
79246.4,63.7051,-1452.17,0,0
79506.725,62.8536,-1446.83,0,0
79767.05,62.2164,-1441.46,0,0
80027.375,61.7706,-1435.96,0,0
80287.7,61.463,-1430.49,0,0
80548.025,61.3114,-1425.08,0,0
80808.35,61.2099,-1419.81,0,0
81068.675,61.1252,-1414.6,0,0
81329.0,61.0274,-1409.47,0,0
81589.325,60.9506,-1404.51,0,0
81849.65,60.6961,-1399.53,0,0
82109.975,60.4225,-1394.61,0,0
82370.3,60.1115,-1389.57,0,0
82630.625,59.9015,-1384.55,0,0
82890.95,59.6586,-1379.63,0,0
83151.275,59.3888,-1374.65,0,0
83411.6,59.113,-1369.73,0,0
83671.925,58.8751,-1364.69,0,0
83932.25,58.7167,-1359.75,0,0
84192.575,58.4301,-1354.91,0,0
84452.9,58.1925,-1349.98,0,0
84713.225,57.9914,-1345.08,0,0
84973.55,57.8449,-1340.14,0,0
85233.875,57.7278,-1335.38,0,0
85494.2,57.5669,-1330.7,0,0
85754.525,57.3118,-1325.8,0,0
86014.85,57.1313,-1321.03,0,0
86275.175,57.0428,-1316.25,0,0
86535.5,56.9452,-1311.58,0,0
86795.825,56.8935,-1306.92,0,0
87056.15,56.7328,-1302.39,0,0
87316.475,56.4103,-1297.88,0,0
87576.8,56.2011,-1293.37,0,0
87837.125,55.9382,-1288.85,0,0
88097.45,55.4985,-1284.41,0,0
88357.775,54.8041,-1279.71,0,0
88618.1,54.3939,-1274.82,0,0
88878.425,54.165,-1269.83,0,0
89138.75,53.9565,-1264.84,0,0
89399.075,53.9971,-1260.06,0,0
89659.4,54.0284,-1255.31,0,0
89919.725,54.0766,-1250.66,0,0
90180,54.0474,-1246.22,0,0
90440.4,53.9993,-1241.62,0,0
90700.7,53.9066,-1237.1,0,0
90961,53.8693,-1232.53,0,0
91221.3,53.7907,-1227.9,0,0
91481.7,53.8717,-1223.38,0,0
91742,53.9481,-1218.66,0,0
92002.3,54.1781,-1214.07,0,0
92262.6,54.4825,-1209.64,0,0
92523,54.8566,-1205.27,0,0
92783.3,55.186,-1201.11,0,0
93043.6,55.4701,-1197.15,0,0
93303.9,55.5463,-1193.23,0,0
93564.3,55.534,-1189.39,0,0
93824.6,55.4137,-1185.5,0,0
94084.9,55.0634,-1181.62,0,0
94345.2,54.5749,-1177.47,0,0
94605.6,54.2115,-1173.18,0,0
94865.9,53.8919,-1168.8,0,0
95126.2,53.6526,-1164.29,0,0
95386.5,53.5341,-1159.86,0,0
95646.9,53.4792,-1155.49,0,0
95907.2,53.4873,-1150.84,0,0
96167.5,53.6446,-1146.47,0,0
96427.8,53.7968,-1142.14,0,0
96688.2,53.9396,-1137.86,0,0
96948.5,54.0532,-1133.58,0,0
97208.8,54.201,-1129.29,0,0
97469.1,54.4376,-1124.99,0,0
97729.5,54.6061,-1120.82,0,0
97989.8,54.7303,-1116.57,0,0
98250.1,54.9997,-1112.26,0,0
98510.4,55.3413,-1107.99,0,0
98770.8,55.6231,-1103.71,0,0
99031.1,56.0306,-1099.46,0,0
99291.4,56.6355,-1095.24,0,0
99551.7,57.3332,-1091.22,0,0
99812.1,57.8046,-1087.38,0,0
100072,58.1123,-1083.33,0,0
100333,58.745,-1079.1,0,0
100593,59.8124,-1075.09,0,0
100853,60.9321,-1071.66,0,0
101114,61.6539,-1068.53,0,0
101374,62.2814,-1065.39,0,0
101634,62.8408,-1062.63,0,0
101895,62.7608,-1060.1,0,0
102155,62.01,-1057.38,0,0
102415,60.8866,-1053.8,0,0
102676,60.1615,-1049.86,0,0
102936,59.3952,-1045.95,0,0
103196,58.5388,-1041.53,0,0
103457,58.0544,-1036.65,0,0
103717,57.9584,-1031.76,0,0
103977,58.2518,-1026.75,0,0
104238,58.8733,-1022.05,0,0
104498,59.4883,-1017.4,0,0
104758,60.2694,-1012.68,0,0
105019,61.37,-1008.13,0,0
105279,62.603,-1003.85,0,0
105539,63.7671,-999.686,0,0
105800,65.0153,-995.589,0,0
106060,66.2764,-991.709,0,0
106320.175,67.5136,-987.924,0,0
106580.5,68.7505,-984.06,0,0
106840.825,70.0514,-980.379,0,0
107101.15,71.3831,-976.827,0,0
107361.475,72.5838,-973.289,0,0
107621.8,73.7285,-969.67,0,0
107882.125,75.0185,-966.04,0,0
108142.45,76.4603,-962.371,0,0
108402.775,78.0608,-958.842,0,0
108663.1,79.7618,-955.485,0,0
108923.425,81.5238,-952.316,0,0
109183.75,83.2757,-949.389,0,0
109444.075,84.9961,-946.574,0,0
109704.4,86.6377,-943.994,0,0
109964.725,88.1176,-941.504,0,0
110225.05,89.4609,-938.935,0,0
110485.375,90.8103,-936.393,0,0
110745.7,92.1658,-934.07,0,0
111006.025,93.5374,-931.596,0,0
111266.35,94.701,-929.175,0,0
111526.675,95.7765,-927.022,0,0
111787.0,97.0406,-924.677,0,0
112047.325,98.2634,-922.399,0,0
112307.65,99.4707,-920.273,0,0
112567.975,100.618,-918.2,0,0
112828.3,101.76,-916.187,0,0
113088.625,102.847,-914.279,0,0
113348.95,103.897,-912.469,0,0
113609.275,104.816,-910.743,0,0
113869.6,105.564,-909.011,0,0
114129.925,106.303,-907.215,0,0
114390.25,107.016,-905.58,0,0
114650.575,107.679,-903.885,0,0
114910.9,108.282,-902.237,0,0
115171.225,108.85,-900.741,0,0
115431.55,109.227,-899.219,0,0
115691.875,109.451,-897.782,0,0
115952.2,109.515,-896.228,0,0
116212.525,109.573,-894.469,0,0
116472.85,109.77,-892.874,0,0
116733.175,109.664,-891.363,0,0
116993.5,109.379,-889.714,0,0
117253.825,108.935,-887.879,0,0
117514.15,108.495,-885.828,0,0
117774.475,108.161,-883.603,0,0
118034.8,107.859,-881.224,0,0
118295.125,107.689,-878.81,0,0
118555.45,107.605,-876.282,0,0
118815.775,107.638,-873.479,0,0
119076.1,108.145,-870.544,0,0
119336.425,109.271,-867.898,0,0
119596.75,110.669,-865.801,0,0
119857.075,112.039,-864.254,0,0
120117.4,113.412,-863.218,0,0
120377.725,114.345,-863.066,0,0
120638.05,114.464,-863.201,0,0
120898.375,113.577,-863.306,0,0
121158.7,111.957,-862.645,0,0
121419.025,110.357,-861.39,0,0
121679.35,108.738,-859.678,0,0
121939.675,107.319,-857.627,0,0
122200.0,106.036,-855.482,0,0
122460,104.816,-853.13,0,0
122721,103.765,-850.702,0,0
122981,102.81,-848.155,0,0
123241,102.022,-845.593,0,0
123502,101.265,-842.988,0,0
123762,100.75,-840.471,0,0
124022,100.229,-837.979,0,0
124283,99.6788,-835.596,0,0
124543,99.0492,-833.23,0,0
124803,98.4074,-830.73,0,0
125064,97.8793,-828.185,0,0
125324,97.4602,-825.638,0,0
125584,97.0713,-823.196,0,0
125845,96.7037,-820.806,0,0
126105,96.4241,-818.519,0,0
126365,96.0456,-816.4,0,0
126626,95.52,-814.458,0,0
126886,94.7111,-812.492,0,0
127146,93.8096,-810.303,0,0
127406,92.7084,-807.934,0,0
127667,91.8323,-805.499,0,0
127927,90.9524,-803.188,0,0
128187,89.9283,-800.817,0,0
128448,88.7322,-798.448,0,0
128708,87.5516,-795.875,0,0
128968,86.302,-793.252,0,0
129229,84.9517,-790.557,0,0
129489,83.4976,-787.659,0,0
129749,82.0935,-784.438,0,0
130010,80.8597,-781.004,0,0
130270,79.7852,-777.567,0,0
130530,78.7569,-774.047,0,0
130791,77.8398,-770.526,0,0
131051,76.9665,-766.891,0,0
131311,76.1925,-763.161,0,0
131572,75.5675,-759.389,0,0
131832,75.042,-755.681,0,0
132092,74.6116,-751.956,0,0
132353,74.1566,-748.229,0,0
132613,73.7707,-744.444,0,0
132873,73.5124,-740.616,0,0
133134,73.3414,-736.835,0,0
133394,73.2177,-733.077,0,0
133654,73.1106,-729.312,0,0
133915,73.0605,-725.517,0,0
134175,73.0871,-721.725,0,0
134435,73.195,-717.892,0,0
134696,73.3399,-714.147,0,0
134956,73.5083,-710.309,0,0
135216,73.7792,-706.533,0,0
135477,74.1643,-702.709,0,0
135737,74.664,-699.006,0,0
135997,75.1178,-695.395,0,0
136258,75.6105,-691.841,0,0
136518,76.0072,-688.21,0,0
136778,76.5537,-684.589,0,0
137039,77.2033,-681.002,0,0
137299,77.9056,-677.561,0,0
137559,78.4472,-674.244,0,0
137819,78.919,-670.928,0,0
138080,79.25,-667.569,0,0
138340.125,79.5687,-664.05,0,0
138600.45,79.9487,-660.411,0,0
138860.775,80.4318,-656.753,0,0
139121.1,80.8903,-653.062,0,0
139381.425,81.4314,-649.33,0,0
139641.75,82.0569,-645.518,0,0
139902.075,82.7758,-641.755,0,0
140162.4,83.4782,-637.964,0,0
140422.725,84.297,-634.124,0,0
140683.05,85.2096,-630.253,0,0
140943.375,86.199,-626.39,0,0
141203.7,87.3169,-622.573,0,0
141464.025,88.515,-618.855,0,0
141724.35,89.723,-615.22,0,0
141984.675,90.9202,-611.616,0,0
142245.0,92.1024,-608.02,0,0
142505.325,93.3386,-604.417,0,0
142765.65,94.5702,-600.827,0,0
143025.975,95.8097,-597.282,0,0
143286.3,97.0619,-593.685,0,0
143546.625,98.3315,-590.114,0,0
143806.95,99.6152,-586.489,0,0
144067.275,100.935,-582.81,0,0
144327.6,102.34,-579.131,0,0
144587.925,103.777,-575.421,0,0
144848.25,105.285,-571.723,0,0
145108.575,106.857,-568.012,0,0
145368.9,108.496,-564.327,0,0
145629.225,110.132,-560.619,0,0
145889.55,111.881,-556.895,0,0
146149.875,113.706,-553.188,0,0
146410.2,115.554,-549.462,0,0
146670.525,117.518,-545.725,0,0
146930.85,119.604,-542.059,0,0
147191.175,121.684,-538.456,0,0
147451.5,123.783,-534.852,0,0
147711.825,125.962,-531.234,0,0
147972.15,128.189,-527.663,0,0
148232.475,130.385,-524.118,0,0
148492.8,132.611,-520.431,0,0
148753.125,134.998,-516.659,0,0
149013.45,137.532,-512.896,0,0
149273.775,140.243,-509.19,0,0
149534.1,143.061,-505.498,0,0
149794.425,145.991,-501.88,0,0
150054.75,149.058,-498.319,0,0
150315.075,152.204,-494.872,0,0
150575.4,155.339,-491.441,0,0
150835.725,158.67,-487.887,0,0
151096.05,162.265,-484.446,0,0
151356.375,166.063,-481.169,0,0
151616.7,169.993,-478.127,0,0
151877.025,173.892,-475.26,0,0
152137.35,177.861,-472.423,0,0
152397.675,182.017,-469.667,0,0
152658.0,186.365,-467.093,0,0
152918.325,190.813,-464.8,0,0
153178.65,195.362,-462.733,0,0
153438.975,200.049,-461.015,0,0
153699.3,204.625,-459.756,0,0
153959.625,208.936,-458.811,0,0
154219.95,212.983,-457.978,0,0
154480,216.897,-457.237,0,0
154741,220.545,-456.644,0,0
155001,223.798,-455.993,0,0
155261,227.132,-455.117,0,0
155522,230.503,-454.049,0,0
155782,234.048,-453.104,0,0
156042,237.669,-452.427,0,0
156303,241.174,-451.818,0,0
156563,244.625,-451.489,0,0
156823,247.705,-451.458,0,0
157084,250.36,-451.047,0,0
157344,253.191,-450.201,0,0
157604,256.182,-449.674,0,0
157864,258.727,-448.952,0,0
158125,261.455,-447.77,0,0
158385,264.725,-446.365,0,0
158645,268.286,-445.439,0,0
158906,271.97,-444.542,0,0
159166,275.876,-443.707,0,0
159426,280.208,-443.427,0,0
159687,284.32,-443.627,0,0
159947,288.456,-444.092,0,0
160207,292.436,-444.867,0,0
160468,296.005,-446.316,0,0
160728,299.028,-447.513,0,0
160988,302.353,-448.901,0,0
161249,305.226,-451.064,0,0
161509,307.089,-453.26,0,0
161769,308.342,-454.933,0,0
162030,309.343,-456.202,0,0
162290,310.044,-457.041,0,0
162550,310.698,-457.388,0,0
162811,311.614,-457.406,0,0
163071,312.506,-457.509,0,0
163331,313.006,-457.266,0,0
163592,313.759,-456.367,0,0
163852,314.773,-455.251,0,0
164112,316.061,-453.884,0,0
164373,317.614,-452.042,0,0
164633,319.863,-450.156,0,0
164893,322.509,-448.522,0,0
165154,325.637,-447.025,0,0
165414,328.691,-445.912,0,0
165674,331.889,-444.918,0,0
165935,335.177,-443.768,0,0
166195,338.697,-442.672,0,0
166455,342.534,-441.605,0,0
166716,346.911,-440.423,0,0
166976,352.127,-439.609,0,0
167236,357.582,-439.508,0,0
167497,363.328,-439.887,0,0
167757,369.465,-440.804,0,0
168017,375.977,-442.746,0,0
168277,382.332,-445.858,0,0
168538,388.257,-449.93,0,0
168798,393.305,-454.738,0,0
169058,397.713,-459.855,0,0
169319,401.607,-465.202,0,0
169579,405.192,-470.944,0,0
169839,408.12,-477.214,0,0
170100,410.259,-483.716,0,0
170360.075,412.075,-490.192,0,0
170620.4,413.504,-497.322,0,0
170880.725,413.932,-505.242,0,0
171141.05,412.839,-513.398,0,0
171401.375,410.193,-521.017,0,0
171661.7,406.674,-527.777,0,0
171922.025,402.61,-533.871,0,0
172182.35,397.899,-539.35,0,0
172442.675,392.852,-544.171,0,0
172703.0,387.35,-548.715,0,0
172963.325,380.836,-552.684,0,0
173223.65,373.633,-555.172,0,0
173483.975,366.683,-556.406,0,0
173744.3,359.974,-556.922,0,0
174004.625,353.359,-556.674,0,0
174264.95,347.174,-555.697,0,0
174525.275,341.175,-554.281,0,0
174785.6,335.399,-552.201,0,0
175045.925,330.094,-549.54,0,0
175306.25,325.199,-546.64,0,0
175566.575,320.5,-543.403,0,0
175826.9,316.061,-539.713,0,0
176087.225,312.11,-535.511,0,0
176347.55,308.684,-531.042,0,0
176607.875,305.784,-526.394,0,0
176868.2,303.36,-521.625,0,0
177128.525,301.375,-516.841,0,0
177388.85,299.84,-511.977,0,0
177649.175,298.709,-507.141,0,0
177909.5,298.02,-502.375,0,0
178169.825,297.77,-497.851,0,0
178430.15,297.692,-493.616,0,0
178690.475,297.671,-489.536,0,0
178950.8,297.785,-485.53,0,0
179211.125,298.03,-481.617,0,0
179471.45,298.371,-477.829,0,0
179731.775,298.773,-474.089,0,0
179992.1,299.273,-470.372,0,0
180252.425,299.886,-466.748,0,0
180512.75,300.597,-463.24,0,0
180773.075,301.329,-459.831,0,0
181033.4,302.038,-456.434,0,0
181293.725,302.809,-453.08,0,0
181554.05,303.609,-449.775,0,0
181814.375,304.368,-446.525,0,0
182074.7,305.13,-443.292,0,0
182335.025,305.821,-440.027,0,0
182595.35,306.439,-436.712,0,0
182855.675,307.014,-433.298,0,0
183116.0,307.624,-429.761,0,0
183376.325,308.173,-426.058,0,0
183636.65,308.825,-422.16,0,0
183896.975,309.612,-418.119,0,0
184157.3,310.515,-413.917,0,0
184417.625,311.589,-409.615,0,0
184677.95,312.811,-405.253,0,0
184938.275,314.154,-400.847,0,0
185198.6,315.561,-396.379,0,0
185458.925,317.054,-391.748,0,0
185719.25,318.674,-386.919,0,0
185979.575,320.581,-381.924,0,0
186239.9,322.731,-376.825,0,0
186500,325.13,-371.72,0,0
186761,327.751,-366.675,0,0
187021,330.526,-361.479,0,0
187281,333.494,-356.31,0,0
187542,336.622,-350.957,0,0
187802,340.035,-345.608,0,0
188062,343.652,-340.246,0,0
188322,347.596,-334.668,0,0
188583,351.815,-329.212,0,0
188843,356.22,-323.705,0,0
189103,361.007,-318.166,0,0
189364,366.099,-312.692,0,0
189624,371.433,-307.167,0,0
189884,377.087,-301.739,0,0
190145,383.062,-296.241,0,0
190405,389.474,-290.759,0,0
190665,396.289,-285.374,0,0
190926,403.603,-280.08,0,0
191186,411.245,-275.13,0,0
191446,419.293,-270.344,0,0
191707,427.703,-265.837,0,0
191967,436.362,-261.54,0,0
192227,445.505,-257.546,0,0
192488,454.844,-253.921,0,0
192748,464.334,-250.599,0,0
193008,474.283,-247.585,0,0
193269,484.362,-244.973,0,0
193529,494.628,-242.7,0,0
193789,505.066,-240.774,0,0
194050,515.572,-239.139,0,0
194310,526.331,-237.64,0,0
194570,537.31,-236.412,0,0
194831,548.593,-235.446,0,0
195091,560.114,-234.984,0,0
195351,571.849,-234.901,0,0
195612,583.672,-235.129,0,0
195872,595.732,-235.674,0,0
196132,608.075,-236.568,0,0
196393,620.663,-237.839,0,0
196653,633.512,-239.548,0,0
196913,646.638,-241.554,0,0
197174,660.259,-243.991,0,0
197434,674.356,-247.183,0,0
197694,688.757,-251.09,0,0
197955,703.467,-255.846,0,0
198215,718.432,-261.573,0,0
198475,733.468,-268.428,0,0
198735,748.414,-276.158,0,0
198996,763.339,-284.817,0,0
199256,778.284,-294.607,0,0
199516,793.039,-305.792,0,0
199777,807.12,-318.254,0,0
200037,820.518,-331.955,0,0
200297,832.822,-346.57,0,0
200558,844.321,-361.99,0,0
200818,854.857,-378.123,0,0
201078,864.479,-394.985,0,0
201339,872.982,-412.628,0,0
201599,880.105,-430.936,0,0
201859,885.68,-449.342,0,0
202120,890.124,-467.612,0,0
202380.025,893.851,-485.931,0,0
202640.35,896.12,-504.472,0,0
202900.675,897.07,-522.789,0,0
203161.0,896.446,-540.452,0,0
203421.325,895.334,-556.873,0,0
203681.65,894.291,-572.894,0,0
203941.975,892.928,-588.904,0,0
204202.3,891.22,-604.94,0,0
204462.625,888.629,-621.193,0,0
204722.95,884.741,-637.156,0,0
204983.275,880.329,-652.341,0,0
205243.6,875.471,-666.721,0,0
205503.925,870.688,-680.985,0,0
205764.25,865.417,-695.255,0,0
206024.575,859.38,-709.266,0,0
206284.9,852.66,-722.76,0,0
206545.225,845.622,-735.769,0,0
206805.55,838.446,-748.305,0,0
207065.875,830.981,-760.688,0,0
207326.2,823.052,-773.266,0,0
207586.525,814.351,-785.577,0,0
207846.85,804.731,-797.363,0,0
208107.175,794.664,-808.544,0,0
208367.5,783.718,-819.317,0,0
208627.825,772.055,-829.263,0,0
208888.15,759.694,-838.017,0,0
209148.475,747.037,-845.585,0,0
209408.8,734.331,-852.102,0,0
209669.125,721.584,-857.484,0,0
209929.45,709.104,-861.681,0,0
210189.775,697.146,-864.944,0,0
210450.1,685.862,-867.506,0,0
210710.425,675.088,-869.53,0,0
210970.75,664.745,-871.265,0,0
211231.075,654.828,-872.817,0,0
211491.4,645.056,-874.107,0,0
211751.725,635.417,-874.761,0,0
212012.05,626.078,-875.067,0,0
212272.375,617.166,-874.829,0,0
212532.7,608.826,-874.235,0,0
212793.025,600.813,-873.293,0,0
213053.35,593.345,-871.974,0,0
213313.675,586.427,-870.652,0,0
213574.0,580.036,-869.175,0,0
213834.325,573.997,-867.349,0,0
214094.65,568.768,-865.473,0,0
214354.975,564.371,-863.793,0,0
214615.3,560.464,-862.524,0,0
214875.625,557.037,-861.536,0,0
215135.95,553.897,-861.292,0,0
215396.275,550.864,-861.503,0,0
215656.6,547.718,-862.054,0,0
215916.925,544.499,-862.948,0,0
216177.25,541.192,-864.206,0,0
216437.575,537.537,-865.648,0,0
216697.9,533.628,-867.151,0,0
216958.225,529.575,-868.647,0,0
217218.55,525.371,-870.178,0,0
217478.875,521.13,-871.672,0,0
217739.2,516.567,-873.177,0,0
217999.525,511.768,-874.619,0,0
218259.85,506.8,-875.787,0,0
218520,501.665,-876.74,0,0
218780,496.658,-877.269,0,0
219041,491.766,-877.523,0,0
219301,487.227,-877.57,0,0
219561,483.085,-877.73,0,0
219822,479.118,-878.08,0,0
220082,475.26,-878.722,0,0
220342,470.967,-879.536,0,0
220603,466.576,-880.339,0,0
220863,462.193,-881.011,0,0
221123,457.705,-881.604,0,0
221384,453.196,-882.167,0,0
221644,448.645,-882.728,0,0
221904,443.934,-883.307,0,0
222165,439.119,-883.623,0,0
222425,434.312,-883.669,0,0
222685,429.566,-883.43,0,0
222946,425.098,-883.244,0,0
223206,420.802,-883.03,0,0
223466,416.624,-882.987,0,0
223727,412.499,-882.871,0,0
223987,408.224,-882.915,0,0
224247,403.942,-883.002,0,0
224508,399.631,-883.078,0,0
224768,395.294,-883.155,0,0
225028,390.825,-883.339,0,0
225289,386.277,-883.476,0,0
225549,381.575,-883.75,0,0
225809,376.728,-884.012,0,0
226070,371.55,-884.156,0,0
226330,365.982,-883.954,0,0
226590,360.418,-883.404,0,0
226851,354.886,-882.576,0,0
227111,349.482,-881.508,0,0
227371,344.2,-880.304,0,0
227632,338.911,-879.02,0,0
227892,333.533,-877.65,0,0
228152,328.074,-876.168,0,0
228413,322.514,-874.22,0,0
228673,317,-872.027,0,0
228933,311.648,-869.55,0,0
229193,306.464,-866.753,0,0
229454,301.502,-863.794,0,0
229714,296.708,-860.633,0,0
229974,292.054,-857.318,0,0
230235,287.697,-853.912,0,0
230495,283.575,-850.163,0,0
230755,279.866,-846.463,0,0
231016,276.38,-842.716,0,0
231276,273.038,-839.03,0,0
231536,270.019,-835.283,0,0
231797,267.268,-831.735,0,0
232057,264.53,-828.264,0,0
232317,261.875,-824.863,0,0
232578,259.276,-821.478,0,0
232838,256.798,-818.022,0,0
233098,254.458,-814.624,0,0
233359,252.21,-811.179,0,0
233619,250.095,-807.769,0,0
233879,248.179,-804.359,0,0
234140,246.421,-801.007,0,0
234400,244.761,-797.779,0,0
234660.3,243.118,-794.676,0,0
234920.625,241.523,-791.558,0,0
235180.95,240.028,-788.42,0,0
235441.275,238.686,-785.359,0,0
235701.6,237.415,-782.438,0,0
235961.925,236.159,-779.585,0,0
236222.25,234.902,-776.823,0,0
236482.575,233.644,-774.02,0,0
236742.9,232.383,-771.193,0,0
237003.225,231.19,-768.393,0,0
237263.55,230.084,-765.49,0,0
237523.875,229.085,-762.593,0,0
237784.2,228.246,-759.691,0,0
238044.525,227.521,-756.846,0,0
238304.85,226.89,-754.074,0,0
238565.175,226.511,-751.334,0,0
238825.5,226.16,-748.866,0,0
239085.825,225.911,-746.403,0,0
239346.15,225.684,-744.19,0,0
239606.475,225.519,-742.069,0,0
239866.8,225.319,-739.991,0,0
240127.125,225.041,-738.087,0,0
240387.45,224.84,-736.228,0,0
240647.775,224.599,-734.514,0,0
240908.1,224.447,-732.852,0,0
241168.425,224.128,-731.442,0,0
241428.75,223.751,-729.98,0,0
241689.075,223.311,-728.595,0,0
241949.4,222.792,-727.233,0,0
242209.725,222.245,-725.923,0,0
242470.05,221.686,-724.651,0,0
242730.375,221.024,-723.454,0,0
242990.7,220.26,-722.263,0,0
243251.025,219.389,-721.009,0,0
243511.35,218.566,-719.718,0,0
243771.675,217.746,-718.446,0,0
244032.0,216.856,-717.268,0,0
244292.325,215.779,-716.062,0,0
244552.65,214.819,-714.809,0,0
244812.975,213.569,-713.523,0,0
245073.3,212.314,-712.17,0,0
245333.625,210.95,-710.631,0,0
245593.95,209.617,-709.074,0,0
245854.275,208.258,-707.323,0,0
246114.6,206.971,-705.48,0,0
246374.925,205.776,-703.454,0,0
246635.25,204.721,-701.401,0,0
246895.575,203.757,-699.345,0,0
247155.9,202.827,-697.221,0,0
247416.225,201.996,-695.078,0,0
247676.55,201.296,-692.862,0,0
247936.875,200.816,-690.762,0,0
248197.2,200.421,-688.738,0,0
248457.525,200.03,-686.904,0,0
248717.85,199.631,-685.064,0,0
248978.175,199.192,-683.216,0,0
249238.5,198.776,-681.483,0,0
249498.825,198.417,-679.815,0,0
249759.15,197.962,-678.167,0,0
250019.475,197.401,-676.578,0,0
250279.8,196.867,-674.896,0,0
250540,196.303,-673.147,0,0
250800,195.894,-671.454,0,0
251061,195.552,-669.842,0,0
251321,195.07,-668.371,0,0
251581,194.51,-666.949,0,0
251842,193.834,-665.522,0,0
252102,193.072,-664.112,0,0
252362,192.111,-662.673,0,0
252623,191.013,-661.119,0,0
252883,189.787,-659.399,0,0
253143,188.441,-657.431,0,0
253404,187.092,-655.211,0,0
253664,185.884,-652.703,0,0
253924,184.855,-650.065,0,0
254185,183.953,-647.328,0,0
254445,183.167,-644.484,0,0
254705,182.533,-641.622,0,0
254966,182.012,-638.609,0,0
255226,181.516,-635.521,0,0
255486,181.252,-632.472,0,0
255747,181.03,-629.302,0,0
256007,180.903,-626.026,0,0
256267,180.91,-622.561,0,0
256528,181.166,-619.029,0,0
256788,181.685,-615.428,0,0
257048,182.436,-611.861,0,0
257309,183.401,-608.338,0,0
257569,184.543,-604.846,0,0
257829,185.822,-601.412,0,0
258090,187.277,-597.964,0,0
258350,188.922,-594.542,0,0
258610,190.742,-591.133,0,0
258871,192.822,-587.724,0,0
259131,195.15,-584.379,0,0
259391,197.776,-581.133,0,0
259651,200.674,-578.009,0,0
259912,203.875,-575.089,0,0
260172,207.248,-572.434,0,0
260432,210.834,-569.979,0,0
260693,214.62,-567.728,0,0
260953,218.678,-565.776,0,0
261213,222.877,-564.186,0,0
261474,227.164,-563.011,0,0
261734,231.469,-562.185,0,0
261994,235.703,-561.728,0,0
262255,239.825,-561.523,0,0
262515,243.862,-561.46,0,0
262775,247.99,-561.57,0,0
263036,252.126,-562.024,0,0
263296,256.221,-562.705,0,0
263556,260.295,-563.705,0,0
263817,264.529,-565.215,0,0
264077,268.202,-566.89,0,0
264337,271.679,-568.65,0,0
264598,275.061,-570.442,0,0
264858,278.577,-572.333,0,0
265118,282.074,-574.583,0,0
265379,285.577,-577.119,0,0
265639,289.018,-580.04,0,0
265899,292.239,-583.412,0,0
266160,295.06,-587.09,0,0
266420,297.65,-591.059,0,0
266680.25,299.915,-595.293,0,0
266940.575,301.725,-599.875,0,0
267200.9,302.939,-604.624,0,0
267461.225,303.592,-609.352,0,0
267721.55,303.797,-613.9,0,0
267981.875,303.685,-618.321,0,0
268242.2,303.264,-622.617,0,0
268502.525,302.643,-626.776,0,0
268762.85,301.832,-630.838,0,0
269023.175,300.723,-634.942,0,0
269283.5,299.318,-639.021,0,0
269543.825,297.581,-643.097,0,0
269804.15,295.217,-647.082,0,0
270064.475,292.283,-650.595,0,0
270324.8,288.945,-653.412,0,0
270585.125,285.599,-655.422,0,0
270845.45,282.662,-656.972,0,0
271105.775,280.006,-658.228,0,0
271366.1,277.667,-659.317,0,0
271626.425,275.694,-660.243,0,0
271886.75,273.921,-661.369,0,0
272147.075,272.277,-662.606,0,0
272407.4,270.717,-664.005,0,0
272667.725,269.135,-665.653,0,0
272928.05,267.355,-667.464,0,0
273188.375,265.348,-669.319,0,0
273448.7,263.177,-671.124,0,0
273709.025,260.902,-672.872,0,0
273969.35,258.454,-674.624,0,0
274229.675,255.804,-676.314,0,0
274490.0,253.099,-677.917,0,0
274750.325,250.232,-679.583,0,0
275010.65,247.136,-681.265,0,0
275270.975,243.613,-682.798,0,0
275531.3,239.786,-684.05,0,0
275791.625,235.749,-684.972,0,0
276051.95,231.483,-685.484,0,0
276312.275,227.172,-685.581,0,0
276572.6,222.909,-685.338,0,0
276832.925,218.672,-684.757,0,0
277093.25,214.402,-683.734,0,0
277353.575,210.337,-682.339,0,0
277613.9,206.486,-680.634,0,0
277874.225,202.832,-678.635,0,0
278134.55,199.428,-676.318,0,0
278394.875,196.368,-673.804,0,0
278655.2,193.568,-671.176,0,0
278915.525,191.016,-668.372,0,0
279175.85,188.786,-665.377,0,0
279436.175,186.977,-662.247,0,0
279696.5,185.596,-659.171,0,0
279956.825,184.642,-656.22,0,0
280217.15,184.066,-653.439,0,0
280477.475,183.715,-650.916,0,0
280737.8,183.497,-648.721,0,0
280998.125,183.39,-646.732,0,0
281258.45,183.251,-645.036,0,0
281518.775,183.094,-643.489,0,0
281779.1,182.807,-642.068,0,0
282039.425,182.495,-640.68,0,0
282299.75,182.099,-639.29,0,0
282560,181.743,-637.86,0,0
282820,181.428,-636.344,0,0
283081,181.286,-634.77,0,0
283341,181.393,-633.25,0,0
283601,181.728,-631.918,0,0
283862,182.254,-630.903,0,0
284122,182.744,-630.28,0,0
284382,183.054,-630.037,0,0
284643,183.011,-629.933,0,0
284903,182.679,-629.808,0,0
285163,182.235,-629.644,0,0
285424,181.576,-629.448,0,0
285684,180.869,-629.175,0,0
285944,180.052,-628.933,0,0
286205,179.127,-628.625,0,0
286465,178.018,-628.261,0,0
286725,176.758,-627.768,0,0
286986,175.398,-627.11,0,0
287246,173.941,-626.271,0,0
287506,172.367,-625.245,0,0
287767,170.685,-623.929,0,0
288027,169.037,-622.172,0,0
288287,167.622,-620.021,0,0
288548,166.514,-617.607,0,0
288808,165.719,-615.029,0,0
289068,165.266,-612.295,0,0
289329,165.224,-609.464,0,0
289589,165.6,-606.658,0,0
289849,166.369,-603.894,0,0
290109,167.538,-601.322,0,0
290370,169.094,-599.026,0,0
290630,170.876,-597.018,0,0
290890,172.882,-595.365,0,0
291151,174.989,-594.002,0,0
291411,177.254,-592.919,0,0
291671,179.648,-592.196,0,0
291932,182.099,-591.893,0,0
292192,184.476,-591.959,0,0
292452,186.783,-592.371,0,0
292713,188.969,-593.056,0,0
292973,191.04,-594.013,0,0
293233,193.035,-595.266,0,0
293494,194.886,-596.871,0,0
293754,196.503,-598.856,0,0
294014,197.753,-601.128,0,0
294275,198.583,-603.625,0,0
294535,199.01,-606.203,0,0
294795,199.085,-608.862,0,0
295056,198.722,-611.56,0,0
295316,197.935,-614.19,0,0
295576,196.751,-616.671,0,0
295837,195.229,-618.887,0,0
296097,193.475,-620.865,0,0
296357,191.523,-622.592,0,0
296618,189.427,-624.05,0,0
296878,187.239,-625.244,0,0
297138,184.974,-626.21,0,0
297399,182.681,-626.899,0,0
297659,180.414,-627.355,0,0
297919,178.218,-627.606,0,0
298180,176.078,-627.711,0,0
298440,174.001,-627.646,0,0
298700.2,172.06,-627.459,0,0
298960.525,170.233,-627.219,0,0
299220.85,168.499,-626.956,0,0
299481.175,166.822,-626.66,0,0
299741.5,165.157,-626.359,0,0
300001.825,163.536,-626.034,0,0
300262.15,161.946,-625.689,0,0
300522.475,160.388,-625.361,0,0
300782.8,158.78,-625.005,0,0
301043.125,157.141,-624.609,0,0
301303.45,155.481,-624.155,0,0
301563.775,153.832,-623.64,0,0
301824.1,152.17,-623.042,0,0
302084.425,150.509,-622.37,0,0
302344.75,148.897,-621.598,0,0
302605.075,147.317,-620.752,0,0
302865.4,145.813,-619.862,0,0
303125.725,144.368,-618.935,0,0
303386.05,142.982,-617.986,0,0
303646.375,141.611,-617.007,0,0
303906.7,140.268,-615.985,0,0
304167.025,138.99,-614.908,0,0
304427.35,137.764,-613.798,0,0
304687.675,136.611,-612.655,0,0
304948.0,135.496,-611.549,0,0
305208.325,134.429,-610.408,0,0
305468.65,133.357,-609.23,0,0
305728.975,132.381,-607.985,0,0
305989.3,131.472,-606.725,0,0
306249.625,130.68,-605.465,0,0
306509.95,129.979,-604.245,0,0
306770.275,129.352,-603.035,0,0
307030.6,128.802,-601.904,0,0
307290.925,128.291,-600.826,0,0
307551.25,127.779,-599.82,0,0
307811.575,127.298,-598.87,0,0
308071.9,126.808,-597.95,0,0
308332.225,126.327,-597.057,0,0
308592.55,125.866,-596.218,0,0
308852.875,125.378,-595.439,0,0
309113.2,124.872,-594.685,0,0
309373.525,124.347,-593.965,0,0
309633.85,123.751,-593.237,0,0
309894.175,123.133,-592.495,0,0
310154.5,122.538,-591.766,0,0
310414.825,121.908,-591.006,0,0
310675.15,121.303,-590.255,0,0
310935.475,120.672,-589.503,0,0
311195.8,120.039,-588.747,0,0
311456.125,119.393,-587.974,0,0
311716.45,118.729,-587.191,0,0
311976.775,118.056,-586.367,0,0
312237.1,117.4,-585.539,0,0
312497.425,116.717,-584.653,0,0
312757.75,116.08,-583.744,0,0
313018.075,115.488,-582.785,0,0
313278.4,114.939,-581.826,0,0
313538.725,114.444,-580.847,0,0
313799.05,113.976,-579.893,0,0
314059.375,113.561,-578.962,0,0
314319.7,113.155,-578.029,0,0
314580,112.875,-577.123,0,0
314840,112.382,-576.192,0,0
315101,112.226,-575.282,0,0
315361,111.981,-574.477,0,0
315621,111.651,-573.625,0,0
315882,111.501,-572.818,0,0
316142,111.345,-572.172,0,0
316402,111.191,-571.485,0,0
316663,110.925,-570.775,0,0
316923,110.821,-570.182,0,0
317183,110.658,-569.713,0,0
317444,110.418,-569.132,0,0
317704,110.246,-568.652,0,0
317964,110.127,-568.281,0,0
318225,109.877,-567.92,0,0
318485,109.641,-567.679,0,0
318745,109.291,-567.513,0,0
319006,108.88,-567.225,0,0
319266,108.388,-567.137,0,0
319526,107.936,-566.959,0,0
319787,107.221,-566.778,0,0
320047,106.703,-566.596,0,0
320307,106.016,-566.351,0,0
320567,105.282,-566.217,0,0
320828,104.442,-566.025,0,0
321088,103.595,-565.89,0,0
321348,102.6,-565.687,0,0
321609,101.556,-565.56,0,0
321869,100.452,-565.31,0,0
322129,99.0664,-564.937,0,0
322390,97.6697,-564.441,0,0
322650,96.2975,-563.87,0,0
322910,94.8094,-563.115,0,0
323171,93.3485,-562.222,0,0
323431,91.979,-561.154,0,0
323691,90.6718,-559.929,0,0
323952,89.52,-558.558,0,0
324212,88.3135,-557.254,0,0
324472,87.4028,-555.788,0,0
324733,86.5586,-554.375,0,0
324993,85.7578,-552.968,0,0
325253,85.0868,-551.599,0,0
325514,84.4649,-550.153,0,0
325774,83.8265,-548.835,0,0
326034,83.1966,-547.585,0,0
326295,82.6884,-546.28,0,0
326555,82.1299,-544.919,0,0
326815,81.5293,-543.647,0,0
327076,81.0601,-542.324,0,0
327336,80.6088,-541.016,0,0
327596,80.1334,-539.633,0,0
327857,79.6783,-538.257,0,0
328117,79.2915,-536.861,0,0
328377,78.86,-535.46,0,0
328638,78.5595,-534.094,0,0
328898,78.3611,-532.585,0,0
329158,78.1155,-531.207,0,0
329419,77.9169,-529.718,0,0
329679,77.8736,-528.355,0,0
329939,77.8857,-526.891,0,0
330200,77.9896,-525.559,0,0
330460,78.1184,-524.246,0,0
330720.15,78.3381,-522.997,0,0
330980.475,78.5594,-521.779,0,0
331240.8,78.9302,-520.759,0,0
331501.125,79.2443,-519.743,0,0
331761.45,79.455,-518.831,0,0
332021.775,79.7227,-517.983,0,0
332282.1,79.9679,-517.295,0,0
332542.425,80.1569,-516.545,0,0
332802.75,80.2685,-515.864,0,0
333063.075,80.3234,-515.208,0,0
333323.4,80.3742,-514.612,0,0
333583.725,80.388,-514.024,0,0
333844.05,80.2631,-513.448,0,0
334104.375,80.1538,-512.831,0,0
334364.7,79.9652,-512.158,0,0
334625.025,79.7755,-511.574,0,0
334885.35,79.5106,-511.027,0,0
335145.675,79.213,-510.236,0,0
335406.0,78.8959,-509.573,0,0
335666.325,78.5784,-508.741,0,0
335926.65,78.248,-508.025,0,0
336186.975,77.8774,-507.089,0,0
336447.3,77.5491,-506.249,0,0
336707.625,77.2275,-505.446,0,0
336967.95,76.8024,-504.423,0,0
337228.275,76.4351,-503.444,0,0
337488.6,76.0808,-502.355,0,0
337748.925,75.7596,-501.237,0,0
338009.25,75.4526,-500.057,0,0
338269.575,75.2314,-498.834,0,0
338529.9,75.0717,-497.569,0,0
338790.225,74.9191,-496.311,0,0
339050.55,74.9653,-494.98,0,0
339310.875,75.0026,-493.67,0,0
339571.2,75.1043,-492.338,0,0
339831.525,75.2953,-491.046,0,0
340091.85,75.5739,-489.83,0,0
340352.175,75.81,-488.561,0,0
340612.5,76.1285,-487.28,0,0
340872.825,76.5233,-486.087,0,0
341133.15,76.9423,-484.841,0,0
341393.475,77.4845,-483.674,0,0
341653.8,78.1097,-482.496,0,0
341914.125,78.8135,-481.446,0,0
342174.45,79.5185,-480.406,0,0
342434.775,80.3406,-479.498,0,0
342695.1,81.253,-478.707,0,0
342955.425,82.1379,-477.947,0,0
343215.75,83.0287,-477.372,0,0
343476.075,83.9813,-476.89,0,0
343736.4,84.8922,-476.558,0,0
343996.725,85.681,-476.36,0,0
344257.05,86.4343,-476.227,0,0
344517.375,87.138,-476.153,0,0
344777.7,87.7157,-476.154,0,0
345038.025,88.2451,-476.185,0,0
345298.35,88.6361,-476.345,0,0
345558.675,88.9941,-476.428,0,0
345819.0,89.24,-476.554,0,0
346079.325,89.3942,-476.646,0,0
346339.65,89.4772,-476.719,0,0
346599.975,89.5539,-476.808,0,0
346860,89.5515,-476.844,0,0
347121,89.451,-476.936,0,0
347381,89.3425,-476.935,0,0
347641,89.2082,-476.954,0,0
347902,88.9595,-476.928,0,0
348162,88.7637,-476.875,0,0
348422,88.4738,-476.805,0,0
348683,88.1565,-476.639,0,0
348943,87.8131,-476.489,0,0
349203,87.3978,-476.289,0,0
349464,87.063,-476.064,0,0
349724,86.7214,-475.829,0,0
349984,86.2526,-475.489,0,0
350245,85.8713,-475.154,0,0
350505,85.3941,-474.741,0,0
350765,84.9438,-474.303,0,0
351025,84.5039,-473.831,0,0
351286,84.0937,-473.335,0,0
351546,83.7026,-472.759,0,0
351806,83.2975,-472.165,0,0
352067,82.9107,-471.579,0,0
352327,82.4946,-470.89,0,0
352587,82.1557,-470.17,0,0
352848,81.8068,-469.468,0,0
353108,81.6307,-468.638,0,0
353368,81.3916,-467.891,0,0
353629,81.2213,-467.07,0,0
353889,81.1771,-466.228,0,0
354149,81.1331,-465.467,0,0
354410,81.0644,-464.73,0,0
354670,81.2477,-463.936,0,0
354930,81.278,-463.344,0,0
355191,81.3867,-462.696,0,0
355451,81.4801,-462.216,0,0
355711,81.544,-461.653,0,0
355972,81.559,-461.175,0,0
356232,81.5904,-460.73,0,0
356492,81.5931,-460.26,0,0
356753,81.5623,-459.783,0,0
357013,81.4973,-459.347,0,0
357273,81.5265,-458.909,0,0
357534,81.3806,-458.559,0,0
357794,81.2785,-458.179,0,0
358054,81.077,-457.778,0,0
358315,80.871,-457.423,0,0
358575,80.5283,-456.983,0,0
358835,80.1988,-456.503,0,0
359096,79.7958,-455.898,0,0
359356,79.4033,-455.189,0,0
359616,79.0688,-454.494,0,0
359877,78.7749,-453.676,0,0
360137,78.5564,-452.867,0,0
360397,78.2997,-451.985,0,0
360658,78.2029,-451.075,0,0
360918,78.1814,-450.172,0,0
361178,78.1772,-449.325,0,0
361438,78.2177,-448.466,0,0
361699,78.2146,-447.625,0,0
361959,78.3286,-446.794,0,0
362219,78.4749,-446,0,0
362480,78.6395,-445.223,0,0
362740.1,78.8005,-444.405,0,0
363000.425,79.0152,-443.714,0,0
363260.75,79.2242,-443.036,0,0
363521.075,79.4297,-442.443,0,0
363781.4,79.6086,-441.804,0,0
364041.725,79.7729,-441.239,0,0
364302.05,79.9334,-440.744,0,0
364562.375,80.0233,-440.208,0,0
364822.7,80.0483,-439.679,0,0
365083.025,80.0342,-439.136,0,0
365343.35,79.9636,-438.542,0,0
365603.675,79.8767,-437.858,0,0
365864.0,79.8057,-437.17,0,0
366124.325,79.7392,-436.318,0,0
366384.65,79.716,-435.458,0,0
366644.975,79.7483,-434.534,0,0
366905.3,79.8618,-433.585,0,0
367165.625,80.0283,-432.679,0,0
367425.95,80.2544,-431.704,0,0
367686.275,80.5152,-430.649,0,0
367946.6,80.8831,-429.666,0,0
368206.925,81.2764,-428.618,0,0
368467.25,81.6985,-427.653,0,0
368727.575,82.3015,-426.639,0,0
368987.9,82.9578,-425.628,0,0
369248.225,83.7368,-424.752,0,0
369508.55,84.5745,-423.838,0,0
369768.875,85.4928,-423.066,0,0
370029.2,86.4313,-422.371,0,0
370289.525,87.3766,-421.801,0,0
370549.85,88.4093,-421.274,0,0
370810.175,89.3688,-420.774,0,0
371070.5,90.4877,-420.394,0,0
371330.825,91.5084,-420.05,0,0
371591.15,92.6515,-419.846,0,0
371851.475,93.8184,-419.757,0,0
372111.8,94.976,-419.779,0,0
372372.125,96.1211,-419.957,0,0
372632.45,97.1872,-420.317,0,0
372892.775,98.1321,-420.704,0,0
373153.1,99.0785,-421.273,0,0
373413.425,99.835,-421.949,0,0
373673.75,100.46,-422.645,0,0
373934.075,100.914,-423.45,0,0
374194.4,101.216,-424.26,0,0
374454.725,101.387,-424.94,0,0
374715.05,101.406,-425.603,0,0
374975.375,101.347,-426.185,0,0
375235.7,101.249,-426.693,0,0
375496.025,101.082,-427.076,0,0
375756.35,100.917,-427.435,0,0
376016.675,100.734,-427.696,0,0
376277.0,100.671,-427.917,0,0
376537.325,100.556,-428.144,0,0
376797.65,100.454,-428.372,0,0
377057.975,100.404,-428.58,0,0
377318.3,100.264,-428.832,0,0
377578.625,100.103,-429.1,0,0
377838.95,99.9386,-429.364,0,0
378099.275,99.685,-429.551,0,0
378359.6,99.407,-429.72,0,0
378619.925,99.0814,-429.827,0,0
378880,98.8374,-429.941,0,0
379141,98.5697,-430.021,0,0
379401,98.3285,-430.069,0,0
379661,98.0994,-430.073,0,0
379922,97.8944,-430.144,0,0
380182,97.6448,-430.172,0,0
380442,97.4139,-430.178,0,0
380703,97.1043,-430.232,0,0
380963,96.854,-430.226,0,0
381223,96.6259,-430.191,0,0
381483,96.3755,-430.203,0,0
381744,96.1063,-430.153,0,0
382004,95.8962,-430.049,0,0
382264,95.6754,-429.893,0,0
382525,95.6704,-429.806,0,0
382785,95.6364,-429.755,0,0
383045,95.6117,-429.784,0,0
383306,95.6462,-429.816,0,0
383566,95.6886,-430.024,0,0
383826,95.7457,-430.33,0,0
384087,95.6336,-430.832,0,0
384347,95.4492,-431.376,0,0
384607,95.0163,-431.94,0,0
384868,94.541,-432.54,0,0
385128,93.8536,-433.008,0,0
385388,93.0614,-433.407,0,0
385649,92.2061,-433.724,0,0
385909,91.2784,-433.983,0,0
386169,90.2525,-434.131,0,0
386430,89.2524,-434.105,0,0
386690,88.1794,-434.032,0,0
386950,87.1472,-433.848,0,0
387211,86.0582,-433.564,0,0
387471,85.0788,-433.168,0,0
387731,84.0022,-432.642,0,0
387992,83.0542,-432.033,0,0
388252,82.1347,-431.332,0,0
388512,81.407,-430.494,0,0
388773,80.7072,-429.587,0,0
389033,80.1781,-428.755,0,0
389293,79.8182,-427.847,0,0
389554,79.5317,-426.962,0,0
389814,79.3613,-426.137,0,0
390074,79.3057,-425.382,0,0
390335,79.2908,-424.744,0,0
390595,79.4074,-424.163,0,0
390855,79.4573,-423.733,0,0
391116,79.583,-423.442,0,0
391376,79.6764,-423.259,0,0
391636,79.6981,-423.214,0,0
391896,79.6158,-423.229,0,0
392157,79.4341,-423.343,0,0
392417,79.1189,-423.453,0,0
392677,78.6803,-423.563,0,0
392938,78.1856,-423.731,0,0
393198,77.5102,-423.794,0,0
393458,76.7636,-423.827,0,0
393719,75.9701,-423.82,0,0
393979,75.0661,-423.627,0,0
394239,74.1058,-423.436,0,0
394500,73.0738,-423.066,0,0
394760.05,72.103,-422.629,0,0
395020.375,71.1223,-422.009,0,0
395280.7,70.2189,-421.354,0,0
395541.025,69.3628,-420.612,0,0
395801.35,68.5249,-419.864,0,0
396061.675,67.7329,-419.031,0,0
396322.0,67.023,-418.152,0,0
396582.325,66.3457,-417.28,0,0
396842.65,65.6878,-416.336,0,0
397102.975,65.1339,-415.366,0,0
397363.3,64.6073,-414.391,0,0
397623.625,64.1182,-413.454,0,0
397883.95,63.6994,-412.444,0,0
398144.275,63.2852,-411.458,0,0
398404.6,62.8945,-410.527,0,0
398664.925,62.5531,-409.544,0,0
398925.25,62.2497,-408.588,0,0
399185.575,61.9558,-407.618,0,0
399445.9,61.6345,-406.645,0,0
399706.225,61.3975,-405.668,0,0
399966.55,61.1406,-404.646,0,0
400006.6,61.0855,-404.505,0,0