File: Accelerated corrosion test data/2025-10-17_18-00-03/sample_3.csv
Frequency (Hz),Impedance (ohms),Phase (Radians),Temperature (C),Humidity (%)
10000.0,250.476,-11884.8,0,0
10260.325,243.944,-11585.3,0,0
10520.65,238.803,-11300.5,0,0
10780.975,234.732,-11027.9,0,0
11041.3,228.317,-10774,0,0
11301.625,223.029,-10526.8,0,0
11561.95,218.328,-10291,0,0
11822.275,213.546,-10065.9,0,0
12082.6,211.17,-9851.06,0,0
12342.925,209.566,-9643.17,0,0
12603.25,202.167,-9447.33,0,0
12863.575,198.748,-9256.46,0,0
13123.9,198.523,-9071.37,0,0
13384.225,191.999,-8901.82,0,0
13644.55,189.827,-8732.46,0,0
13904.875,185.294,-8567.27,0,0
14165.2,184.769,-8409.88,0,0
14425.525,180.964,-8259.73,0,0
14685.8,178.014,-8111.63,0,0
14946.175,176.145,-7972.28,0,0
15206.5,172.816,-7830.89,0,0
15466.825,182.656,-7689.52,0,0
15727.15,190.22,-7592.55,0,0
15987.5,172.488,-7475.6,0,0
16247.8,167.541,-7345.41,0,0
16508.125,160.894,-7231.6,0,0
16768.45,167.461,-7110.46,0,0
17028.775,156.899,-7011.03,0,0
17289.1,161.416,-6897.18,0,0
17549.425,156.295,-6805.28,0,0
17809.75,156.129,-6698.54,0,0
18070.075,162.716,-6613.32,0,0
18330.4,151.45,-6517.36,0,0
18590.725,148.031,-6425.48,0,0
18851.05,145.303,-6333.95,0,0
19111.375,146.275,-6245,0,0
19371.7,144.774,-6160.31,0,0
19632.025,145.911,-6075.31,0,0
19892.35,149.198,-5994.25,0,0
20152.675,147.657,-5919.01,0,0
20413.0,159.336,-5839.37,0,0
20673.3,167.511,-5778.42,0,0
20933.65,164.994,-5718.07,0,0
21193.975,160.361,-5653.72,0,0
21454.3,145.629,-5593.01,0,0
21714.625,138.743,-5516.88,0,0
21974.9,142.628,-5450.29,0,0
22235.275,138.117,-5391.82,0,0
22495.6,135.851,-5329.48,0,0
22755.925,128.922,-5268.41,0,0
23016.25,127.914,-5208.59,0,0
23276.6,127.949,-5146.28,0,0
23536.9,128.551,-5100.17,0,0
23797.225,120.901,-5041.2,0,0
24057.55,118.929,-4983.35,0,0
24317.875,119.246,-4927.7,0,0
24578.2,116.731,-4877.39,0,0
24838.525,118.295,-4823.39,0,0
25098.85,115.704,-4776.17,0,0
25359.175,113.677,-4726.55,0,0
25619.5,113.334,-4678.58,0,0
25879.8,110.536,-4630.91,0,0
26140.1,108.145,-4583.3,0,0
26400.5,107.543,-4535.97,0,0
26660.8,106.97,-4490.29,0,0
26921.1,108.531,-4445.46,0,0
27181.4,108.891,-4405.37,0,0
27441.8,107.502,-4361.24,0,0
27702.1,108.24,-4321.55,0,0
27962.4,105.374,-4280.42,0,0
28222.7,103.692,-4237.34,0,0
28483.1,110.903,-4194.57,0,0
28743.4,113.893,-4160.12,0,0
29003.7,115.634,-4129.94,0,0
29264,108.565,-4096.29,0,0
29524.4,108.593,-4059.84,0,0
29784.7,104.259,-4024.35,0,0
30045,101.975,-3989.86,0,0
30305.3,100.449,-3952.23,0,0
30565.7,102.047,-3918.52,0,0
30826,101.684,-3885.95,0,0
31086.3,102.328,-3852.68,0,0
31346.6,99.016,-3822.3,0,0
31607,97.8569,-3788.03,0,0
31867.3,98.2765,-3753.69,0,0
32127.6,101.19,-3719.52,0,0
32387.9,110.618,-3691.74,0,0
32648.3,112.517,-3673.7,0,0
32908.6,103.884,-3649.92,0,0
33168.9,101.132,-3621.57,0,0
33429.2,99.2831,-3595.09,0,0
33689.6,93.3335,-3566.78,0,0
33949.9,90.8623,-3536.7,0,0
34210.2,90.6431,-3508.54,0,0
34470.5,89.6903,-3481.78,0,0
34730.9,88.1343,-3455.9,0,0
34991.2,86.1815,-3429.04,0,0
35251.5,85.6653,-3402.58,0,0
35511.8,84.677,-3377.11,0,0
35772.2,83.9677,-3351.77,0,0
36032.5,83.2417,-3326.93,0,0
36292.8,82.6373,-3302.26,0,0
36553.1,82.4381,-3278.26,0,0
36813.5,81.5312,-3255.03,0,0
37073.8,80.7082,-3231.09,0,0
37334.1,80.0924,-3208.18,0,0
37594.4,79.704,-3185.1,0,0
37854.8,79.2192,-3162.62,0,0
38115.1,78.7198,-3140.8,0,0
38375.4,78.1933,-3118.81,0,0
38635.7,77.6719,-3097.31,0,0
38896.1,77.3605,-3076.06,0,0
39156.4,77.148,-3054.72,0,0
39416.7,76.8367,-3034.48,0,0
39677,76.3219,-3014.14,0,0
39937.4,75.6121,-2994.02,0,0
40197.7,75.1709,-2973.69,0,0
40458,74.9339,-2954.34,0,0
40718.3,74.4316,-2934.71,0,0
40978.7,74.0861,-2915.14,0,0
41239,74.3298,-2896.12,0,0
41499.3,74.0999,-2877.45,0,0
41759.6,74.2443,-2859.07,0,0
42020,73.9025,-2841.56,0,0
42280.275,73.4505,-2823.41,0,0
42540.6,73.041,-2805.69,0,0
42800.925,73.1173,-2787.96,0,0
43061.25,72.6733,-2771.15,0,0
43321.575,71.8181,-2753.76,0,0
43581.9,71.8133,-2736.54,0,0
43842.225,71.71,-2719.58,0,0
44102.55,71.804,-2702.77,0,0
44362.875,71.9102,-2687.25,0,0
44623.2,71.3322,-2671.15,0,0
44883.525,70.9143,-2654.93,0,0
45143.85,70.8036,-2639.21,0,0
45404.175,70.5444,-2623.84,0,0
45664.5,70.0496,-2607.69,0,0
45924.825,70.9533,-2592.37,0,0
46185.15,69.9754,-2578.44,0,0
46445.475,69.5457,-2562.76,0,0
46705.8,69.8193,-2547.61,0,0
46966.125,69.7875,-2533.26,0,0
47226.45,69.6349,-2519.13,0,0
47486.775,69.3561,-2504.38,0,0
47747.1,70.2276,-2489.65,0,0
48007.425,70.3177,-2476.98,0,0
48267.75,70.2901,-2463.55,0,0
48528.075,69.6427,-2450.19,0,0
48788.4,69.1176,-2437.18,0,0
49048.725,68.5535,-2423.73,0,0
49309.05,67.8991,-2410.39,0,0
49569.375,67.788,-2396.89,0,0
49829.7,67.4725,-2384.04,0,0
50090.025,66.8971,-2371.35,0,0
50350.35,66.5499,-2358.18,0,0
50610.675,66.2946,-2345.14,0,0
50871.0,66.197,-2332.48,0,0
51131.325,66.0613,-2319.81,0,0
51391.65,65.8908,-2307.35,0,0
51651.975,65.9769,-2294.94,0,0
51912.3,66.0334,-2283.02,0,0
52172.625,65.8325,-2270.92,0,0
52432.95,65.7455,-2258.78,0,0
52693.275,65.8936,-2246.67,0,0
52953.6,66.2532,-2234.66,0,0
53213.925,66.9044,-2223.07,0,0
53474.25,67.5337,-2212.24,0,0
53734.575,67.8014,-2201.13,0,0
53994.9,68.0238,-2190.18,0,0
54255.225,69.1821,-2179.32,0,0
54515.55,70.0396,-2170.06,0,0
54775.875,69.1501,-2160.75,0,0
55036.2,68.5063,-2150.66,0,0
55296.525,67.9299,-2141.17,0,0
55556.85,66.7532,-2131.4,0,0
55817.175,65.1867,-2120.85,0,0
56077.5,64.1765,-2110.39,0,0
56337.825,63.3851,-2099.7,0,0
56598.15,62.2979,-2089.08,0,0
56858.475,61.6119,-2078.29,0,0
57118.8,61.2001,-2067.49,0,0
57379.125,60.9908,-2056.78,0,0
57639.45,60.8808,-2046.25,0,0
57899.775,61.041,-2036.03,0,0
58160.1,61.0495,-2025.95,0,0
58420.4,60.7852,-2015.9,0,0
58680.7,60.9289,-2005.83,0,0
58941.1,60.9695,-1995.88,0,0
59201.4,61.1359,-1986.04,0,0
59461.7,61.463,-1976.27,0,0
59722,61.7931,-1966.68,0,0
59982.4,61.9474,-1957.24,0,0
60242.7,62.3845,-1947.98,0,0
60503,62.5238,-1938.65,0,0
60763.3,62.8647,-1929.45,0,0
61023.7,63.1276,-1920.21,0,0
61284,63.4376,-1910.95,0,0
61544.3,64.1182,-1901.73,0,0
61804.6,64.6869,-1893.35,0,0
62065,64.8033,-1884.2,0,0
62325.3,65.4186,-1875.23,0,0
62585.6,65.8692,-1866.51,0,0
62845.9,66.491,-1857.29,0,0
63106.3,67.683,-1848.46,0,0
63366.6,68.7004,-1840.2,0,0
63626.9,69.589,-1831.19,0,0
63887.2,70.9956,-1822.93,0,0
64147.6,72.2845,-1813.99,0,0
64407.9,74.9385,-1805.55,0,0
64668.2,77.3697,-1798.16,0,0
64928.5,80.2001,-1790.24,0,0
65188.9,84.0555,-1784.56,0,0
65449.2,86.4413,-1779.39,0,0
65709.5,88.7788,-1774.73,0,0
65969.8,92.4462,-1771.82,0,0
66230.2,91.7781,-1772.37,0,0
66490.5,86.1329,-1770.16,0,0
66750.8,81.0588,-1763.58,0,0
67011.1,78.1195,-1755.1,0,0
67271.5,75.7581,-1746.91,0,0
67531.8,74.6436,-1738.31,0,0
67792.1,74.6595,-1729.86,0,0
68052.4,75.0819,-1722.04,0,0
68312.8,76.1074,-1715.1,0,0
68573.1,75.9702,-1708.93,0,0
68833.4,75.9946,-1701.87,0,0
69093.7,76.8288,-1695.36,0,0
69354.1,77.4937,-1689.78,0,0
69614.4,77.4689,-1684.75,0,0
69874.7,76.4238,-1679.45,0,0
70135,75.3781,-1673.58,0,0
70395.4,74.6871,-1667.51,0,0
70655.7,73.4773,-1661.69,0,0
70916,72.1004,-1655.3,0,0
71176.3,71.1614,-1648.64,0,0
71436.7,70.4605,-1642.11,0,0
71697,69.5679,-1635.1,0,0
71957.3,69.6073,-1628.11,0,0
72217.6,69.8155,-1621.83,0,0
72478,70.0098,-1615.69,0,0
72738.3,70.0642,-1609.95,0,0
72998.6,69.8228,-1604.42,0,0
73258.9,69.3497,-1598.74,0,0
73519.3,68.896,-1593.04,0,0
73779.6,68.5688,-1587.4,0,0
74039.9,67.9947,-1581.98,0,0
74300.225,67.1509,-1576.36,0,0
74560.55,66.4225,-1570.73,0,0
74820.875,65.6561,-1564.99,0,0
75081.2,64.8483,-1559.29,0,0
75341.525,64.0596,-1553.42,0,0
75601.85,63.2761,-1547.63,0,0
75862.175,62.5651,-1541.77,0,0
76122.5,61.7374,-1535.85,0,0
76382.825,61.1469,-1529.98,0,0
76643.15,60.5385,-1524.08,0,0
76903.475,59.9292,-1518.21,0,0
77163.8,59.4924,-1512.36,0,0
77424.125,59.0117,-1506.66,0,0
77684.45,58.4742,-1500.92,0,0
77944.775,57.9109,-1495.1,0,0
78205.1,57.4216,-1489.34,0,0
78465.425,56.9455,-1483.59,0,0
78725.75,56.4663,-1477.92,0,0
78986.075,56.1331,-1472.19,0,0
79246.4,55.693,-1466.45,0,0
79506.725,55.295,-1460.81,0,0
79767.05,55.0471,-1455.14,0,0
80027.375,54.747,-1449.52,0,0
80287.7,54.5335,-1443.92,0,0
80548.025,54.2817,-1438.38,0,0
80808.35,54.0195,-1432.83,0,0
81068.675,53.7861,-1427.37,0,0
81329.0,53.5333,-1421.95,0,0
81589.325,53.47,-1416.44,0,0
81849.65,53.3217,-1411.11,0,0
82109.975,53.1387,-1405.72,0,0
82370.3,53.0445,-1400.44,0,0
82630.625,52.8666,-1395.06,0,0
82890.95,52.8008,-1389.75,0,0
83151.275,52.7136,-1384.57,0,0
83411.6,52.6385,-1379.36,0,0
83671.925,52.5579,-1374.2,0,0
83932.25,52.5672,-1369.06,0,0
84192.575,52.4985,-1363.92,0,0
84452.9,52.4703,-1358.86,0,0
84713.225,52.4485,-1353.88,0,0
84973.55,52.3973,-1348.73,0,0
85233.875,52.3634,-1343.73,0,0
85494.2,52.394,-1338.78,0,0
85754.525,52.4776,-1333.8,0,0
86014.85,52.4783,-1328.94,0,0
86275.175,52.4139,-1323.98,0,0
86535.5,52.4514,-1319.12,0,0
86795.825,52.5324,-1314.24,0,0
87056.15,52.5106,-1309.41,0,0
87316.475,52.5789,-1304.61,0,0
87576.8,52.6932,-1299.67,0,0
87837.125,52.9262,-1294.88,0,0
88097.45,53.033,-1290.24,0,0
88357.775,53.109,-1285.47,0,0
88618.1,53.1721,-1280.62,0,0
88878.425,53.4212,-1275.73,0,0
89138.75,53.8192,-1270.91,0,0
89399.075,54.343,-1266.25,0,0
89659.4,54.7642,-1261.79,0,0
89919.725,55.3507,-1257.32,0,0
90180,55.7735,-1252.95,0,0
90440.4,56.1416,-1248.77,0,0
90700.7,56.4304,-1244.34,0,0
90961,56.9198,-1240.08,0,0
91221.3,57.3937,-1235.92,0,0
91481.7,57.8072,-1231.79,0,0
91742,58.209,-1227.65,0,0
92002.3,58.623,-1223.5,0,0
92262.6,59.1879,-1219.4,0,0
92523,59.896,-1215.55,0,0
92783.3,60.4336,-1211.94,0,0
93043.6,60.8047,-1208.16,0,0
93303.9,61.4449,-1204.41,0,0
93564.3,62.1771,-1200.95,0,0
93824.6,62.8127,-1197.89,0,0
94084.9,63.2991,-1195.22,0,0
94345.2,62.9042,-1192.73,0,0
94605.6,62.2884,-1189.74,0,0
94865.9,61.6361,-1186.8,0,0
95126.2,60.4849,-1183.8,0,0
95386.5,58.9753,-1180.04,0,0
95646.9,57.9907,-1175.78,0,0
95907.2,57.2301,-1171.57,0,0
96167.5,56.4865,-1167.29,0,0
96427.8,56.1396,-1162.7,0,0
96688.2,56.1063,-1158.37,0,0
96948.5,56.0618,-1154.25,0,0
97208.8,55.9728,-1150.18,0,0
97469.1,55.9286,-1146.2,0,0
97729.5,55.8251,-1142.21,0,0
97989.8,55.8149,-1138.22,0,0
98250.1,55.7539,-1134.27,0,0
98510.4,55.7193,-1130.31,0,0
98770.8,55.7975,-1126.49,0,0
99031.1,55.7614,-1122.76,0,0
99291.4,55.6143,-1118.91,0,0
99551.7,55.4382,-1115.05,0,0
99812.1,55.4049,-1111.14,0,0
100072,55.2992,-1107.26,0,0
100333,55.1753,-1103.31,0,0
100593,55.0842,-1099.39,0,0
100853,54.9931,-1095.36,0,0
101114,55.0781,-1091.27,0,0
101374,55.1406,-1087.27,0,0
101634,55.2113,-1083.18,0,0
101895,55.4478,-1079.03,0,0
102155,55.8278,-1074.82,0,0
102415,56.3842,-1070.63,0,0
102676,57.346,-1066.6,0,0
102936,58.3212,-1063.05,0,0
103196,59.0303,-1059.71,0,0
103457,59.6443,-1056.3,0,0
103717,60.2833,-1052.89,0,0
103977,61.0155,-1049.41,0,0
104238,61.9639,-1046.23,0,0
104498,62.9291,-1043.52,0,0
104758,63.3262,-1041.02,0,0
105019,63.5416,-1038.42,0,0
105279,63.4863,-1035.71,0,0
105539,63.5636,-1032.77,0,0
105800,63.6723,-1030.05,0,0
106060,63.5101,-1027.36,0,0
106320.175,63.1592,-1024.56,0,0
106580.5,62.8165,-1021.58,0,0
106840.825,62.4428,-1018.63,0,0
107101.15,61.9167,-1015.55,0,0
107361.475,61.5366,-1012.29,0,0
107621.8,61.1051,-1009.02,0,0
107882.125,60.6884,-1005.65,0,0
108142.45,60.3997,-1002.22,0,0
108402.775,60.0755,-998.899,0,0
108663.1,59.595,-995.341,0,0
108923.425,59.2058,-991.673,0,0
109183.75,59.0738,-987.838,0,0
109444.075,59.0943,-984.119,0,0
109704.4,59.1514,-980.516,0,0
109964.725,59.112,-976.841,0,0
110225.05,59.1179,-973.15,0,0
110485.375,59.3312,-969.31,0,0
110745.7,59.8334,-965.371,0,0
111006.025,60.4078,-961.867,0,0
111266.35,60.8651,-958.542,0,0
111526.675,61.2336,-955.132,0,0
111787.0,61.7656,-951.664,0,0
112047.325,62.2457,-948.475,0,0
112307.65,62.6869,-945.262,0,0
112567.975,63.1586,-942.153,0,0
112828.3,63.4855,-938.944,0,0
113088.625,63.8807,-935.851,0,0
113348.95,64.172,-932.769,0,0
113609.275,64.3534,-929.527,0,0
113869.6,64.5846,-926.267,0,0
114129.925,64.8743,-923.076,0,0
114390.25,65.1038,-919.784,0,0
114650.575,65.3444,-916.393,0,0
114910.9,65.7274,-912.982,0,0
115171.225,66.2107,-909.48,0,0
115431.55,66.7636,-906.019,0,0
115691.875,67.3814,-902.739,0,0
115952.2,67.9604,-899.393,0,0
116212.525,68.6076,-895.989,0,0
116472.85,69.4277,-892.537,0,0
116733.175,70.3983,-889.233,0,0
116993.5,71.2927,-886.114,0,0
117253.825,72.1183,-882.886,0,0
117514.15,73.002,-879.438,0,0
117774.475,74.4582,-875.864,0,0
118034.8,76.305,-872.916,0,0
118295.125,77.9096,-870.448,0,0
118555.45,79.33,-868.2,0,0
118815.775,80.3325,-865.901,0,0
119076.1,81.4432,-863.214,0,0
119336.425,82.9999,-860.553,0,0
119596.75,84.8936,-858.425,0,0
119857.075,86.5949,-856.781,0,0
120117.4,88.3694,-855.644,0,0
120377.725,89.3248,-855.214,0,0
120638.05,89.3539,-854.362,0,0
120898.375,89.4414,-853.376,0,0
121158.7,88.893,-852.309,0,0
121419.025,88.0413,-850.751,0,0
121679.35,87.0731,-848.673,0,0
121939.675,86.3011,-846.046,0,0
122200.0,85.9419,-843.169,0,0
122460,85.938,-840.385,0,0
122721,86.0122,-837.662,0,0
122981,86.2274,-834.86,0,0
123241,86.7616,-832.275,0,0
123502,87.1594,-829.97,0,0
123762,87.4065,-827.603,0,0
124022,87.7703,-825.177,0,0
124283,88.1464,-822.875,0,0
124543,88.4803,-820.642,0,0
124803,88.8485,-818.393,0,0
125064,89.2623,-816.191,0,0
125324,89.5948,-814.068,0,0
125584,89.9577,-812.053,0,0
125845,90.2678,-810.105,0,0
126105,90.4683,-808.324,0,0
126365,90.3874,-806.491,0,0
126626,90.2169,-804.542,0,0
126886,90.0684,-802.402,0,0
127146,89.9963,-800.401,0,0
127406,89.9386,-798.314,0,0
127667,89.7552,-796.254,0,0
127927,89.465,-794.242,0,0
128187,89.0781,-792.108,0,0
128448,88.5845,-789.87,0,0
128708,88.0867,-787.391,0,0
128968,87.7699,-784.796,0,0
129229,87.5991,-782.215,0,0
129489,87.4286,-779.683,0,0
129749,87.2338,-777.129,0,0
130010,87.0269,-774.337,0,0
130270,87.1955,-771.522,0,0
130530,87.5684,-768.939,0,0
130791,87.9534,-766.576,0,0
131051,88.2161,-764.502,0,0
131311,88.2085,-762.407,0,0
131572,88.1454,-760.311,0,0
131832,87.8839,-758.136,0,0
132092,87.6156,-755.82,0,0
132353,87.3748,-753.398,0,0
132613,87.2501,-750.902,0,0
132873,87.2109,-748.547,0,0
133134,87.0649,-746.23,0,0
133394,86.8545,-743.947,0,0
133654,86.5524,-741.669,0,0
133915,86.1506,-739.204,0,0
134175,85.7773,-736.586,0,0
134435,85.6102,-734.004,0,0
134696,85.3994,-731.451,0,0
134956,85.0852,-728.906,0,0
135216,84.7438,-726.23,0,0
135477,84.5369,-723.535,0,0
135737,84.3704,-720.943,0,0
135997,84.059,-718.389,0,0
136258,83.5681,-715.633,0,0
136518,83.1711,-712.63,0,0
136778,82.9594,-709.517,0,0
137039,82.9713,-706.424,0,0
137299,83.0146,-703.434,0,0
137559,83.1242,-700.413,0,0
137819,83.3427,-697.438,0,0
138080,83.6373,-694.608,0,0
138340.125,83.9528,-691.82,0,0
138600.45,84.2751,-689.172,0,0
138860.775,84.5084,-686.698,0,0
139121.1,84.5681,-684.266,0,0
139381.425,84.486,-681.776,0,0
139641.75,84.2647,-679.157,0,0
139902.075,83.9843,-676.421,0,0
140162.4,83.7937,-673.448,0,0
140422.725,83.8742,-670.583,0,0
140683.05,83.8353,-667.862,0,0
140943.375,83.6564,-665.087,0,0
141203.7,83.4498,-662.219,0,0
141464.025,83.244,-659.325,0,0
141724.35,82.9297,-656.326,0,0
141984.675,82.6615,-653.113,0,0
142245.0,82.542,-649.885,0,0
142505.325,82.4224,-646.663,0,0
142765.65,82.293,-643.34,0,0
143025.975,82.2596,-639.928,0,0
143286.3,82.2519,-636.506,0,0
143546.625,82.3538,-633.087,0,0
143806.95,82.4376,-629.608,0,0
144067.275,82.5639,-626.102,0,0
144327.6,82.7232,-622.504,0,0
144587.925,82.9829,-618.872,0,0
144848.25,83.3387,-615.248,0,0
145108.575,83.7382,-611.624,0,0
145368.9,84.1501,-608.067,0,0
145629.225,84.5227,-604.445,0,0
145889.55,84.8631,-600.743,0,0
146149.875,85.27,-596.875,0,0
146410.2,85.8835,-592.893,0,0
146670.525,86.6613,-589.073,0,0
146930.85,87.3596,-585.264,0,0
147191.175,88.0683,-581.346,0,0
147451.5,88.8515,-577.361,0,0
147711.825,89.827,-573.293,0,0
147972.15,90.8926,-569.319,0,0
148232.475,91.9651,-565.296,0,0
148492.8,93.1589,-561.245,0,0
148753.125,94.439,-557.201,0,0
149013.45,95.7624,-553.109,0,0
149273.775,97.2008,-548.916,0,0
149534.1,98.8467,-544.634,0,0
149794.425,100.781,-540.423,0,0
150054.75,102.875,-536.379,0,0
150315.075,105.099,-532.416,0,0
150575.4,107.433,-528.625,0,0
150835.725,109.784,-524.959,0,0
151096.05,112.229,-521.416,0,0
151356.375,114.646,-517.965,0,0
151616.7,117.176,-514.537,0,0
151877.025,119.871,-511.273,0,0
152137.35,122.619,-508.303,0,0
152397.675,125.164,-505.56,0,0
152658.0,127.58,-502.811,0,0
152918.325,130.037,-500.093,0,0
153178.65,132.461,-497.6,0,0
153438.975,134.595,-495.191,0,0
153699.3,136.606,-492.676,0,0
153959.625,138.603,-490.036,0,0
154219.95,140.736,-487.469,0,0
154480,142.648,-485.261,0,0
154741,143.891,-482.877,0,0
155001,145.017,-479.781,0,0
155261,146.523,-476.105,0,0
155522,148.649,-472.497,0,0
155782,151.031,-469.221,0,0
156042,153.232,-466.097,0,0
156303,155.254,-462.899,0,0
156563,157.351,-459.375,0,0
156823,159.734,-455.556,0,0
157084,162.76,-451.697,0,0
157344,166.287,-448.351,0,0
157604,169.984,-445.504,0,0
157864,173.541,-443.197,0,0
158125,177.032,-441.508,0,0
158385,179.621,-440.634,0,0
158645,180.9,-439.372,0,0
158906,181.737,-437.283,0,0
159166,182.291,-434.719,0,0
159426,182.619,-431.106,0,0
159687,183.089,-426.694,0,0
159947,184.147,-421.226,0,0
160207,186.271,-415.132,0,0
160468,189.626,-409.186,0,0
160728,193.641,-403.906,0,0
160988,197.695,-399.104,0,0
161249,201.225,-394.207,0,0
161509,205.408,-388.088,0,0
161769,211.22,-382.263,0,0
162030,217.69,-377.817,0,0
162290,223.359,-373.834,0,0
162550,229.251,-369.573,0,0
162811,235.251,-365.65,0,0
163071,241.072,-361.148,0,0
163331,247.85,-355.932,0,0
163592,256.192,-351.111,0,0
163852,265.083,-347.479,0,0
164112,274.151,-344.442,0,0
164373,283.491,-341.62,0,0
164633,293.757,-339.261,0,0
164893,304.87,-337.859,0,0
165154,316.448,-338.33,0,0
165414,327.258,-340.37,0,0
165674,337.189,-343,0,0
165935,346.761,-346.001,0,0
166195,355.867,-349.314,0,0
166455,365.525,-353.003,0,0
166716,374.995,-358.197,0,0
166976,383.203,-364.587,0,0
167236,390.363,-371.088,0,0
167497,396.859,-377.778,0,0
167757,402.687,-384.762,0,0
168017,407.779,-391.774,0,0
168277,412.197,-398.822,0,0
168538,416.134,-405.761,0,0
168798,420.152,-412.811,0,0
169058,424.09,-420.662,0,0
169319,426.871,-429.939,0,0
169579,427.231,-439.442,0,0
169839,425.455,-448.042,0,0
170100,422.396,-454.864,0,0
170360.075,419.183,-459.838,0,0
170620.4,416.284,-463.461,0,0
170880.725,414.03,-466.459,0,0
171141.05,411.747,-469.106,0,0
171401.375,409.578,-470.605,0,0
171661.7,408.61,-471.429,0,0
171922.025,408.466,-472.753,0,0
172182.35,408.053,-474.428,0,0
172442.675,407.309,-475.635,0,0
172703.0,407.113,-475.641,0,0
172963.325,408.909,-475.484,0,0
173223.65,411.772,-477.078,0,0
173483.975,413.843,-480.222,0,0
173744.3,414.76,-483.517,0,0
174004.625,415.24,-486.229,0,0
174264.95,416.302,-488.522,0,0
174525.275,417.987,-491.717,0,0
174785.6,418.851,-496.108,0,0
175045.925,418.271,-500.303,0,0
175306.25,417.34,-503.289,0,0
175566.575,417.323,-505.57,0,0
175826.9,418.181,-508.969,0,0
176087.225,418.312,-513.418,0,0
176347.55,417.659,-517.861,0,0
176607.875,416.965,-522.528,0,0
176868.2,415.615,-528.599,0,0
177128.525,411.686,-535.014,0,0
177388.85,405.8,-539.647,0,0
177649.175,399.652,-542.316,0,0
177909.5,393.863,-543.922,0,0
178169.825,387.679,-545.066,0,0
178430.15,381.265,-544.329,0,0
178690.475,375.852,-542.016,0,0
178950.8,371.878,-539.118,0,0
179211.125,368.809,-536.378,0,0
179471.45,366.087,-533.56,0,0
179731.775,363.9,-530.147,0,0
179992.1,363.096,-526.492,0,0
180252.425,363.284,-523.802,0,0
180512.75,363.564,-521.643,0,0
180773.075,364.198,-519.695,0,0
181033.4,365.129,-518.28,0,0
181293.725,366.53,-517.278,0,0
181554.05,368.2,-517.295,0,0
181814.375,369.693,-518.362,0,0
182074.7,370.28,-520.644,0,0
182335.025,369.141,-523.087,0,0
182595.35,367.251,-524.485,0,0
182855.675,365.288,-525.479,0,0
183116.0,363.186,-526.309,0,0
183376.325,360.797,-527.19,0,0
183636.65,357.742,-527.892,0,0
183896.975,353.984,-527.869,0,0
184157.3,350.163,-526.683,0,0
184417.625,347.098,-524.912,0,0
184677.95,344.204,-523.41,0,0
184938.275,340.857,-521.453,0,0
185198.6,337.686,-518.798,0,0
185458.925,334.844,-515.699,0,0
185719.25,332.356,-512.23,0,0
185979.575,330.138,-508.497,0,0
186239.9,328.241,-504.458,0,0
186500,326.697,-499.943,0,0
186761,325.927,-495.087,0,0
187021,326,-490.374,0,0
187281,326.469,-486.036,0,0
187542,327.381,-481.973,0,0
187802,328.568,-478.377,0,0
188062,329.679,-475.071,0,0
188322,330.953,-471.874,0,0
188583,332.33,-469.274,0,0
188843,333.004,-467.062,0,0
189103,333.034,-464.231,0,0
189364,333.38,-460.534,0,0
189624,334.48,-456.53,0,0
189884,336.207,-452.801,0,0
190145,338.262,-449.531,0,0
190405,340.232,-446.651,0,0
190665,342.074,-443.878,0,0
190926,344.026,-441.113,0,0
191186,345.962,-438.616,0,0
191446,347.563,-436.226,0,0
191707,348.907,-433.481,0,0
191967,350.563,-430.39,0,0
192227,352.356,-427.514,0,0
192488,353.934,-424.56,0,0
192748,355.321,-421.156,0,0
193008,356.986,-417.001,0,0
193269,359.443,-412.329,0,0
193529,362.952,-407.684,0,0
193789,367.121,-403.679,0,0
194050,371.515,-400.087,0,0
194310,376.155,-396.67,0,0
194570,381.158,-393.632,0,0
194831,386.323,-390.97,0,0
195091,391.623,-388.351,0,0
195351,397.46,-385.92,0,0
195612,403.843,-384.126,0,0
195872,410.612,-383.312,0,0
196132,417.409,-383.434,0,0
196393,423.902,-384.279,0,0
196653,429.91,-386.188,0,0
196913,434.852,-389.103,0,0
197174,438.006,-391.903,0,0
197434,440.539,-393.393,0,0
197694,443.52,-394.383,0,0
197955,446.65,-395.572,0,0
198215,449.435,-396.87,0,0
198475,452.097,-397.805,0,0
198735,454.825,-399.009,0,0
198996,457.043,-400.166,0,0
199256,459.164,-400.9,0,0
199516,461.373,-401.424,0,0
199777,463.791,-402.095,0,0
200037,465.707,-403.215,0,0
200297,466.709,-404.058,0,0
200558,467.109,-403.747,0,0
200818,467.957,-402.097,0,0
201078,469.899,-399.811,0,0
201339,472.795,-397.703,0,0
201599,476.072,-395.88,0,0
201859,479.542,-394.157,0,0
202120,483.286,-392.339,0,0
202380.025,487.513,-390.162,0,0
202640.35,492.834,-388.205,0,0
202900.675,498.796,-387.12,0,0
203161.0,504.889,-386.676,0,0
203421.325,510.933,-386.778,0,0
203681.65,517.003,-387.265,0,0
203941.975,523.302,-388.09,0,0
204202.3,529.792,-389.587,0,0
204462.625,536.11,-392.037,0,0
204722.95,541.716,-395.068,0,0
204983.275,546.96,-398.347,0,0
205243.6,551.706,-401.929,0,0
205503.925,555.49,-405.896,0,0
205764.25,558.589,-409.491,0,0
206024.575,560.908,-413.038,0,0
206284.9,562.158,-415.565,0,0
206545.225,563.449,-416.469,0,0
206805.55,565.575,-416.482,0,0
207065.875,568.661,-415.788,0,0
207326.2,572.988,-415.089,0,0
207586.525,578.146,-415.026,0,0
207846.85,583.509,-415.391,0,0
208107.175,589.297,-415.675,0,0
208367.5,595.915,-416.528,0,0
208627.825,602.889,-418.225,0,0
208888.15,609.812,-420.466,0,0
209148.475,616.93,-423.141,0,0
209408.8,624.214,-426.567,0,0
209669.125,631.212,-430.636,0,0
209929.45,638.115,-435.162,0,0
210189.775,644.738,-440.163,0,0
210450.1,651.023,-445.572,0,0
210710.425,657.266,-451.174,0,0
210970.75,663.335,-457.257,0,0
211231.075,669.044,-463.775,0,0
211491.4,674.26,-470.732,0,0
211751.725,678.977,-477.735,0,0
212012.05,683.238,-484.603,0,0
212272.375,687.568,-491.393,0,0
212532.7,691.916,-498.189,0,0
212793.025,696.471,-505.263,0,0
213053.35,701.044,-512.893,0,0
213313.675,705.437,-521.237,0,0
213574.0,709.085,-530.074,0,0
213834.325,712.084,-539.107,0,0
214094.65,714.554,-548.043,0,0
214354.975,716.668,-556.92,0,0
214615.3,718.69,-565.757,0,0
214875.625,720.292,-574.785,0,0
215135.95,721.788,-584.056,0,0
215396.275,722.634,-593.665,0,0
215656.6,722.771,-603.173,0,0
215916.925,722.424,-612.235,0,0
216177.25,722.199,-621.114,0,0
216437.575,721.854,-629.876,0,0
216697.9,721.536,-639.103,0,0
216958.225,720.411,-648.745,0,0
217218.55,718.433,-658.06,0,0
217478.875,716.181,-666.894,0,0
217739.2,713.911,-675.533,0,0
217999.525,711.538,-684.182,0,0
218259.85,708.582,-692.947,0,0
218520,705.182,-701.449,0,0
218780,701.276,-709.297,0,0
219041,697.517,-716.574,0,0
219301,694.005,-723.549,0,0
219561,690.79,-730.774,0,0
219822,687.513,-738.147,0,0
220082,684.185,-745.929,0,0
220342,680.176,-753.839,0,0
220603,675.792,-761.564,0,0
220863,671.101,-769.203,0,0
221123,666.12,-776.695,0,0
221384,661.031,-784.166,0,0
221644,655.805,-791.871,0,0
221904,649.907,-799.862,0,0
222165,642.868,-807.765,0,0
222425,635.032,-815.185,0,0
222685,626.473,-822.019,0,0
222946,617.283,-828.006,0,0
223206,607.366,-833.188,0,0
223466,597.06,-836.715,0,0
223727,587.276,-838.638,0,0
223987,578.227,-840.022,0,0
224247,569.638,-840.597,0,0
224508,561.745,-840.514,0,0
224768,554.752,-839.908,0,0
225028,548.958,-838.94,0,0
225289,543.729,-838.564,0,0
225549,539.322,-838.249,0,0
225809,535.304,-838.457,0,0
226070,531.545,-839.205,0,0
226330,527.618,-840.519,0,0
226590,523.463,-841.797,0,0
226851,519.476,-843.008,0,0
227111,516.008,-844.458,0,0
227371,512.414,-846.745,0,0
227632,508.093,-849.53,0,0
227892,503.141,-851.991,0,0
228152,497.967,-854.367,0,0
228413,492.494,-856.464,0,0
228673,486.786,-858.086,0,0
228933,481.17,-859.273,0,0
229193,475.783,-860.255,0,0
229454,470.677,-861.295,0,0
229714,465.457,-862.305,0,0
229974,460.194,-863.317,0,0
230235,454.88,-864.412,0,0
230495,449.467,-865.305,0,0
230755,443.937,-866.151,0,0
231016,438.295,-866.711,0,0
231276,432.568,-867.112,0,0
231536,426.933,-867.169,0,0
231797,421.363,-867.052,0,0
232057,415.957,-866.77,0,0
232317,410.604,-866.309,0,0
232578,405.386,-865.725,0,0
232838,400.419,-865.082,0,0
233098,395.499,-864.485,0,0
233359,390.566,-863.819,0,0
233619,385.771,-863.084,0,0
233879,380.943,-862.4,0,0
234140,376.176,-861.522,0,0
234400,371.557,-860.553,0,0
234660.3,366.891,-859.541,0,0
234920.625,362.565,-858.574,0,0
235180.95,358.395,-857.749,0,0
235441.275,353.918,-857.033,0,0
235701.6,349.326,-856.393,0,0
235961.925,344.557,-855.721,0,0
236222.25,339.611,-854.777,0,0
236482.575,334.648,-853.522,0,0
236742.9,329.83,-852.115,0,0
237003.225,325.131,-850.624,0,0
237263.55,320.356,-849.261,0,0
237523.875,315.442,-847.839,0,0
237784.2,310.316,-846.113,0,0
238044.525,305.087,-843.989,0,0
238304.85,300.02,-841.559,0,0
238565.175,295.123,-838.767,0,0
238825.5,290.488,-835.755,0,0
239085.825,286.133,-832.525,0,0
239346.15,282.129,-829.155,0,0
239606.475,278.331,-825.858,0,0
239866.8,274.8,-822.68,0,0
240127.125,271.514,-819.376,0,0
240387.45,267.994,-816.14,0,0
240647.775,264.662,-812.918,0,0
240908.1,261.426,-809.521,0,0
241168.425,258.393,-806.023,0,0
241428.75,255.379,-802.436,0,0
241689.075,252.572,-798.593,0,0
241949.4,250.202,-794.64,0,0
242209.725,248.289,-790.786,0,0
242470.05,246.5,-787.161,0,0
242730.375,244.767,-783.749,0,0
242990.7,243.167,-780.284,0,0
243251.025,241.837,-776.773,0,0
243511.35,240.796,-773.47,0,0
243771.675,239.972,-770.529,0,0
244032.0,239.061,-767.881,0,0
244292.325,237.895,-765.41,0,0
244552.65,236.777,-762.914,0,0
244812.975,235.753,-760.538,0,0
245073.3,234.485,-758.293,0,0
245333.625,233.281,-756.003,0,0
245593.95,231.813,-753.669,0,0
245854.275,230.532,-751.208,0,0
246114.6,229.25,-748.675,0,0
246374.925,228.019,-746.212,0,0
246635.25,226.927,-743.545,0,0
246895.575,225.978,-740.968,0,0
247155.9,225.124,-738.528,0,0
247416.225,224.278,-736.182,0,0
247676.55,223.354,-733.785,0,0
247936.875,222.411,-731.251,0,0
248197.2,221.58,-728.716,0,0
248457.525,220.991,-726.036,0,0
248717.85,220.675,-723.439,0,0
248978.175,220.589,-720.904,0,0
249238.5,220.742,-718.755,0,0
249498.825,220.882,-716.96,0,0
249759.15,220.936,-715.441,0,0
250019.475,220.923,-714.078,0,0
250279.8,220.634,-712.893,0,0
250540,220.271,-711.818,0,0
250800,219.735,-710.838,0,0
251061,218.851,-709.903,0,0
251321,217.777,-708.857,0,0
251581,216.521,-707.713,0,0
251842,215.167,-706.422,0,0
252102,213.707,-705.035,0,0
252362,212.068,-703.542,0,0
252623,210.351,-701.737,0,0
252883,208.661,-699.627,0,0
253143,207.075,-697.286,0,0
253404,205.601,-694.831,0,0
253664,204.271,-692.191,0,0
253924,202.969,-689.417,0,0
254185,201.882,-686.483,0,0
254445,201.01,-683.352,0,0
254705,200.344,-680.094,0,0
254966,199.944,-676.974,0,0
255226,199.549,-673.829,0,0
255486,199.383,-670.513,0,0
255747,199.491,-666.991,0,0
256007,199.976,-663.485,0,0
256267,200.841,-660.07,0,0
256528,202.064,-656.811,0,0
256788,203.516,-653.822,0,0
257048,205.188,-651.198,0,0
257309,206.959,-648.876,0,0
257569,208.711,-646.858,0,0
257829,210.342,-645.064,0,0
258090,211.799,-643.373,0,0
258350,213.164,-641.613,0,0
258610,214.603,-639.632,0,0
258871,216.223,-637.56,0,0
259131,218.095,-635.475,0,0
259391,220.415,-633.466,0,0
259651,223.093,-631.747,0,0
259912,226.062,-630.38,0,0
260172,229.221,-629.501,0,0
260432,232.419,-628.959,0,0
260693,235.826,-628.756,0,0
260953,239.387,-629.178,0,0
261213,242.855,-630.284,0,0
261474,246.018,-632.04,0,0
261734,248.712,-634.331,0,0
261994,250.939,-636.911,0,0
262255,252.663,-639.788,0,0
262515,253.895,-642.842,0,0
262775,254.534,-646.025,0,0
263036,254.646,-649.122,0,0
263296,254.397,-652.067,0,0
263556,253.813,-654.922,0,0
263817,252.987,-657.735,0,0
264077,251.692,-660.545,0,0
264337,249.94,-663.098,0,0
264598,247.877,-665.388,0,0
264858,245.561,-667.42,0,0
265118,243.087,-669.088,0,0
265379,240.449,-670.475,0,0
265639,237.628,-671.605,0,0
265899,234.652,-672.427,0,0
266160,231.676,-672.955,0,0
266420,228.637,-673.153,0,0
266680.25,225.572,-673.069,0,0
266940.575,222.521,-672.659,0,0
267200.9,219.561,-671.923,0,0
267461.225,216.685,-670.863,0,0
267721.55,214.012,-669.606,0,0
267981.875,211.471,-668.053,0,0
268242.2,209.213,-666.335,0,0
268502.525,207.229,-664.484,0,0
268762.85,205.463,-662.608,0,0
269023.175,203.861,-660.721,0,0
269283.5,202.457,-658.852,0,0
269543.825,201.133,-656.98,0,0
269804.15,199.871,-655.016,0,0
270064.475,198.751,-653.009,0,0
270324.8,197.84,-650.971,0,0
270585.125,197.118,-648.857,0,0
270845.45,196.617,-646.849,0,0
271105.775,196.237,-644.911,0,0
271366.1,195.991,-643.049,0,0
271626.425,195.848,-641.343,0,0
271886.75,195.758,-639.714,0,0
272147.075,195.788,-638.269,0,0
272407.4,195.754,-637.021,0,0
272667.725,195.511,-635.87,0,0
272928.05,195.072,-634.623,0,0
273188.375,194.678,-633.146,0,0
273448.7,194.311,-631.448,0,0
273709.025,194.084,-629.686,0,0
273969.35,194.084,-627.73,0,0
274229.675,194.329,-625.873,0,0
274490.0,194.709,-624.139,0,0
274750.325,195.249,-622.405,0,0
275010.65,195.85,-620.821,0,0
275270.975,196.576,-619.238,0,0
275531.3,197.539,-617.631,0,0
275791.625,198.615,-616.174,0,0
276051.95,199.946,-614.894,0,0
276312.275,201.375,-613.734,0,0
276572.6,202.967,-612.809,0,0
276832.925,204.711,-612.169,0,0
277093.25,206.464,-611.837,0,0
277353.575,208.176,-611.817,0,0
277613.9,209.759,-612.041,0,0
277874.225,211.319,-612.465,0,0
278134.55,212.699,-613.131,0,0
278394.875,213.974,-613.938,0,0
278655.2,215.095,-614.952,0,0
278915.525,216.018,-616.123,0,0
279175.85,216.813,-617.449,0,0
279436.175,217.342,-618.844,0,0
279696.5,217.763,-620.36,0,0
279956.825,217.909,-622.055,0,0
280217.15,217.722,-623.774,0,0
280477.475,217.219,-625.433,0,0
280737.8,216.458,-626.993,0,0
280998.125,215.498,-628.305,0,0
281258.45,214.499,-629.518,0,0
281518.775,213.441,-630.673,0,0
281779.1,212.192,-631.792,0,0
282039.425,210.802,-632.797,0,0
282299.75,209.245,-633.646,0,0
282560,207.646,-634.295,0,0
282820,206.053,-634.862,0,0
283081,204.415,-635.267,0,0
283341,202.679,-635.648,0,0
283601,200.873,-635.857,0,0
283862,199.063,-635.9,0,0
284122,197.264,-635.796,0,0
284382,195.479,-635.606,0,0
284643,193.719,-635.273,0,0
284903,191.91,-634.826,0,0
285163,190.116,-634.178,0,0
285424,188.383,-633.431,0,0
285684,186.79,-632.528,0,0
285944,185.258,-631.551,0,0
286205,183.85,-630.454,0,0
286465,182.532,-629.29,0,0
286725,181.34,-628.012,0,0
286986,180.259,-626.721,0,0
287246,179.366,-625.354,0,0
287506,178.6,-623.956,0,0
287767,178.035,-622.571,0,0
288027,177.678,-621.265,0,0
288287,177.458,-620.11,0,0
288548,177.298,-619.095,0,0
288808,177.171,-618.199,0,0
289068,177.048,-617.434,0,0
289329,176.918,-616.803,0,0
289589,176.681,-616.29,0,0
289849,176.385,-615.747,0,0
290109,176.126,-615.229,0,0
290370,175.787,-614.756,0,0
290630,175.501,-614.35,0,0
290890,175.174,-614.015,0,0
291151,174.688,-613.738,0,0
291411,174.076,-613.446,0,0
291671,173.332,-613.06,0,0
291932,172.557,-612.58,0,0
292192,171.758,-611.984,0,0
292452,170.964,-611.273,0,0
292713,170.171,-610.434,0,0
292973,169.485,-609.443,0,0
293233,168.908,-608.366,0,0
293494,168.51,-607.207,0,0
293754,168.305,-606.06,0,0
294014,168.264,-604.993,0,0
294275,168.323,-604.027,0,0
294535,168.461,-603.122,0,0
294795,168.705,-602.295,0,0
295056,169.037,-601.562,0,0
295316,169.467,-600.963,0,0
295576,169.946,-600.549,0,0
295837,170.431,-600.309,0,0
296097,170.864,-600.224,0,0
296357,171.236,-600.279,0,0
296618,171.54,-600.468,0,0
296878,171.757,-600.759,0,0
297138,171.866,-601.188,0,0
297399,171.822,-601.681,0,0
297659,171.618,-602.209,0,0
297919,171.281,-602.759,0,0
298180,170.823,-603.282,0,0
298440,170.24,-603.755,0,0
298700.2,169.583,-604.174,0,0
298960.525,168.899,-604.553,0,0
299220.85,168.119,-604.918,0,0
299481.175,167.307,-605.275,0,0
299741.5,166.412,-605.611,0,0
300001.825,165.451,-605.909,0,0
300262.15,164.444,-606.133,0,0
300522.475,163.363,-606.328,0,0
300782.8,162.193,-606.469,0,0
301043.125,161.009,-606.56,0,0
301303.45,159.778,-606.568,0,0
301563.775,158.488,-606.529,0,0
301824.1,157.156,-606.419,0,0
302084.425,155.788,-606.168,0,0
302344.75,154.427,-605.837,0,0
302605.075,153.1,-605.425,0,0
302865.4,151.815,-604.921,0,0
303125.725,150.56,-604.377,0,0
303386.05,149.329,-603.792,0,0
303646.375,148.119,-603.166,0,0
303906.7,146.933,-602.52,0,0
304167.025,145.75,-601.847,0,0
304427.35,144.559,-601.1,0,0
304687.675,143.396,-600.26,0,0
304948.0,142.293,-599.366,0,0
305208.325,141.206,-598.46,0,0
305468.65,140.228,-597.446,0,0
305728.975,139.291,-596.426,0,0
305989.3,138.454,-595.381,0,0
306249.625,137.673,-594.346,0,0
306509.95,136.947,-593.306,0,0
306770.275,136.27,-592.281,0,0
307030.6,135.672,-591.237,0,0
307290.925,135.154,-590.22,0,0
307551.25,134.702,-589.247,0,0
307811.575,134.291,-588.324,0,0
308071.9,133.899,-587.478,0,0
308332.225,133.53,-586.684,0,0
308592.55,133.157,-585.938,0,0
308852.875,132.787,-585.231,0,0
309113.2,132.433,-584.565,0,0
309373.525,132.021,-583.957,0,0
309633.85,131.608,-583.384,0,0
309894.175,131.188,-582.804,0,0
310154.5,130.734,-582.277,0,0
310414.825,130.282,-581.806,0,0
310675.15,129.751,-581.361,0,0
310935.475,129.128,-580.965,0,0
311195.8,128.421,-580.522,0,0
311456.125,127.674,-580.04,0,0
311716.45,126.871,-579.516,0,0
311976.775,125.998,-578.946,0,0
312237.1,125.108,-578.301,0,0
312497.425,124.207,-577.574,0,0
312757.75,123.31,-576.779,0,0
313018.075,122.423,-575.92,0,0
313278.4,121.555,-574.997,0,0
313538.725,120.707,-574.004,0,0
313799.05,119.885,-572.94,0,0
314059.375,119.095,-571.82,0,0
314319.7,118.37,-570.624,0,0
314580,117.715,-569.344,0,0
314840,117.15,-568.013,0,0
315101,116.657,-566.635,0,0
315361,116.384,-565.306,0,0
315621,116.167,-563.966,0,0
315882,116.09,-562.717,0,0
316142,116.04,-561.479,0,0
316402,116.018,-560.335,0,0
316663,116.094,-559.301,0,0
316923,116.33,-558.358,0,0
317183,116.436,-557.476,0,0
317444,116.592,-556.586,0,0
317704,116.7,-555.918,0,0
317964,116.797,-555.231,0,0
318225,116.813,-554.478,0,0
318485,116.784,-553.881,0,0
318745,116.795,-553.197,0,0
319006,116.79,-552.498,0,0
319266,116.76,-551.841,0,0
319526,116.774,-551.171,0,0
319787,116.831,-550.516,0,0
320047,116.835,-549.891,0,0
320307,116.887,-549.239,0,0
320567,116.918,-548.622,0,0
320828,116.989,-548.091,0,0
321088,117.186,-547.42,0,0
321348,117.36,-546.838,0,0
321609,117.655,-546.331,0,0
321869,117.842,-545.942,0,0
322129,118.129,-545.598,0,0
322390,118.4,-545.315,0,0
322650,118.624,-545.151,0,0
322910,118.9,-544.965,0,0
323171,119.06,-544.967,0,0
323431,119.196,-545.056,0,0
323691,119.269,-545.156,0,0
323952,119.328,-545.32,0,0
324212,119.192,-545.571,0,0
324472,119.038,-545.908,0,0
324733,118.764,-546.157,0,0
324993,118.419,-546.477,0,0
325253,117.923,-546.74,0,0
325514,117.265,-547.03,0,0
325774,116.624,-547.144,0,0
326034,115.905,-547.324,0,0
326295,115.135,-547.412,0,0
326555,114.319,-547.393,0,0
326815,113.476,-547.378,0,0
327076,112.548,-547.26,0,0
327336,111.662,-547.118,0,0
327596,110.718,-546.967,0,0
327857,109.834,-546.608,0,0
328117,108.849,-546.398,0,0
328377,107.969,-546.071,0,0
328638,107.068,-545.649,0,0
328898,106.051,-545.209,0,0
329158,105.217,-544.744,0,0
329419,104.305,-544.189,0,0
329679,103.41,-543.628,0,0
329939,102.597,-543.169,0,0
330200,101.842,-542.568,0,0
330460,100.966,-542.02,0,0
330720.15,100.107,-541.429,0,0
330980.475,99.1664,-540.893,0,0
331240.8,98.3458,-540.314,0,0
331501.125,97.5026,-539.61,0,0
331761.45,96.6218,-539.001,0,0
332021.775,95.7443,-538.357,0,0
332282.1,94.941,-537.66,0,0
332542.425,93.9901,-536.953,0,0
332802.75,93.1549,-536.12,0,0
333063.075,92.239,-535.357,0,0
333323.4,91.3585,-534.553,0,0
333583.725,90.4784,-533.643,0,0
333844.05,89.5864,-532.761,0,0
334104.375,88.7314,-531.793,0,0
334364.7,87.8498,-530.81,0,0
334625.025,87.021,-529.744,0,0
334885.35,86.2821,-528.639,0,0
335145.675,85.5067,-527.551,0,0
335406.0,84.8001,-526.411,0,0
335666.325,84.1128,-525.271,0,0
335926.65,83.507,-524.086,0,0
336186.975,82.9077,-522.897,0,0
336447.3,82.3044,-521.692,0,0
336707.625,81.8123,-520.44,0,0
336967.95,81.3049,-519.221,0,0
337228.275,80.9017,-518.001,0,0
337488.6,80.4812,-516.807,0,0
337748.925,80.0263,-515.533,0,0
338009.25,79.6311,-514.231,0,0
338269.575,79.3401,-513.059,0,0
338529.9,78.9354,-511.747,0,0
338790.225,78.6542,-510.479,0,0
339050.55,78.3738,-509.143,0,0
339310.875,78.145,-507.766,0,0
339571.2,77.995,-506.425,0,0
339831.525,77.8704,-505.002,0,0
340091.85,77.8969,-503.649,0,0
340352.175,77.9066,-502.239,0,0
340612.5,78.0375,-500.882,0,0
340872.825,78.2433,-499.541,0,0
341133.15,78.495,-498.294,0,0
341393.475,78.8446,-497.017,0,0
341653.8,79.2682,-495.852,0,0
341914.125,79.7479,-494.773,0,0
342174.45,80.2469,-493.698,0,0
342434.775,80.7659,-492.759,0,0
342695.1,81.3838,-491.863,0,0
342955.425,81.8886,-491.146,0,0
343215.75,82.4644,-490.485,0,0
343476.075,82.9267,-489.891,0,0
343736.4,83.4206,-489.383,0,0
343996.725,83.8657,-488.974,0,0
344257.05,84.2221,-488.611,0,0
344517.375,84.4678,-488.246,0,0
344777.7,84.6347,-487.944,0,0
345038.025,84.8252,-487.633,0,0
345298.35,84.8673,-487.291,0,0
345558.675,84.8994,-486.899,0,0
345819.0,84.8636,-486.545,0,0
346079.325,84.8645,-486.121,0,0
346339.65,84.8691,-485.655,0,0
346599.975,84.7987,-485.225,0,0
346860,84.8168,-484.746,0,0
347121,84.6913,-484.418,0,0
347381,84.6621,-483.947,0,0
347641,84.4722,-483.516,0,0
347902,84.3027,-483.007,0,0
348162,84.1782,-482.465,0,0
348422,83.9397,-481.937,0,0
348683,83.7667,-481.258,0,0
348943,83.6145,-480.639,0,0
349203,83.4223,-479.923,0,0
349464,83.4473,-479.108,0,0
349724,83.3331,-478.341,0,0
349984,83.4749,-477.614,0,0
350245,83.6059,-476.787,0,0
350505,83.6941,-476.103,0,0
350765,83.9518,-475.349,0,0
351025,84.2438,-474.669,0,0
351286,84.5844,-474.069,0,0
351546,85.022,-473.567,0,0
351806,85.3772,-473.166,0,0
352067,85.7141,-472.927,0,0
352327,86.0351,-472.674,0,0
352587,86.2702,-472.509,0,0
352848,86.4318,-472.396,0,0
353108,86.5256,-472.401,0,0
353368,86.4937,-472.323,0,0
353629,86.4295,-472.237,0,0
353889,86.2173,-472.203,0,0
354149,85.9882,-472.005,0,0
354410,85.7278,-471.782,0,0
354670,85.4105,-471.522,0,0
354930,85.1678,-471.247,0,0
355191,84.7963,-470.925,0,0
355451,84.5312,-470.547,0,0
355711,84.2319,-470.161,0,0
355972,83.9128,-469.795,0,0
356232,83.6226,-469.324,0,0
356492,83.3234,-468.87,0,0
356753,82.9585,-468.437,0,0
357013,82.6422,-467.896,0,0
357273,82.2522,-467.38,0,0
357534,81.8832,-466.835,0,0
357794,81.5975,-466.164,0,0
358054,81.3658,-465.488,0,0
358315,81.0882,-464.808,0,0
358575,80.9127,-464.048,0,0
358835,80.7668,-463.388,0,0
359096,80.6222,-462.695,0,0
359356,80.65,-461.986,0,0
359616,80.5552,-461.365,0,0
359877,80.5186,-460.681,0,0
360137,80.5342,-460.062,0,0
360397,80.5231,-459.485,0,0
360658,80.5288,-458.9,0,0
360918,80.4623,-458.406,0,0
361178,80.4685,-457.827,0,0
361438,80.4507,-457.316,0,0
361699,80.3399,-456.743,0,0
361959,80.3162,-456.203,0,0
362219,80.1775,-455.687,0,0
362480,80.115,-455.057,0,0
362740.1,80.0319,-454.412,0,0
363000.425,80.001,-453.78,0,0
363260.75,80.0276,-453.071,0,0
363521.075,80.0988,-452.369,0,0
363781.4,80.2631,-451.684,0,0
364041.725,80.445,-451.07,0,0
364302.05,80.671,-450.495,0,0
364562.375,80.969,-449.916,0,0
364822.7,81.2972,-449.509,0,0
365083.025,81.5722,-449.075,0,0
365343.35,81.9455,-448.803,0,0
365603.675,82.24,-448.632,0,0
365864.0,82.4907,-448.527,0,0
366124.325,82.6068,-448.468,0,0
366384.65,82.6291,-448.44,0,0
366644.975,82.591,-448.482,0,0
366905.3,82.3694,-448.447,0,0
367165.625,82.1452,-448.336,0,0
367425.95,81.7963,-448.201,0,0
367686.275,81.4798,-448.054,0,0
367946.6,81.0935,-447.773,0,0
368206.925,80.6939,-447.574,0,0
368467.25,80.1847,-447.208,0,0
368727.575,79.6511,-446.731,0,0
368987.9,79.1412,-446.152,0,0
369248.225,78.643,-445.467,0,0
369508.55,78.2853,-444.682,0,0
369768.875,78.009,-443.787,0,0
370029.2,77.8988,-442.821,0,0
370289.525,77.9175,-441.927,0,0
370549.85,78.0364,-441.067,0,0
370810.175,78.2927,-440.318,0,0
371070.5,78.6088,-439.651,0,0
371330.825,78.923,-439.088,0,0
371591.15,79.3313,-438.661,0,0
371851.475,79.7067,-438.388,0,0
372111.8,79.9779,-438.173,0,0
372372.125,80.1531,-438.11,0,0
372632.45,80.2599,-438.072,0,0
372892.775,80.2206,-438.066,0,0
373153.1,80.0646,-438.024,0,0
373413.425,79.7985,-438.022,0,0
373673.75,79.4625,-437.834,0,0
373934.075,79.0698,-437.596,0,0
374194.4,78.6687,-437.336,0,0
374454.725,78.2432,-436.945,0,0
374715.05,77.8246,-436.452,0,0
374975.375,77.4302,-436.051,0,0
375235.7,77.0334,-435.449,0,0
375496.025,76.6813,-434.832,0,0
375756.35,76.3165,-434.213,0,0
376016.675,75.9987,-433.472,0,0
376277.0,75.7828,-432.674,0,0
376537.325,75.6449,-431.958,0,0
376797.65,75.5423,-431.138,0,0
377057.975,75.5063,-430.394,0,0
377318.3,75.5265,-429.664,0,0
377578.625,75.5798,-428.967,0,0
377838.95,75.687,-428.262,0,0
378099.275,75.7419,-427.652,0,0
378359.6,75.8922,-426.97,0,0
378619.925,76.0092,-426.409,0,0
378880,76.1508,-425.761,0,0
379141,76.3276,-425.206,0,0
379401,76.5271,-424.644,0,0
379661,76.7829,-424.164,0,0
379922,77.0704,-423.751,0,0
380182,77.3423,-423.393,0,0
380442,77.532,-423.086,0,0
380703,77.7332,-422.866,0,0
380963,77.7516,-422.676,0,0
381223,77.8459,-422.487,0,0
381483,77.8434,-422.205,0,0
381744,77.8472,-421.958,0,0
382004,77.814,-421.679,0,0
382264,77.7091,-421.437,0,0
382525,77.7103,-421.109,0,0
382785,77.6593,-420.775,0,0
383045,77.5753,-420.516,0,0
383306,77.5557,-420.244,0,0
383566,77.4916,-419.965,0,0
383826,77.3748,-419.74,0,0
384087,77.2351,-419.52,0,0
384347,77.046,-419.254,0,0
384607,76.8161,-418.959,0,0
384868,76.5959,-418.653,0,0
385128,76.3457,-418.303,0,0
385388,76.0655,-417.912,0,0
385649,75.8147,-417.537,0,0
385909,75.5356,-417.081,0,0
386169,75.2654,-416.613,0,0
386430,74.9877,-416.196,0,0
386690,74.7153,-415.697,0,0
386950,74.4979,-415.177,0,0
387211,74.1894,-414.607,0,0
387471,73.9544,-414.07,0,0
387731,73.6839,-413.464,0,0
387992,73.4403,-412.822,0,0
388252,73.2205,-412.168,0,0
388512,72.9583,-411.477,0,0
388773,72.7696,-410.78,0,0
389033,72.6143,-410.01,0,0
389293,72.4976,-409.223,0,0
389554,72.3971,-408.424,0,0
389814,72.3154,-407.583,0,0
390074,72.3203,-406.707,0,0
390335,72.3866,-405.898,0,0
390595,72.4517,-405.018,0,0
390855,72.5503,-404.179,0,0
391116,72.7903,-403.344,0,0
391376,73.0477,-402.471,0,0
391636,73.3237,-401.691,0,0
391896,73.6975,-400.914,0,0
392157,74.0864,-400.141,0,0
392417,74.5415,-399.483,0,0
392677,75.0146,-398.854,0,0
392938,75.5602,-398.269,0,0
393198,76.0466,-397.758,0,0
393458,76.5594,-397.29,0,0
393719,77.0827,-396.9,0,0
393979,77.5885,-396.547,0,0
394239,78.0665,-396.235,0,0
394500,78.5717,-395.99,0,0
394760.05,78.972,-395.776,0,0
395020.375,79.4299,-395.567,0,0
395280.7,79.8211,-395.372,0,0
395541.025,80.258,-395.249,0,0
395801.35,80.6316,-395.123,0,0
396061.675,80.9827,-395.003,0,0
396322.0,81.2891,-394.99,0,0
396582.325,81.6554,-394.962,0,0
396842.65,81.9779,-394.96,0,0
397102.975,82.2457,-394.993,0,0
397363.3,82.432,-395.074,0,0
397623.625,82.6162,-395.147,0,0
397883.95,82.7842,-395.246,0,0
398144.275,82.8653,-395.37,0,0
398404.6,82.856,-395.503,0,0
398664.925,82.8566,-395.593,0,0
398925.25,82.8109,-395.632,0,0
399185.575,82.7109,-395.68,0,0
399445.9,82.6072,-395.743,0,0
399706.225,82.4633,-395.773,0,0
399966.55,82.3247,-395.785,0,0
400006.6,82.3579,-395.847,0,0