File: Accelerated corrosion test data/2025-10-17_18-00-03/sample_8.csv
Frequency (Hz),Impedance (ohms),Phase (Radians),Temperature (C),Humidity (%)
10000.0,309.702,-10987.9,0,0
10260.325,301.613,-10712.7,0,0
10520.65,294.345,-10450.8,0,0
10780.975,287.278,-10201.7,0,0
11041.3,280.799,-9963.96,0,0
11301.625,274.3,-9737.89,0,0
11561.95,268.315,-9520.36,0,0
11822.275,262.569,-9313,0,0
12082.6,260.331,-9112.91,0,0
12342.925,256.758,-8926.36,0,0
12603.25,252.384,-8744.62,0,0
12863.575,248.609,-8573.15,0,0
13123.9,240.509,-8408.74,0,0
13384.225,234.904,-8246.04,0,0
13644.55,232.392,-8091.62,0,0
13904.875,224.418,-7942.63,0,0
14165.2,219.096,-7796.79,0,0
14425.525,215.532,-7658.39,0,0
14685.8,210.491,-7523.5,0,0
14946.175,207.012,-7393.09,0,0
15206.5,203.594,-7267.7,0,0
15466.825,200.81,-7147.1,0,0
15727.15,197.219,-7029.79,0,0
15987.5,193.985,-6916.85,0,0
16247.8,191.135,-6806.76,0,0
16508.125,188.284,-6700.35,0,0
16768.45,184.779,-6597.04,0,0
17028.775,181.954,-6497.04,0,0
17289.1,179.347,-6399.84,0,0
17549.425,176.926,-6304.92,0,0
17809.75,174.689,-6213.28,0,0
18070.075,171.908,-6125.25,0,0
18330.4,169.755,-6038.13,0,0
18590.725,168.005,-5952.35,0,0
18851.05,168.288,-5869.15,0,0
19111.375,166.858,-5789.79,0,0
19371.7,168.526,-5714.22,0,0
19632.025,166.137,-5641.32,0,0
19892.35,162.717,-5570.79,0,0
20152.675,159.965,-5497.88,0,0
20413.0,159.753,-5427.72,0,0
20673.3,160.185,-5360.46,0,0
20933.65,156.823,-5297.84,0,0
21193.975,152.927,-5233.98,0,0
21454.3,150.976,-5169.63,0,0
21714.625,149.169,-5107.09,0,0
21974.9,148.511,-5047.42,0,0
22235.275,148.648,-4988.83,0,0
22495.6,146.941,-4932.51,0,0
22755.925,145.453,-4878.48,0,0
23016.25,143.667,-4823.92,0,0
23276.6,139.199,-4771.34,0,0
23536.9,136.81,-4718.18,0,0
23797.225,135.747,-4667.01,0,0
24057.55,134.078,-4615.68,0,0
24317.875,131.809,-4566.42,0,0
24578.2,129.439,-4518.29,0,0
24838.525,128.468,-4469.59,0,0
25098.85,127.074,-4423.59,0,0
25359.175,125.762,-4377.95,0,0
25619.5,125.09,-4333.03,0,0
25879.8,123.725,-4288.89,0,0
26140.1,123.195,-4246.83,0,0
26400.5,121.492,-4204.91,0,0
26660.8,120.496,-4163.34,0,0
26921.1,119.861,-4122.1,0,0
27181.4,120.003,-4083.26,0,0
27441.8,118.988,-4043.67,0,0
27702.1,117.806,-4006.66,0,0
27962.4,116.174,-3969.18,0,0
28222.7,117.134,-3931.94,0,0
28483.1,115.964,-3896.33,0,0
28743.4,115.58,-3860.58,0,0
29003.7,114.537,-3826.38,0,0
29264,114.578,-3792.34,0,0
29524.4,113.641,-3758.79,0,0
29784.7,113.09,-3725.89,0,0
30045,112.071,-3694.04,0,0
30305.3,111.702,-3663.21,0,0
30565.7,110.364,-3632.08,0,0
30826,109.198,-3600.97,0,0
31086.3,108.117,-3570.71,0,0
31346.6,107.098,-3540.34,0,0
31607,106.403,-3511.04,0,0
31867.3,106.071,-3481.48,0,0
32127.6,105.108,-3452.95,0,0
32387.9,104.988,-3424.39,0,0
32648.3,104.757,-3396.32,0,0
32908.6,105.342,-3369.15,0,0
33168.9,104.55,-3342.09,0,0
33429.2,105.167,-3315.62,0,0
33689.6,105.49,-3289.78,0,0
33949.9,105.5,-3264.66,0,0
34210.2,105.728,-3239.78,0,0
34470.5,105.727,-3215.33,0,0
34730.9,106.145,-3190.97,0,0
34991.2,107.122,-3167.34,0,0
35251.5,107.849,-3144.53,0,0
35511.8,108.552,-3122.45,0,0
35772.2,109.288,-3100.74,0,0
36032.5,109.417,-3080.46,0,0
36292.8,109.148,-3059.4,0,0
36553.1,108.484,-3039.33,0,0
36813.5,107.681,-3019.68,0,0
37073.8,107.104,-2999.65,0,0
37334.1,105.703,-2980.37,0,0
37594.4,103.651,-2961.31,0,0
37854.8,101.893,-2941.75,0,0
38115.1,100.023,-2922.6,0,0
38375.4,97.7491,-2903.17,0,0
38635.7,95.8453,-2883.75,0,0
38896.1,93.8952,-2864.3,0,0
39156.4,92.0963,-2844.48,0,0
39416.7,90.6763,-2825.03,0,0
39677,89.4343,-2805.93,0,0
39937.4,87.9439,-2786.79,0,0
40197.7,87.2718,-2767.51,0,0
40458,87.0562,-2748.97,0,0
40718.3,86.8762,-2731.14,0,0
40978.7,86.0062,-2713.59,0,0
41239,85.1353,-2696.23,0,0
41499.3,84.5401,-2678.57,0,0
41759.6,84.0028,-2661.77,0,0
42020,83.2499,-2644.83,0,0
42280.275,82.5186,-2627.94,0,0
42540.6,82.1876,-2610.95,0,0
42800.925,81.7172,-2594.5,0,0
43061.25,82.1291,-2578.16,0,0
43321.575,82.0296,-2562.9,0,0
43581.9,82.0237,-2547.71,0,0
43842.225,81.3822,-2533.11,0,0
44102.55,80.3636,-2518.27,0,0
44362.875,79.3646,-2503.07,0,0
44623.2,78.7466,-2488.28,0,0
44883.525,77.802,-2473.38,0,0
45143.85,77.5715,-2458.39,0,0
45404.175,76.6926,-2443.99,0,0
45664.5,76.1876,-2429.75,0,0
45924.825,75.7944,-2415.43,0,0
46185.15,75.1484,-2401.48,0,0
46445.475,74.4741,-2387.36,0,0
46705.8,74.0924,-2373.67,0,0
46966.125,73.8261,-2359.86,0,0
47226.45,73.651,-2346.52,0,0
47486.775,72.8091,-2332.85,0,0
47747.1,72.6756,-2320.05,0,0
48007.425,72.3041,-2307.04,0,0
48267.75,71.9985,-2294.02,0,0
48528.075,71.9393,-2281.31,0,0
48788.4,71.3153,-2269.13,0,0
49048.725,70.6157,-2256.54,0,0
49309.05,70.3003,-2244.21,0,0
49569.375,69.8276,-2231.78,0,0
49829.7,69.2644,-2219.52,0,0
50090.025,69.0586,-2207.37,0,0
50350.35,68.7792,-2195.49,0,0
50610.675,68.5326,-2183.54,0,0
50871.0,68.1808,-2171.92,0,0
51131.325,67.9837,-2160.28,0,0
51391.65,67.7647,-2148.6,0,0
51651.975,67.8289,-2137.26,0,0
51912.3,67.6408,-2126.17,0,0
52172.625,67.5269,-2115.11,0,0
52432.95,67.2066,-2104.21,0,0
52693.275,67.2517,-2093.06,0,0
52953.6,67.393,-2082.5,0,0
53213.925,67.3703,-2071.94,0,0
53474.25,67.4432,-2061.64,0,0
53734.575,67.5976,-2051.82,0,0
53994.9,67.127,-2042.35,0,0
54255.225,66.2923,-2032.48,0,0
54515.55,65.7216,-2022.37,0,0
54775.875,65.1996,-2012.38,0,0
55036.2,64.7349,-2002.63,0,0
55296.525,63.9401,-1992.9,0,0
55556.85,63.2837,-1982.9,0,0
55817.175,62.759,-1973.03,0,0
56077.5,62.2746,-1963.3,0,0
56337.825,61.7244,-1953.47,0,0
56598.15,61.3548,-1943.61,0,0
56858.475,61.0994,-1933.98,0,0
57118.8,60.9173,-1924.43,0,0
57379.125,60.7057,-1914.98,0,0
57639.45,60.5478,-1905.72,0,0
57899.775,60.2909,-1896.56,0,0
58160.1,60.1127,-1887.31,0,0
58420.4,59.9686,-1878.34,0,0
58680.7,59.9264,-1869.38,0,0
58941.1,59.9344,-1860.62,0,0
59201.4,59.7158,-1851.91,0,0
59461.7,59.5149,-1843.46,0,0
59722,59.2371,-1834.78,0,0
59982.4,58.9908,-1826.3,0,0
60242.7,58.5974,-1817.85,0,0
60503,58.3264,-1809.25,0,0
60763.3,58.1965,-1800.67,0,0
61023.7,58.0532,-1792.24,0,0
61284,57.9806,-1783.89,0,0
61544.3,58.0003,-1775.69,0,0
61804.6,58.0472,-1767.59,0,0
62065,57.6903,-1759.76,0,0
62325.3,57.6805,-1751.55,0,0
62585.6,57.5741,-1743.51,0,0
62845.9,57.6346,-1735.49,0,0
63106.3,57.7825,-1727.72,0,0
63366.6,58.0614,-1719.93,0,0
63626.9,58.1141,-1712.45,0,0
63887.2,58.265,-1704.92,0,0
64147.6,58.4252,-1697.47,0,0
64407.9,58.6383,-1690.47,0,0
64668.2,58.5893,-1683.57,0,0
64928.5,58.5218,-1676.36,0,0
65188.9,58.4177,-1669.42,0,0
65449.2,58.2074,-1662.63,0,0
65709.5,57.8499,-1655.42,0,0
65969.8,57.8715,-1648.66,0,0
66230.2,57.556,-1641.99,0,0
66490.5,57.0268,-1635.28,0,0
66750.8,56.423,-1628.29,0,0
67011.1,56.0978,-1621.11,0,0
67271.5,55.8214,-1614.13,0,0
67531.8,55.6574,-1607.11,0,0
67792.1,55.5372,-1600.3,0,0
68052.4,55.3976,-1593.51,0,0
68312.8,55.1143,-1586.83,0,0
68573.1,54.894,-1580.03,0,0
68833.4,54.7524,-1573.24,0,0
69093.7,54.5904,-1566.63,0,0
69354.1,54.6421,-1559.92,0,0
69614.4,54.5853,-1553.27,0,0
69874.7,54.6854,-1546.92,0,0
70135,54.5864,-1540.47,0,0
70395.4,54.5746,-1534.16,0,0
70655.7,54.5158,-1527.75,0,0
70916,54.5284,-1521.54,0,0
71176.3,54.5855,-1515.34,0,0
71436.7,54.5576,-1509.04,0,0
71697,54.7932,-1502.96,0,0
71957.3,54.9146,-1497.16,0,0
72217.6,54.8531,-1491.3,0,0
72478,54.7295,-1485.43,0,0
72738.3,54.5798,-1479.7,0,0
72998.6,54.4627,-1473.88,0,0
73258.9,54.1177,-1468,0,0
73519.3,54.0923,-1462.03,0,0
73779.6,54.0837,-1456.34,0,0
74039.9,53.9303,-1450.64,0,0
74300.225,53.7425,-1444.96,0,0
74560.55,53.4879,-1439.32,0,0
74820.875,53.3091,-1433.57,0,0
75081.2,53.1877,-1427.8,0,0
75341.525,53.1203,-1422.06,0,0
75601.85,53.0184,-1416.5,0,0
75862.175,52.9362,-1410.88,0,0
76122.5,52.9037,-1405.21,0,0
76382.825,52.9092,-1399.74,0,0
76643.15,52.9657,-1394.35,0,0
76903.475,52.9141,-1388.96,0,0
77163.8,52.7931,-1383.62,0,0
77424.125,52.6722,-1378.3,0,0
77684.45,52.5717,-1372.98,0,0
77944.775,52.4696,-1367.68,0,0
78205.1,52.4138,-1362.42,0,0
78465.425,52.2208,-1357.16,0,0
78725.75,52.0111,-1351.89,0,0
78986.075,51.9477,-1346.56,0,0
79246.4,51.8318,-1341.4,0,0
79506.725,51.7124,-1336.13,0,0
79767.05,51.5706,-1330.83,0,0
80027.375,51.5612,-1325.58,0,0
80287.7,51.546,-1320.45,0,0
80548.025,51.5003,-1315.28,0,0
80808.35,51.4597,-1310.13,0,0
81068.675,51.4211,-1304.96,0,0
81329.0,51.5032,-1299.74,0,0
81589.325,51.5467,-1294.64,0,0
81849.65,51.6686,-1289.53,0,0
82109.975,51.8662,-1284.41,0,0
82370.3,52.1095,-1279.53,0,0
82630.625,52.2033,-1274.6,0,0
82890.95,52.468,-1269.67,0,0
83151.275,52.6943,-1264.88,0,0
83411.6,52.7313,-1260.06,0,0
83671.925,53.0146,-1255.14,0,0
83932.25,53.3317,-1250.36,0,0
84192.575,53.6876,-1245.81,0,0
84452.9,53.9685,-1241.08,0,0
84713.225,54.4625,-1236.57,0,0
84973.55,54.8619,-1232.35,0,0
85233.875,54.8486,-1228.4,0,0
85494.2,54.5332,-1224.08,0,0
85754.525,54.3527,-1219.63,0,0
86014.85,54.0833,-1215.1,0,0
86275.175,53.9646,-1210.33,0,0
86535.5,53.9152,-1205.71,0,0
86795.825,53.9975,-1200.88,0,0
87056.15,54.2515,-1196.18,0,0
87316.475,54.5186,-1191.85,0,0
87576.8,54.5555,-1187.42,0,0
87837.125,54.6583,-1182.86,0,0
88097.45,54.7875,-1178.39,0,0
88357.775,54.9063,-1173.9,0,0
88618.1,55.1155,-1169.47,0,0
88878.425,55.1963,-1165.13,0,0
89138.75,55.2826,-1160.65,0,0
89399.075,55.4406,-1156.03,0,0
89659.4,55.6801,-1151.4,0,0
89919.725,55.987,-1146.85,0,0
90180,56.4149,-1142.36,0,0
90440.4,56.9385,-1137.81,0,0
90700.7,57.3021,-1133.28,0,0
90961,57.9297,-1128.79,0,0
91221.3,58.7055,-1124.26,0,0
91481.7,59.8199,-1120.04,0,0
91742,60.7619,-1116.09,0,0
92002.3,61.5105,-1112.26,0,0
92262.6,62.1881,-1108.4,0,0
92523,63.0282,-1104.67,0,0
92783.3,63.6571,-1101.06,0,0
93043.6,64.5272,-1097.46,0,0
93303.9,65.092,-1094.35,0,0
93564.3,65.3102,-1091.11,0,0
93824.6,65.2899,-1087.74,0,0
94084.9,65.1011,-1084.08,0,0
94345.2,65.2561,-1080.16,0,0
94605.6,65.1998,-1076.27,0,0
94865.9,65.6142,-1072.16,0,0
95126.2,65.8596,-1068.32,0,0
95386.5,66.1705,-1064.29,0,0
95646.9,66.7285,-1060.35,0,0
95907.2,67.1346,-1056.47,0,0
96167.5,67.6263,-1052.57,0,0
96427.8,68.0277,-1048.55,0,0
96688.2,68.9919,-1044.46,0,0
96948.5,69.8769,-1040.71,0,0
97208.8,70.6905,-1037.06,0,0
97469.1,71.5551,-1033.35,0,0
97729.5,72.5579,-1029.71,0,0
97989.8,73.5596,-1026.2,0,0
98250.1,74.6325,-1022.75,0,0
98510.4,75.7042,-1019.39,0,0
98770.8,76.9356,-1016.12,0,0
99031.1,78.1851,-1013.17,0,0
99291.4,79.1986,-1010.49,0,0
99551.7,79.9413,-1007.79,0,0
99812.1,80.6263,-1004.87,0,0
100072,81.4956,-1001.98,0,0
100333,82.4541,-999.166,0,0
100593,83.3467,-996.503,0,0
100853,84.1907,-993.945,0,0
101114,85.034,-991.583,0,0
101374,85.672,-989.231,0,0
101634,86.3136,-986.918,0,0
101895,86.8382,-984.789,0,0
102155,87.1611,-982.618,0,0
102415,87.3457,-980.444,0,0
102676,87.5163,-978.268,0,0
102936,87.5808,-976.219,0,0
103196,87.3497,-974.088,0,0
103457,86.9486,-971.708,0,0
103717,86.5608,-969.096,0,0
103977,86.3284,-966.351,0,0
104238,86.2877,-963.635,0,0
104498,86.2459,-961.09,0,0
104758,86.0565,-958.589,0,0
105019,85.6954,-955.99,0,0
105279,85.3115,-953.238,0,0
105539,85.0309,-950.337,0,0
105800,84.8441,-947.437,0,0
106060,84.7193,-944.486,0,0
106320.175,84.6831,-941.534,0,0
106580.5,84.7043,-938.617,0,0
106840.825,84.8166,-935.762,0,0
107101.15,84.9506,-932.995,0,0
107361.475,85.049,-930.338,0,0
107621.8,84.947,-927.832,0,0
107882.125,84.7489,-925.122,0,0
108142.45,84.4789,-922.269,0,0
108402.775,84.3689,-919.282,0,0
108663.1,84.385,-916.297,0,0
108923.425,84.3898,-913.345,0,0
109183.75,84.5249,-910.34,0,0
109444.075,84.7946,-907.462,0,0
109704.4,85.0647,-904.696,0,0
109964.725,85.3206,-901.881,0,0
110225.05,85.6224,-899.251,0,0
110485.375,85.8313,-896.721,0,0
110745.7,86.0967,-894.196,0,0
111006.025,86.1799,-891.766,0,0
111266.35,86.2342,-889.161,0,0
111526.675,86.3087,-886.397,0,0
111787.0,86.6085,-883.821,0,0
112047.325,86.8276,-881.388,0,0
112307.65,86.9619,-879.013,0,0
112567.975,87.0126,-876.586,0,0
112828.3,87.0326,-874.17,0,0
113088.625,87.1174,-871.661,0,0
113348.95,87.2211,-869.317,0,0
113609.275,87.2223,-867.019,0,0
113869.6,87.1898,-864.656,0,0
114129.925,87.0455,-862.294,0,0
114390.25,86.8113,-859.813,0,0
114650.575,86.7759,-857.253,0,0
114910.9,86.7217,-854.789,0,0
115171.225,86.7282,-852.321,0,0
115431.55,86.8283,-850.045,0,0
115691.875,86.6758,-847.924,0,0
115952.2,86.2738,-845.696,0,0
116212.525,85.8392,-843.249,0,0
116472.85,85.4339,-840.716,0,0
116733.175,85.0115,-838.074,0,0
116993.5,84.7064,-835.239,0,0
117253.825,84.6379,-832.423,0,0
117514.15,84.6737,-829.698,0,0
117774.475,84.7352,-827.17,0,0
118034.8,84.7047,-824.696,0,0
118295.125,84.6276,-822.235,0,0
118555.45,84.4627,-819.709,0,0
118815.775,84.3642,-817.158,0,0
119076.1,84.3014,-814.63,0,0
119336.425,84.2457,-812.271,0,0
119596.75,83.962,-809.841,0,0
119857.075,83.6968,-807.34,0,0
120117.4,83.4582,-804.782,0,0
120377.725,83.1836,-802.162,0,0
120638.05,82.9457,-799.534,0,0
120898.375,82.774,-796.798,0,0
121158.7,82.668,-794.143,0,0
121419.025,82.5362,-791.562,0,0
121679.35,82.3516,-788.903,0,0
121939.675,82.2251,-786.269,0,0
122200.0,82.1064,-783.59,0,0
122460,82.0627,-780.926,0,0
122721,81.9728,-778.394,0,0
122981,81.7644,-775.792,0,0
123241,81.5695,-773.113,0,0
123502,81.3978,-770.405,0,0
123762,81.3007,-767.687,0,0
124022,81.1733,-764.943,0,0
124283,81.0755,-762.154,0,0
124543,81.073,-759.435,0,0
124803,80.9945,-756.702,0,0
125064,80.9994,-754,0,0
125324,80.9526,-751.272,0,0
125584,80.8902,-748.536,0,0
125845,80.8666,-745.775,0,0
126105,80.7748,-742.949,0,0
126365,80.7737,-740.084,0,0
126626,80.8809,-737.217,0,0
126886,81.056,-734.384,0,0
127146,81.2059,-731.67,0,0
127406,81.3769,-728.886,0,0
127667,81.4881,-726.127,0,0
127927,81.6512,-723.331,0,0
128187,81.9145,-720.577,0,0
128448,82.0871,-717.849,0,0
128708,82.3976,-715.1,0,0
128968,82.6668,-712.445,0,0
129229,82.9193,-709.809,0,0
129489,83.1305,-707.254,0,0
129749,83.2869,-704.666,0,0
130010,83.3354,-702.017,0,0
130270,83.4316,-699.195,0,0
130530,83.6888,-696.348,0,0
130791,84.0895,-693.562,0,0
131051,84.4643,-690.927,0,0
131311,84.8798,-688.257,0,0
131572,85.3159,-685.746,0,0
131832,85.567,-683.358,0,0
132092,85.7296,-680.846,0,0
132353,85.9234,-678.292,0,0
132613,86.0937,-675.742,0,0
132873,86.2729,-673.215,0,0
133134,86.3709,-670.65,0,0
133394,86.3981,-668.005,0,0
133654,86.4367,-665.249,0,0
133915,86.558,-662.437,0,0
134175,86.7711,-659.59,0,0
134435,87.0361,-656.767,0,0
134696,87.2654,-653.929,0,0
134956,87.5741,-650.939,0,0
135216,88.1305,-648.034,0,0
135477,88.7319,-645.297,0,0
135737,89.3285,-642.541,0,0
135997,90.0505,-639.915,0,0
136258,90.7806,-637.63,0,0
136518,91.2259,-635.333,0,0
136778,91.596,-633.174,0,0
137039,91.6417,-631.088,0,0
137299,91.5107,-628.723,0,0
137559,91.3096,-626.259,0,0
137819,91.0406,-623.641,0,0
138080,90.6943,-620.832,0,0
138340.125,90.3743,-617.741,0,0
138600.45,90.2774,-614.438,0,0
138860.775,90.3959,-611.087,0,0
139121.1,90.6986,-607.721,0,0
139381.425,91.1569,-604.503,0,0
139641.75,91.5061,-601.354,0,0
139902.075,91.9208,-598.072,0,0
140162.4,92.4905,-594.822,0,0
140422.725,93.0811,-591.702,0,0
140683.05,93.5742,-588.638,0,0
140943.375,94.0714,-585.41,0,0
141203.7,94.7093,-582.192,0,0
141464.025,95.3369,-579.09,0,0
141724.35,95.8565,-575.964,0,0
141984.675,96.3309,-572.722,0,0
142245.0,96.8712,-569.326,0,0
142505.325,97.5464,-565.907,0,0
142765.65,98.285,-562.509,0,0
143025.975,99.0474,-559.08,0,0
143286.3,99.7907,-555.515,0,0
143546.625,100.789,-551.897,0,0
143806.95,101.848,-548.439,0,0
144067.275,102.857,-544.983,0,0
144327.6,103.851,-541.453,0,0
144587.925,104.885,-537.799,0,0
144848.25,106.122,-534,0,0
145108.575,107.574,-530.215,0,0
145368.9,109.172,-526.559,0,0
145629.225,110.848,-522.867,0,0
145889.55,112.687,-519.366,0,0
146149.875,114.444,-515.949,0,0
146410.2,116.188,-512.432,0,0
146670.525,118.156,-508.858,0,0
146930.85,120.266,-505.42,0,0
147191.175,122.462,-502.143,0,0
147451.5,124.635,-499.051,0,0
147711.825,126.566,-496.108,0,0
147972.15,128.291,-492.956,0,0
148232.475,129.975,-489.454,0,0
148492.8,131.906,-485.661,0,0
148753.125,134.221,-481.711,0,0
149013.45,136.877,-477.812,0,0
149273.775,139.801,-473.992,0,0
149534.1,142.932,-470.13,0,0
149794.425,146.368,-466.543,0,0
150054.75,150.077,-462.967,0,0
150315.075,154.067,-459.536,0,0
150575.4,158.411,-456.377,0,0
150835.725,163.099,-453.541,0,0
151096.05,168.12,-450.968,0,0
151356.375,173.619,-449.192,0,0
151616.7,178.996,-448.337,0,0
151877.025,183.86,-448.127,0,0
152137.35,188.462,-448.249,0,0
152397.675,192.655,-448.948,0,0
152658.0,196.284,-449.817,0,0
152918.325,199.102,-450.523,0,0
153178.65,201.997,-451.099,0,0
153438.975,204.517,-452.151,0,0
153699.3,206.423,-453.032,0,0
153959.625,207.887,-453.705,0,0
154219.95,209.321,-454.112,0,0
154480,210.066,-454.433,0,0
154741,210.47,-453.759,0,0
155001,211.507,-451.966,0,0
155261,213.898,-450.191,0,0
155522,216.905,-448.999,0,0
155782,220.476,-448.563,0,0
156042,224.092,-449.855,0,0
156303,226.686,-451.713,0,0
156563,228.446,-454.351,0,0
156823,228.584,-457.136,0,0
157084,227.098,-459.206,0,0
157344,224.861,-459.709,0,0
157604,222.733,-458.829,0,0
157864,220.982,-456.863,0,0
158125,220.163,-454.068,0,0
158385,220.428,-450.848,0,0
158645,221.612,-447.88,0,0
158906,223.405,-445.322,0,0
159166,225.872,-443.259,0,0
159426,228.632,-442.439,0,0
159687,230.826,-442.455,0,0
159947,232.261,-442.947,0,0
160207,232.617,-443.535,0,0
160468,232.192,-443.613,0,0
160728,231.082,-442.993,0,0
160988,229.89,-441.144,0,0
161249,229.303,-438.525,0,0
161509,229.159,-435.293,0,0
161769,230.062,-431.834,0,0
162030,231.865,-428.55,0,0
162290,234.015,-425.857,0,0
162550,236.505,-423.5,0,0
162811,239.089,-421.599,0,0
163071,241.795,-420.165,0,0
163331,244.409,-419.089,0,0
163592,246.771,-418.539,0,0
163852,248.965,-417.824,0,0
164112,250.904,-417.469,0,0
164373,252.628,-416.827,0,0
164633,254.762,-416.36,0,0
164893,256.836,-416.316,0,0
165154,258.773,-416.683,0,0
165414,260.534,-417.569,0,0
165674,261.761,-419.06,0,0
165935,261.806,-420.772,0,0
166195,260.895,-422.075,0,0
166455,259.5,-422.85,0,0
166716,257.511,-423.083,0,0
166976,254.91,-422.483,0,0
167236,252.343,-420.615,0,0
167497,250.493,-417.952,0,0
167757,249.33,-415.112,0,0
168017,248.436,-412.193,0,0
168277,247.843,-409.309,0,0
168538,247.29,-406.498,0,0
168798,246.602,-403.581,0,0
169058,246.005,-400.214,0,0
169319,245.71,-396.408,0,0
169579,246.036,-392.555,0,0
169839,246.65,-388.87,0,0
170100,247.34,-385.419,0,0
170360.075,247.897,-381.992,0,0
170620.4,248.628,-378.536,0,0
170880.725,249.394,-375.214,0,0
171141.05,249.755,-371.892,0,0
171401.375,249.73,-367.984,0,0
171661.7,249.923,-362.991,0,0
171922.025,251.252,-357.421,0,0
172182.35,253.55,-352.143,0,0
172442.675,256.514,-347.454,0,0
172703.0,259.65,-343.465,0,0
172963.325,262.568,-339.597,0,0
173223.65,265.847,-335.871,0,0
173483.975,269.226,-332.64,0,0
173744.3,272.636,-329.786,0,0
174004.625,275.784,-327.496,0,0
174264.95,278.54,-325.496,0,0
174525.275,280.757,-323.837,0,0
174785.6,282.062,-321.905,0,0
175045.925,282.786,-319.181,0,0
175306.25,283.55,-315.793,0,0
175566.575,284.21,-311.928,0,0
175826.9,285.008,-307.052,0,0
176087.225,286.381,-301.392,0,0
176347.55,288.939,-295.511,0,0
176607.875,292.256,-289.679,0,0
176868.2,296.168,-284.343,0,0
177128.525,300.178,-279.557,0,0
177388.85,303.914,-274.87,0,0
177649.175,307.556,-269.841,0,0
177909.5,311.525,-264.175,0,0
178169.825,316.414,-258.432,0,0
178430.15,321.823,-253.053,0,0
178690.475,327.403,-247.944,0,0
178950.8,333.155,-242.836,0,0
179211.125,339.291,-237.637,0,0
179471.45,346.291,-232.481,0,0
179731.775,353.438,-227.927,0,0
179992.1,361.017,-222.988,0,0
180252.425,369.818,-218.606,0,0
180512.75,378.839,-215.357,0,0
180773.075,387.796,-212.489,0,0
181033.4,397.142,-210.324,0,0
181293.725,406.088,-208.825,0,0
181554.05,415.031,-207.522,0,0
181814.375,424.202,-206.516,0,0
182074.7,433.714,-206.22,0,0
182335.025,443.055,-206.836,0,0
182595.35,452.179,-208.085,0,0
182855.675,460.676,-210.104,0,0
183116.0,468.567,-212.466,0,0
183376.325,475.628,-215.337,0,0
183636.65,481.73,-218.052,0,0
183896.975,487.041,-220.635,0,0
184157.3,491.79,-222.066,0,0
184417.625,496.814,-222.901,0,0
184677.95,502.213,-223.391,0,0
184938.275,507.631,-223.717,0,0
185198.6,513.431,-223.74,0,0
185458.925,519.994,-223.857,0,0
185719.25,526.68,-224.971,0,0
185979.575,532.529,-225.568,0,0
186239.9,539.203,-225.537,0,0
186500,546.74,-226.415,0,0
186761,553.429,-228.199,0,0
187021,559.668,-229.517,0,0
187281,565.94,-230.655,0,0
187542,572.174,-231.693,0,0
187802,578.608,-232.376,0,0
188062,585.626,-232.814,0,0
188322,593.452,-233.573,0,0
188583,601.623,-235.253,0,0
188843,609.605,-237.751,0,0
189103,616.908,-240.989,0,0
189364,623.217,-243.912,0,0
189624,629.3,-246.179,0,0
189884,635.593,-247.926,0,0
190145,641.976,-249.539,0,0
190405,648.45,-250.493,0,0
190665,655.657,-250.747,0,0
190926,664.319,-250.673,0,0
191186,674.725,-251.598,0,0
191446,685.474,-254.418,0,0
191707,695.51,-258.433,0,0
191967,704.81,-262.982,0,0
192227,713.262,-267.607,0,0
192488,721.206,-271.979,0,0
192748,728.297,-275.477,0,0
193008,736.001,-276.932,0,0
193269,746.184,-277.551,0,0
193529,758.285,-278.971,0,0
193789,771.964,-281.463,0,0
194050,787.029,-285.891,0,0
194310,802.432,-292.286,0,0
194570,818.12,-300.218,0,0
194831,833.663,-310.442,0,0
195091,848.112,-322.171,0,0
195351,861.695,-334.734,0,0
195612,875.333,-347.799,0,0
195872,889.162,-362.398,0,0
196132,902.222,-378.99,0,0
196393,914.011,-397.485,0,0
196653,923.874,-416.678,0,0
196913,932.444,-436.64,0,0
197174,939.65,-457.247,0,0
197434,945.936,-478.35,0,0
197694,950.812,-500.772,0,0
197955,953.284,-524.001,0,0
198215,953.269,-546.78,0,0
198475,951.549,-568.632,0,0
198735,948.795,-589.659,0,0
198996,945.153,-610.034,0,0
199256,940.783,-629.814,0,0
199516,936.204,-649.864,0,0
199777,930.083,-670.383,0,0
200037,921.879,-690.958,0,0
200297,911.712,-710.198,0,0
200558,900.139,-728.109,0,0
200818,887.68,-744.061,0,0
201078,875.206,-758.255,0,0
201339,863.453,-771.791,0,0
201599,851.602,-785.62,0,0
201859,838.491,-799.706,0,0
202120,823.616,-813.412,0,0
202380.025,806.594,-825.539,0,0
202640.35,787.727,-835.047,0,0
202900.675,768.923,-840.889,0,0
203161.0,751.71,-844.088,0,0
203421.325,736.258,-845.873,0,0
203681.65,722.561,-847.268,0,0
203941.975,709.597,-848.602,0,0
204202.3,697.049,-849.711,0,0
204462.625,685.239,-850.347,0,0
204722.95,674.074,-850.858,0,0
204983.275,662.876,-851.601,0,0
205243.6,651.22,-851.853,0,0
205503.925,639.739,-851.579,0,0
205764.25,628.051,-850.335,0,0
206024.575,616.403,-848.059,0,0
206284.9,605.171,-844.238,0,0
206545.225,595.147,-838.893,0,0
206805.55,586.975,-832.403,0,0
207065.875,580.852,-825.861,0,0
207326.2,576.392,-819.832,0,0
207586.525,573.32,-814.558,0,0
207846.85,571.082,-810.047,0,0
208107.175,569.709,-806.488,0,0
208367.5,568.836,-804.326,0,0
208627.825,567.498,-803.252,0,0
208888.15,565.492,-802.633,0,0
209148.475,563.02,-802.022,0,0
209408.8,560.502,-801.026,0,0
209669.125,558.309,-799.9,0,0
209929.45,556.517,-798.598,0,0
210189.775,555.127,-797.66,0,0
210450.1,554.234,-797.251,0,0
210710.425,553.114,-797.216,0,0
210970.75,552.093,-797.401,0,0
211231.075,550.982,-797.827,0,0
211491.4,549.931,-798.282,0,0
211751.725,549.163,-798.974,0,0
212012.05,548.466,-800.103,0,0
212272.375,547.717,-801.601,0,0
212532.7,546.89,-803.288,0,0
212793.025,545.977,-805.591,0,0
213053.35,544.713,-808.068,0,0
213313.675,543.136,-810.757,0,0
213574.0,541.472,-813.416,0,0
213834.325,539.575,-816.396,0,0
214094.65,537.27,-819.408,0,0
214354.975,534.652,-822.426,0,0
214615.3,531.882,-825.193,0,0
214875.625,529.237,-828.155,0,0
215135.95,526.295,-831.104,0,0
215396.275,523.237,-834.212,0,0
215656.6,519.672,-837.45,0,0
215916.925,515.814,-840.524,0,0
216177.25,511.676,-843.456,0,0
216437.575,507.233,-846.267,0,0
216697.9,502.604,-848.662,0,0
216958.225,497.883,-850.718,0,0
217218.55,493.296,-852.585,0,0
217478.875,488.689,-854.332,0,0
217739.2,484.216,-856.038,0,0
217999.525,479.576,-857.809,0,0
218259.85,474.737,-859.367,0,0
218520,469.79,-860.934,0,0
218780,464.696,-862.195,0,0
219041,459.534,-863.249,0,0
219301,454.361,-864.027,0,0
219561,449.249,-864.641,0,0
219822,444.174,-865.234,0,0
220082,438.804,-865.787,0,0
220342,433.419,-866.098,0,0
220603,427.776,-865.951,0,0
220863,422.251,-865.361,0,0
221123,416.603,-864.367,0,0
221384,411.215,-862.873,0,0
221644,406.32,-860.902,0,0
221904,401.897,-858.73,0,0
222165,397.979,-856.585,0,0
222425,394.425,-854.386,0,0
222685,391.13,-852.409,0,0
222946,388.121,-850.361,0,0
223206,385.161,-848.283,0,0
223466,382.565,-846.153,0,0
223727,380.436,-844.12,0,0
223987,378.637,-842.286,0,0
224247,377.095,-840.714,0,0
224508,375.743,-839.352,0,0
224768,374.697,-838.336,0,0
225028,373.855,-837.614,0,0
225289,373.243,-837.515,0,0
225549,372.46,-838.077,0,0
225809,371.267,-839.024,0,0
226070,369.775,-840.287,0,0
226330,367.802,-841.676,0,0
226590,365.476,-843.094,0,0
226851,363.02,-844.544,0,0
227111,360.216,-846.007,0,0
227371,356.961,-847.474,0,0
227632,353.53,-848.855,0,0
227892,349.712,-850.019,0,0
228152,345.719,-850.782,0,0
228413,341.735,-851.279,0,0
228673,337.822,-851.532,0,0
228933,334.039,-851.658,0,0
229193,330.264,-851.828,0,0
229454,326.543,-852.075,0,0
229714,322.818,-852.332,0,0
229974,318.954,-852.526,0,0
230235,314.878,-852.952,0,0
230495,310.471,-853.377,0,0
230755,305.661,-853.48,0,0
231016,300.723,-853.099,0,0
231276,296.006,-852.439,0,0
231536,291.319,-851.669,0,0
231797,286.593,-850.64,0,0
232057,281.921,-849.452,0,0
232317,277.29,-848.115,0,0
232578,272.733,-846.695,0,0
232838,268.178,-845.065,0,0
233098,263.68,-843.397,0,0
233359,259.154,-841.575,0,0
233619,254.588,-839.587,0,0
233879,250.072,-837.367,0,0
234140,245.705,-834.958,0,0
234400,241.249,-832.415,0,0
234660.3,236.857,-829.547,0,0
234920.625,232.467,-826.359,0,0
235180.95,228.531,-822.898,0,0
235441.275,225.028,-819.21,0,0
235701.6,221.642,-815.665,0,0
235961.925,218.509,-811.96,0,0
236222.25,215.576,-808.176,0,0
236482.575,212.964,-804.339,0,0
236742.9,210.519,-800.543,0,0
237003.225,208.33,-796.799,0,0
237263.55,206.243,-793.17,0,0
237523.875,204.358,-789.517,0,0
237784.2,202.633,-785.863,0,0
238044.525,201.038,-782.26,0,0
238304.85,199.678,-778.626,0,0
238565.175,198.43,-774.993,0,0
238825.5,197.524,-771.427,0,0
239085.825,197.012,-767.927,0,0
239346.15,196.658,-764.865,0,0
239606.475,196.462,-762.224,0,0
239866.8,196.273,-759.728,0,0
240127.125,195.986,-757.502,0,0
240387.45,195.693,-755.474,0,0
240647.775,195.271,-753.598,0,0
240908.1,194.725,-751.893,0,0
241168.425,194.123,-750.396,0,0
241428.75,193.279,-748.962,0,0
241689.075,192.267,-747.584,0,0
241949.4,190.993,-746.183,0,0
242209.725,189.635,-744.651,0,0
242470.05,188.107,-742.989,0,0
242730.375,186.377,-741.167,0,0
242990.7,184.742,-739.086,0,0
243251.025,183.298,-736.792,0,0
243511.35,181.956,-734.533,0,0
243771.675,180.649,-732.184,0,0
244032.0,179.483,-729.795,0,0
244292.325,178.446,-727.271,0,0
244552.65,177.517,-724.782,0,0
244812.975,176.888,-722.543,0,0
245073.3,176.082,-720.315,0,0
245333.625,175.394,-718.216,0,0
245593.95,174.485,-716.027,0,0
245854.275,173.677,-713.786,0,0
246114.6,173.023,-711.477,0,0
246374.925,172.482,-709.209,0,0
246635.25,172.043,-707.111,0,0
246895.575,171.703,-705.083,0,0
247155.9,171.216,-703.217,0,0
247416.225,170.674,-701.377,0,0
247676.55,169.996,-699.568,0,0
247936.875,169.255,-697.668,0,0
248197.2,168.516,-695.68,0,0
248457.525,167.794,-693.673,0,0
248717.85,167.018,-691.536,0,0
248978.175,166.311,-689.327,0,0
249238.5,165.706,-687.051,0,0
249498.825,165.198,-684.81,0,0
249759.15,164.588,-682.376,0,0
250019.475,164.221,-679.944,0,0
250279.8,163.962,-677.489,0,0
250540,163.781,-674.979,0,0
250800,163.696,-672.356,0,0
251061,163.922,-669.764,0,0
251321,164.33,-667.184,0,0
251581,164.999,-664.724,0,0
251842,165.875,-662.486,0,0
252102,166.848,-660.476,0,0
252362,167.91,-658.714,0,0
252623,169.022,-657.192,0,0
252883,170.089,-655.979,0,0
253143,170.974,-655.032,0,0
253404,171.662,-654.293,0,0
253664,172.126,-653.583,0,0
253924,172.378,-652.915,0,0
254185,172.427,-652.153,0,0
254445,172.41,-651.318,0,0
254705,172.284,-650.483,0,0
254966,172.155,-649.486,0,0
255226,171.986,-648.585,0,0
255486,171.695,-647.607,0,0
255747,171.238,-646.497,0,0
256007,170.796,-645.215,0,0
256267,170.406,-643.827,0,0
256528,170.071,-642.372,0,0
256788,169.712,-640.875,0,0
257048,169.38,-639.144,0,0
257309,169.18,-637.328,0,0
257569,169.124,-635.419,0,0
257829,169.21,-633.49,0,0
258090,169.395,-631.53,0,0
258350,169.766,-629.581,0,0
258610,170.239,-627.644,0,0
258871,170.824,-625.764,0,0
259131,171.552,-623.891,0,0
259391,172.424,-622.086,0,0
259651,173.459,-620.413,0,0
259912,174.644,-618.809,0,0
260172,175.803,-617.584,0,0
260432,176.978,-616.294,0,0
260693,178.038,-615.215,0,0
260953,179.067,-614.12,0,0
261213,180.128,-613.065,0,0
261474,181.221,-612.074,0,0
261734,182.354,-611.098,0,0
261994,183.569,-610.219,0,0
262255,184.783,-609.6,0,0
262515,185.897,-609.107,0,0
262775,186.775,-608.652,0,0
263036,187.589,-608.086,0,0
263296,188.376,-607.494,0,0
263556,189.148,-606.966,0,0
263817,189.742,-606.421,0,0
264077,190.215,-605.707,0,0
264337,190.71,-604.804,0,0
264598,191.235,-603.754,0,0
264858,191.937,-602.483,0,0
265118,192.786,-601.07,0,0
265379,193.923,-599.648,0,0
265639,195.221,-598.077,0,0
265899,196.729,-596.48,0,0
266160,198.578,-594.869,0,0
266420,200.782,-593.286,0,0
266680.25,203.402,-591.814,0,0
266940.575,206.34,-590.563,0,0
267200.9,209.664,-589.613,0,0
267461.225,213.297,-589.037,0,0
267721.55,217.216,-588.914,0,0
267981.875,221.33,-589.282,0,0
268242.2,225.561,-590.208,0,0
268502.525,229.769,-591.799,0,0
268762.85,233.947,-593.92,0,0
269023.175,237.775,-596.634,0,0
269283.5,241.324,-599.793,0,0
269543.825,244.544,-603.34,0,0
269804.15,247.457,-607.192,0,0
270064.475,250.045,-611.402,0,0
270324.8,252.326,-615.986,0,0
270585.125,254.229,-620.874,0,0
270845.45,255.637,-626.101,0,0
271105.775,256.524,-631.58,0,0
271366.1,256.874,-637.225,0,0
271626.425,256.551,-643.053,0,0
271886.75,255.678,-648.854,0,0
272147.075,254.186,-654.672,0,0
272407.4,252.113,-660.357,0,0
272667.725,249.452,-665.877,0,0
272928.05,246.239,-671.317,0,0
273188.375,242.232,-676.416,0,0
273448.7,237.671,-680.995,0,0
273709.025,232.708,-685.111,0,0
273969.35,227.33,-688.653,0,0
274229.675,221.547,-691.586,0,0
274490.0,215.616,-693.775,0,0
274750.325,209.652,-695.335,0,0
275010.65,203.635,-696.18,0,0
275270.975,197.756,-696.38,0,0
275531.3,192.212,-695.989,0,0
275791.625,186.936,-695.072,0,0
276051.95,182.09,-693.879,0,0
276312.275,177.642,-692.423,0,0
276572.6,173.51,-690.829,0,0
276832.925,169.648,-689.119,0,0
277093.25,166.021,-687.32,0,0
277353.575,162.663,-685.402,0,0
277613.9,159.507,-683.443,0,0
277874.225,156.576,-681.456,0,0
278134.55,153.78,-679.494,0,0
278394.875,151.094,-677.524,0,0
278655.2,148.474,-675.454,0,0
278915.525,145.976,-673.295,0,0
279175.85,143.608,-670.978,0,0
279436.175,141.459,-668.536,0,0
279696.5,139.507,-665.984,0,0
279956.825,137.932,-663.486,0,0
280217.15,136.559,-660.91,0,0
280477.475,135.402,-658.449,0,0
280737.8,134.449,-656.091,0,0
280998.125,133.715,-653.829,0,0
281258.45,133.124,-651.737,0,0
281518.775,132.656,-649.736,0,0
281779.1,132.308,-647.947,0,0
282039.425,132.012,-646.291,0,0
282299.75,131.766,-644.808,0,0
282560,131.581,-643.466,0,0
282820,131.347,-642.326,0,0
283081,131.036,-641.326,0,0
283341,130.584,-640.399,0,0
283601,130.015,-639.541,0,0
283862,129.304,-638.586,0,0
284122,128.558,-637.503,0,0
284382,127.856,-636.359,0,0
284643,127.172,-635.136,0,0
284903,126.575,-633.815,0,0
285163,126.078,-632.367,0,0
285424,125.73,-630.929,0,0
285684,125.681,-629.453,0,0
285944,125.844,-628.05,0,0
286205,126.204,-626.844,0,0
286465,126.728,-625.867,0,0
286725,127.376,-625.107,0,0
286986,128.08,-624.609,0,0
287246,128.87,-624.463,0,0
287506,129.615,-624.666,0,0
287767,130.196,-625.278,0,0
288027,130.497,-626.241,0,0
288287,130.381,-627.433,0,0
288548,129.815,-628.71,0,0
288808,128.825,-629.896,0,0
289068,127.589,-630.989,0,0
289329,126.108,-631.963,0,0
289589,124.335,-632.791,0,0
289849,122.312,-633.462,0,0
290109,120.093,-633.813,0,0
290370,117.769,-633.829,0,0
290630,115.491,-633.539,0,0
290890,113.303,-633.06,0,0
291151,111.2,-632.422,0,0
291411,109.176,-631.7,0,0
291671,107.233,-630.887,0,0
291932,105.327,-630.028,0,0
292192,103.409,-629.094,0,0
292452,101.519,-628.025,0,0
292713,99.6518,-626.883,0,0
292973,97.9091,-625.637,0,0
293233,96.2074,-624.322,0,0
293494,94.6002,-622.971,0,0
293754,93.0651,-621.599,0,0
294014,91.5502,-620.194,0,0
294275,90.0285,-618.749,0,0
294535,88.5726,-617.228,0,0
294795,87.1623,-615.596,0,0
295056,85.8773,-613.935,0,0
295316,84.6561,-612.205,0,0
295576,83.5663,-610.515,0,0
295837,82.5542,-608.774,0,0
296097,81.6283,-607.076,0,0
296357,80.7808,-605.417,0,0
296618,79.9702,-603.816,0,0
296878,79.1664,-602.219,0,0
297138,78.3695,-600.642,0,0
297399,77.6047,-599.054,0,0
297659,76.8568,-597.45,0,0
297919,76.124,-595.833,0,0
298180,75.4398,-594.186,0,0
298440,74.8067,-592.545,0,0
298700.2,74.2238,-590.858,0,0
298960.525,73.6746,-589.214,0,0
299220.85,73.1709,-587.525,0,0
299481.175,72.7185,-585.882,0,0
299741.5,72.3175,-584.21,0,0
300001.825,71.9458,-582.507,0,0
300262.15,71.6214,-580.814,0,0
300522.475,71.4143,-579.1,0,0
300782.8,71.2391,-577.415,0,0
301043.125,71.1806,-575.73,0,0
301303.45,71.1723,-574.118,0,0
301563.775,71.2428,-572.534,0,0
301824.1,71.3636,-571.024,0,0
302084.425,71.5376,-569.577,0,0
302344.75,71.7396,-568.19,0,0
302605.075,71.9616,-566.858,0,0
302865.4,72.1951,-565.577,0,0
303125.725,72.459,-564.354,0,0
303386.05,72.7412,-563.168,0,0
303646.375,73.0487,-562.041,0,0
303906.7,73.3704,-560.98,0,0
304167.025,73.6862,-559.979,0,0
304427.35,73.9876,-559.027,0,0
304687.675,74.285,-558.093,0,0
304948.0,74.5959,-557.228,0,0
305208.325,74.8812,-556.425,0,0
305468.65,75.184,-555.619,0,0
305728.975,75.4831,-554.867,0,0
305989.3,75.797,-554.171,0,0
306249.625,76.0733,-553.545,0,0
306509.95,76.3391,-552.967,0,0
306770.275,76.5501,-552.433,0,0
307030.6,76.7511,-551.914,0,0
307290.925,76.9042,-551.423,0,0
307551.25,77.0424,-550.932,0,0
307811.575,77.1983,-550.493,0,0
308071.9,77.3496,-550.095,0,0
308332.225,77.4764,-549.779,0,0
308592.55,77.5543,-549.52,0,0
308852.875,77.5513,-549.339,0,0
309113.2,77.4519,-549.191,0,0
309373.525,77.209,-549.029,0,0
309633.85,76.9044,-548.824,0,0
309894.175,76.5402,-548.546,0,0
310154.5,76.1409,-548.188,0,0
310414.825,75.7145,-547.812,0,0
310675.15,75.3089,-547.392,0,0
310935.475,74.9037,-546.935,0,0
311195.8,74.5062,-546.457,0,0
311456.125,74.1177,-545.973,0,0
311716.45,73.7298,-545.482,0,0
311976.775,73.3588,-544.986,0,0
312237.1,72.9677,-544.494,0,0
312497.425,72.565,-544.019,0,0
312757.75,72.158,-543.531,0,0
313018.075,71.7083,-543.035,0,0
313278.4,71.2431,-542.544,0,0
313538.725,70.756,-542.032,0,0
313799.05,70.2227,-541.487,0,0
314059.375,69.6938,-540.94,0,0
314319.7,69.1575,-540.314,0,0
314580,68.6129,-539.708,0,0
314840,68.0874,-538.993,0,0
315101,67.5566,-538.309,0,0
315361,67.0177,-537.629,0,0
315621,66.5282,-536.835,0,0
315882,66.1101,-536.017,0,0
316142,65.5122,-535.195,0,0
316402,65.1709,-534.328,0,0
316663,64.7318,-533.51,0,0
316923,64.4405,-532.63,0,0
317183,64.2004,-531.809,0,0
317444,63.8586,-530.928,0,0
317704,63.5748,-530.104,0,0
317964,63.3639,-529.286,0,0
318225,63.1674,-528.547,0,0
318485,62.9357,-527.769,0,0
318745,62.681,-526.955,0,0
319006,62.5072,-526.136,0,0
319266,62.4041,-525.442,0,0
319526,62.3214,-524.636,0,0
319787,62.2437,-523.981,0,0
320047,62.1822,-523.379,0,0
320307,62.1179,-522.727,0,0
320567,62.0196,-522.23,0,0
320828,61.8771,-521.763,0,0
321088,61.6634,-521.285,0,0
321348,61.5458,-520.833,0,0
321609,61.235,-520.369,0,0
321869,60.9532,-519.937,0,0
322129,60.7011,-519.498,0,0
322390,60.3556,-519.003,0,0
322650,59.9647,-518.578,0,0
322910,59.6521,-518.092,0,0
323171,59.2907,-517.59,0,0
323431,58.9234,-517.132,0,0
323691,58.4756,-516.658,0,0
323952,58.0255,-516.262,0,0
324212,57.5446,-515.729,0,0
324472,56.933,-515.159,0,0
324733,56.4307,-514.6,0,0
324993,55.8419,-514.014,0,0
325253,55.2135,-513.389,0,0
325514,54.6786,-512.681,0,0
325774,54.1,-511.995,0,0
326034,53.6578,-511.213,0,0
326295,53.0787,-510.4,0,0
326555,52.5655,-509.558,0,0
326815,52.1657,-508.788,0,0
327076,51.7064,-507.971,0,0
327336,51.241,-507.103,0,0
327596,50.8593,-506.294,0,0
327857,50.4477,-505.411,0,0
328117,50.0247,-504.553,0,0
328377,49.7041,-503.752,0,0
328638,49.3291,-502.942,0,0
328898,48.9916,-502.075,0,0
329158,48.58,-501.236,0,0
329419,48.2696,-500.332,0,0
329679,47.9718,-499.507,0,0
329939,47.6924,-498.592,0,0
330200,47.3804,-497.796,0,0
330460,47.1011,-496.862,0,0
330720.15,46.7992,-495.974,0,0
330980.475,46.5156,-495.137,0,0
331240.8,46.2244,-494.269,0,0
331501.125,46.0041,-493.383,0,0
331761.45,45.7573,-492.484,0,0
332021.775,45.5447,-491.628,0,0
332282.1,45.3247,-490.706,0,0
332542.425,45.1389,-489.808,0,0
332802.75,44.9315,-488.903,0,0
333063.075,44.7699,-487.974,0,0
333323.4,44.6003,-487.101,0,0
333583.725,44.469,-486.238,0,0
333844.05,44.4012,-485.313,0,0
334104.375,44.3078,-484.473,0,0
334364.7,44.2311,-483.575,0,0
334625.025,44.1765,-482.716,0,0
334885.35,44.1079,-481.883,0,0
335145.675,44.1399,-481.056,0,0
335406.0,44.1337,-480.238,0,0
335666.325,44.1163,-479.497,0,0
335926.65,44.0572,-478.748,0,0
336186.975,44.0727,-478.077,0,0
336447.3,44.0056,-477.357,0,0
336707.625,44.0408,-476.629,0,0
336967.95,43.9719,-475.917,0,0
337228.275,43.9501,-475.206,0,0
337488.6,43.9306,-474.576,0,0
337748.925,43.8554,-473.903,0,0
338009.25,43.7938,-473.271,0,0
338269.575,43.7187,-472.614,0,0
338529.9,43.6035,-471.947,0,0
338790.225,43.5592,-471.348,0,0
339050.55,43.4579,-470.689,0,0
339310.875,43.3443,-470.06,0,0
339571.2,43.2391,-469.387,0,0
339831.525,43.1038,-468.811,0,0
340091.85,43.0086,-468.168,0,0
340352.175,42.8685,-467.509,0,0
340612.5,42.6828,-466.903,0,0
340872.825,42.4993,-466.245,0,0
341133.15,42.3355,-465.65,0,0
341393.475,42.1678,-464.952,0,0
341653.8,41.9058,-464.248,0,0
341914.125,41.7273,-463.582,0,0
342174.45,41.513,-462.845,0,0
342434.775,41.3698,-462.066,0,0
342695.1,41.1609,-461.306,0,0
342955.425,41.04,-460.572,0,0
343215.75,40.8924,-459.756,0,0
343476.075,40.7661,-459.028,0,0
343736.4,40.6681,-458.254,0,0
343996.725,40.5304,-457.488,0,0
344257.05,40.3806,-456.713,0,0
344517.375,40.3151,-455.896,0,0
344777.7,40.2154,-455.117,0,0
345038.025,40.0529,-454.336,0,0
345298.35,40.0219,-453.486,0,0
345558.675,39.9835,-452.746,0,0
345819.0,39.8848,-451.891,0,0
346079.325,39.8774,-451.091,0,0
346339.65,39.8249,-450.238,0,0
346599.975,39.8153,-449.455,0,0
346860,39.8569,-448.636,0,0
347121,39.8689,-447.861,0,0
347381,39.931,-447.046,0,0
347641,39.9657,-446.236,0,0
347902,40.0768,-445.466,0,0
348162,40.1529,-444.692,0,0
348422,40.1975,-443.952,0,0
348683,40.3364,-443.177,0,0
348943,40.4355,-442.497,0,0
349203,40.508,-441.758,0,0
349464,40.6324,-441.005,0,0
349724,40.7549,-440.281,0,0
349984,40.8425,-439.587,0,0
350245,40.9947,-438.885,0,0
350505,41.1443,-438.195,0,0
350765,41.2977,-437.466,0,0
351025,41.506,-436.819,0,0
351286,41.6532,-436.214,0,0
351546,41.8173,-435.517,0,0
351806,41.9759,-434.954,0,0
352067,42.1826,-434.301,0,0
352327,42.3433,-433.679,0,0
352587,42.5261,-433.103,0,0
352848,42.6692,-432.566,0,0
353108,42.8119,-432.032,0,0
353368,43.033,-431.481,0,0
353629,43.1677,-430.947,0,0
353889,43.335,-430.442,0,0
354149,43.438,-429.954,0,0
354410,43.5699,-429.451,0,0
354670,43.7035,-428.951,0,0
354930,43.7609,-428.428,0,0
355191,43.8814,-427.936,0,0
355451,43.9678,-427.497,0,0
355711,44.0959,-426.969,0,0
355972,44.1486,-426.507,0,0
356232,44.249,-426.034,0,0
356492,44.3593,-425.51,0,0
356753,44.4453,-425.119,0,0
357013,44.4975,-424.617,0,0
357273,44.5124,-424.169,0,0
357534,44.5553,-423.707,0,0
357794,44.6056,-423.266,0,0
358054,44.6229,-422.704,0,0
358315,44.6639,-422.208,0,0
358575,44.6938,-421.718,0,0
358835,44.69,-421.226,0,0
359096,44.7745,-420.733,0,0
359356,44.8267,-420.249,0,0
359616,44.8771,-419.715,0,0
359877,44.9128,-419.229,0,0
360137,44.9879,-418.738,0,0
360397,45.0321,-418.166,0,0
360658,45.033,-417.684,0,0
360918,45.1653,-417.239,0,0
361178,45.1858,-416.718,0,0
361438,45.2366,-416.257,0,0
361699,45.3038,-415.798,0,0
361959,45.3645,-415.304,0,0
362219,45.4215,-414.798,0,0
362480,45.4799,-414.332,0,0
362740.1,45.5389,-413.826,0,0
363000.425,45.5478,-413.387,0,0
363260.75,45.6564,-412.861,0,0
363521.075,45.7059,-412.385,0,0
363781.4,45.7839,-411.919,0,0
364041.725,45.8016,-411.428,0,0
364302.05,45.8269,-410.954,0,0
364562.375,45.9377,-410.471,0,0
364822.7,45.9746,-409.968,0,0
365083.025,46.0606,-409.511,0,0
365343.35,46.1306,-409.01,0,0
365603.675,46.1984,-408.547,0,0
365864.0,46.2533,-408.083,0,0
366124.325,46.3812,-407.588,0,0
366384.65,46.4414,-407.136,0,0
366644.975,46.5096,-406.695,0,0
366905.3,46.5743,-406.298,0,0
367165.625,46.6203,-405.816,0,0
367425.95,46.6726,-405.392,0,0
367686.275,46.7511,-404.903,0,0
367946.6,46.7753,-404.449,0,0
368206.925,46.8503,-403.97,0,0
368467.25,46.8863,-403.463,0,0
368727.575,47.0115,-402.974,0,0
368987.9,47.0628,-402.463,0,0
369248.225,47.1877,-401.928,0,0
369508.55,47.3374,-401.463,0,0
369768.875,47.502,-400.977,0,0
370029.2,47.6922,-400.448,0,0
370289.525,47.89,-400.039,0,0
370549.85,48.1188,-399.616,0,0
370810.175,48.365,-399.274,0,0
371070.5,48.6008,-398.9,0,0
371330.825,48.8183,-398.646,0,0
371591.15,48.9541,-398.361,0,0
371851.475,49.1029,-398.115,0,0
372111.8,49.2213,-397.888,0,0
372372.125,49.3391,-397.668,0,0
372632.45,49.4307,-397.434,0,0
372892.775,49.4942,-397.174,0,0
373153.1,49.536,-396.996,0,0
373413.425,49.5173,-396.719,0,0
373673.75,49.5083,-396.465,0,0
373934.075,49.4932,-396.298,0,0
374194.4,49.462,-396.006,0,0
374454.725,49.3924,-395.741,0,0
374715.05,49.2907,-395.477,0,0
374975.375,49.1979,-395.106,0,0
375235.7,49.0961,-394.796,0,0
375496.025,49.037,-394.411,0,0
375756.35,48.9156,-394.041,0,0
376016.675,48.888,-393.671,0,0
376277.0,48.8705,-393.227,0,0
376537.325,48.8662,-392.832,0,0
376797.65,48.8816,-392.414,0,0
377057.975,48.9238,-391.988,0,0
377318.3,49.0058,-391.651,0,0
377578.625,49.0543,-391.339,0,0
377838.95,49.098,-391.069,0,0
378099.275,49.1058,-390.865,0,0
378359.6,49.0681,-390.641,0,0
378619.925,49.0308,-390.382,0,0
378880,48.8828,-390.174,0,0
379141,48.6924,-389.88,0,0
379401,48.5369,-389.529,0,0
379661,48.3701,-389.078,0,0
379922,48.1845,-388.654,0,0
380182,48.1118,-388.147,0,0
380442,48.0565,-387.644,0,0
380703,48.0997,-387.184,0,0
380963,48.1632,-386.76,0,0
381223,48.3431,-386.316,0,0
381483,48.4234,-386.038,0,0
381744,48.5553,-385.75,0,0
382004,48.5853,-385.563,0,0
382264,48.6,-385.45,0,0
382525,48.5629,-385.316,0,0
382785,48.4522,-385.176,0,0
383045,48.2733,-384.98,0,0
383306,48.0738,-384.768,0,0
383566,47.834,-384.538,0,0
383826,47.5733,-384.303,0,0
384087,47.3016,-383.988,0,0
384347,47.0662,-383.731,0,0
384607,46.7628,-383.358,0,0
384868,46.4828,-382.988,0,0
385128,46.1923,-382.588,0,0
385388,45.8832,-382.155,0,0
385649,45.5769,-381.705,0,0
385909,45.2879,-381.194,0,0
386169,45.0457,-380.732,0,0
386430,44.7958,-380.203,0,0
386690,44.5516,-379.633,0,0
386950,44.3107,-379.08,0,0
387211,44.1284,-378.477,0,0
387471,43.9198,-377.912,0,0
387731,43.7259,-377.291,0,0
387992,43.5745,-376.71,0,0
388252,43.461,-376.056,0,0
388512,43.3422,-375.454,0,0
388773,43.2555,-374.853,0,0
389033,43.1799,-374.207,0,0
389293,43.1685,-373.589,0,0
389554,43.1169,-372.964,0,0
389814,43.0931,-372.408,0,0
390074,43.1033,-371.808,0,0
390335,43.1211,-371.265,0,0
390595,43.1139,-370.709,0,0
390855,43.1228,-370.189,0,0
391116,43.1132,-369.667,0,0
391376,43.1053,-369.153,0,0
391636,43.0909,-368.634,0,0
391896,43.0652,-368.112,0,0
392157,43.0319,-367.577,0,0
392417,43.0004,-367.069,0,0
392677,43.009,-366.554,0,0
392938,42.932,-366.017,0,0
393198,42.9188,-365.498,0,0
393458,42.8971,-364.968,0,0
393719,42.8527,-364.431,0,0
393979,42.8184,-363.909,0,0
394239,42.8322,-363.321,0,0
394500,42.764,-362.752,0,0
394760.05,42.7996,-362.177,0,0
395020.375,42.7782,-361.626,0,0
395280.7,42.7908,-361.035,0,0
395541.025,42.8434,-360.447,0,0
395801.35,42.8735,-359.913,0,0
396061.675,42.9242,-359.292,0,0
396322.0,42.9974,-358.736,0,0
396582.325,43.0548,-358.199,0,0
396842.65,43.1417,-357.652,0,0
397102.975,43.2347,-357.133,0,0
397363.3,43.2828,-356.605,0,0
397623.625,43.3707,-356.087,0,0
397883.95,43.437,-355.56,0,0
398144.275,43.4893,-355.052,0,0
398404.6,43.5743,-354.544,0,0
398664.925,43.6537,-354.053,0,0
398925.25,43.7479,-353.537,0,0
399185.575,43.803,-353.03,0,0
399445.9,43.861,-352.576,0,0
399706.225,43.9142,-352.025,0,0
399966.55,43.9874,-351.543,0,0
400006.6,43.9925,-351.465,0,0