File: Accelerated corrosion test data/2025-10-17_18-00-03/sample_4.csv
Frequency (Hz),Impedance (ohms),Phase (Radians),Temperature (C),Humidity (%)
10000.0,261.613,-11933.1,0,0
10260.325,258.521,-11633.1,0,0
10520.65,248.692,-11347.1,0,0
10780.975,242.876,-11075.2,0,0
11041.3,238.282,-10815.3,0,0
11301.625,232.689,-10571,0,0
11561.95,227.49,-10334.4,0,0
11822.275,222.912,-10107.6,0,0
12082.6,217.856,-9891.42,0,0
12342.925,213.613,-9684.05,0,0
12603.25,212.023,-9483.54,0,0
12863.575,207.058,-9296.08,0,0
13123.9,205.576,-9116.92,0,0
13384.225,198.034,-8936.72,0,0
13644.55,195.122,-8764.66,0,0
13904.875,191.93,-8597.64,0,0
14165.2,192.943,-8434.65,0,0
14425.525,196.456,-8288.76,0,0
14685.8,198.849,-8172.73,0,0
14946.175,181.039,-8015.68,0,0
15206.5,179.155,-7869.56,0,0
15466.825,188.665,-7724.61,0,0
15727.15,186.332,-7627.13,0,0
15987.5,183.997,-7509.67,0,0
16247.8,169.639,-7379.56,0,0
16508.125,190.11,-7252.47,0,0
16768.45,177.565,-7150.41,0,0
17028.775,170.077,-7062.86,0,0
17289.1,159.222,-6948.08,0,0
17549.425,157.864,-6844.08,0,0
17809.75,155.939,-6742.48,0,0
18070.075,151.2,-6643.43,0,0
18330.4,152.888,-6546.86,0,0
18590.725,152.014,-6457.94,0,0
18851.05,148.9,-6372.57,0,0
19111.375,144.605,-6283.47,0,0
19371.7,141.843,-6197.85,0,0
19632.025,140.74,-6113.15,0,0
19892.35,143.083,-6032.03,0,0
20152.675,142.935,-5955.06,0,0
20413.0,139.584,-5880.73,0,0
20673.3,140.092,-5805.75,0,0
20933.65,136.571,-5731.86,0,0
21193.975,139.819,-5657.29,0,0
21454.3,150.814,-5590.02,0,0
21714.625,145.849,-5534.49,0,0
21974.9,148.781,-5462.76,0,0
22235.275,148.454,-5417.23,0,0
22495.6,135.27,-5360.21,0,0
22755.925,127.658,-5295.76,0,0
23016.25,124.234,-5232.68,0,0
23276.6,121.939,-5172.34,0,0
23536.9,119.967,-5114.68,0,0
23797.225,117.893,-5057.28,0,0
24057.55,116.474,-5001.36,0,0
24317.875,115.494,-4947.08,0,0
24578.2,113.821,-4893.12,0,0
24838.525,113.339,-4841.14,0,0
25098.85,114.056,-4789.35,0,0
25359.175,111.893,-4742.14,0,0
25619.5,111.342,-4692.69,0,0
25879.8,110.39,-4647.71,0,0
26140.1,107.489,-4599.18,0,0
26400.5,106.501,-4552.48,0,0
26660.8,105.345,-4506.2,0,0
26921.1,105.594,-4461.33,0,0
27181.4,104.88,-4416.23,0,0
27441.8,104.864,-4371.37,0,0
27702.1,109.33,-4327.08,0,0
27962.4,115.104,-4287.03,0,0
28222.7,120.315,-4258,0,0
28483.1,112.731,-4222.76,0,0
28743.4,109.812,-4181.42,0,0
29003.7,111.962,-4140.99,0,0
29264,116.778,-4107.99,0,0
29524.4,112.788,-4077.94,0,0
29784.7,108.306,-4045.14,0,0
30045,106.874,-4010.05,0,0
30305.3,100.857,-3975.78,0,0
30565.7,99.2768,-3939.31,0,0
30826,98.2789,-3904.77,0,0
31086.3,97.4216,-3870.33,0,0
31346.6,98.399,-3836.96,0,0
31607,97.4007,-3806.7,0,0
31867.3,96.6533,-3774.03,0,0
32127.6,99.5786,-3743.15,0,0
32387.9,98.2766,-3717.58,0,0
32648.3,96.2538,-3687.76,0,0
32908.6,94.1575,-3660.1,0,0
33168.9,91.7902,-3630.8,0,0
33429.2,89.6145,-3602.11,0,0
33689.6,88.0489,-3572.9,0,0
33949.9,87.006,-3544.56,0,0
34210.2,87.1572,-3516.63,0,0
34470.5,85.7921,-3490.06,0,0
34730.9,84.2985,-3463.03,0,0
34991.2,84.413,-3436.22,0,0
35251.5,83.7487,-3410.32,0,0
35511.8,82.7767,-3384.83,0,0
35772.2,82.4476,-3359.64,0,0
36032.5,81.1899,-3334.88,0,0
36292.8,80.3889,-3310,0,0
36553.1,79.8812,-3285.11,0,0
36813.5,80.0189,-3261.02,0,0
37073.8,80.5356,-3238.15,0,0
37334.1,79.2215,-3215.72,0,0
37594.4,78.7563,-3192.24,0,0
37854.8,78.4047,-3169.66,0,0
38115.1,77.9,-3147.8,0,0
38375.4,77.036,-3125.27,0,0
38635.7,76.6938,-3103.13,0,0
38896.1,76.9241,-3081.41,0,0
39156.4,76.3982,-3060.49,0,0
39416.7,76.0088,-3039.15,0,0
39677,75.791,-3017.83,0,0
39937.4,76.7086,-2996.66,0,0
40197.7,78.2886,-2976.33,0,0
40458,79.937,-2957.63,0,0
40718.3,79.1252,-2940.32,0,0
40978.7,78.4318,-2919.7,0,0
41239,80.3842,-2901.51,0,0
41499.3,82.3534,-2885.22,0,0
41759.6,78.4599,-2869.28,0,0
42020,77.359,-2850.52,0,0
42280.275,75.9989,-2831.33,0,0
42540.6,77.9505,-2813.07,0,0
42800.925,77.8053,-2798.57,0,0
43061.25,75.1464,-2780.94,0,0
43321.575,75.3237,-2763.55,0,0
43581.9,74.1229,-2747.26,0,0
43842.225,73.5426,-2729.62,0,0
44102.55,73.3909,-2713.69,0,0
44362.875,71.8879,-2696.66,0,0
44623.2,72.0869,-2679.92,0,0
44883.525,71.9045,-2664.13,0,0
45143.85,71.152,-2648.22,0,0
45404.175,70.4236,-2631.74,0,0
45664.5,71.035,-2615.03,0,0
45924.825,72.2997,-2600.84,0,0
46185.15,70.8782,-2586.81,0,0
46445.475,70.17,-2570.17,0,0
46705.8,71.2002,-2555.46,0,0
46966.125,70.9438,-2541.67,0,0
47226.45,71.3964,-2527.11,0,0
47486.775,71.2571,-2514.47,0,0
47747.1,69.7572,-2500.49,0,0
48007.425,68.9342,-2486.45,0,0
48267.75,68.1289,-2472.46,0,0
48528.075,67.7392,-2458.71,0,0
48788.4,66.9201,-2445.12,0,0
49048.725,65.6181,-2431.02,0,0
49309.05,65.7972,-2417.01,0,0
49569.375,65.2075,-2403.91,0,0
49829.7,64.3966,-2389.83,0,0
50090.025,64.4031,-2376.67,0,0
50350.35,64.1456,-2363.36,0,0
50610.675,64.0692,-2350.27,0,0
50871.0,63.6627,-2337.12,0,0
51131.325,63.5807,-2324.1,0,0
51391.65,63.6051,-2311.11,0,0
51651.975,63.6081,-2298.34,0,0
51912.3,63.3533,-2285.78,0,0
52172.625,63.8212,-2272.88,0,0
52432.95,63.8201,-2260.75,0,0
52693.275,64.11,-2247.69,0,0
52953.6,65.112,-2235.05,0,0
53213.925,66.0263,-2223.17,0,0
53474.25,67.2699,-2211.11,0,0
53734.575,68.6594,-2199.27,0,0
53994.9,71.0749,-2187.81,0,0
54255.225,73.7091,-2178.22,0,0
54515.55,75.5649,-2169.84,0,0
54775.875,75.6284,-2162.08,0,0
55036.2,74.0426,-2153.56,0,0
55296.525,73.3807,-2143.88,0,0
55556.85,71.6671,-2135.19,0,0
55817.175,69.5873,-2124.86,0,0
56077.5,68.0368,-2114.24,0,0
56337.825,66.984,-2103.38,0,0
56598.15,65.7367,-2092.25,0,0
56858.475,65.3895,-2080.8,0,0
57118.8,65.552,-2069.86,0,0
57379.125,65.7944,-2059.31,0,0
57639.45,65.8938,-2049.11,0,0
57899.775,66.0052,-2038.77,0,0
58160.1,66.2762,-2028.1,0,0
58420.4,67.4906,-2017.73,0,0
58680.7,68.1111,-2009.43,0,0
58941.1,67.4021,-1998.92,0,0
59201.4,68.3261,-1988.26,0,0
59461.7,70.1212,-1977.78,0,0
59722,72.6529,-1968.69,0,0
59982.4,75.456,-1960.86,0,0
60242.7,76.252,-1954.12,0,0
60503,76.7761,-1946.07,0,0
60763.3,79.5606,-1938.66,0,0
61023.7,80.4005,-1935.19,0,0
61284,78.2193,-1930.19,0,0
61544.3,74.3586,-1924.57,0,0
61804.6,70.8624,-1914.65,0,0
62065,69.9956,-1905.67,0,0
62325.3,68.6688,-1897.82,0,0
62585.6,65.832,-1889.16,0,0
62845.9,64.7365,-1878.74,0,0
63106.3,64.2796,-1869.65,0,0
63366.6,63.9411,-1860.29,0,0
63626.9,64.1157,-1851.1,0,0
63887.2,64.1439,-1843.34,0,0
64147.6,63.1202,-1834.29,0,0
64407.9,63.4423,-1825.02,0,0
64668.2,64.2247,-1816.58,0,0
64928.5,64.6821,-1808.71,0,0
65188.9,64.7229,-1800.78,0,0
65449.2,64.9242,-1792.6,0,0
65709.5,64.9676,-1784.36,0,0
65969.8,66.0686,-1775.85,0,0
66230.2,66.9441,-1768.63,0,0
66490.5,67.6938,-1761.34,0,0
66750.8,68.3865,-1754.21,0,0
67011.1,68.7585,-1746.73,0,0
67271.5,69.8911,-1739.46,0,0
67531.8,71.0185,-1732.87,0,0
67792.1,71.8975,-1726.6,0,0
68052.4,72.804,-1720.74,0,0
68312.8,73.4403,-1715.09,0,0
68573.1,73.8041,-1710.18,0,0
68833.4,73.1688,-1705.59,0,0
69093.7,71.6673,-1700.64,0,0
69354.1,69.4117,-1694.77,0,0
69614.4,67.3549,-1687.62,0,0
69874.7,66.4148,-1680.45,0,0
70135,65.3216,-1673.6,0,0
70395.4,63.9286,-1666.38,0,0
70655.7,63.8158,-1658.05,0,0
70916,64.9199,-1651.52,0,0
71176.3,64.4837,-1645.85,0,0
71436.7,64.176,-1639.51,0,0
71697,63.8339,-1634,0,0
71957.3,62.1206,-1628.55,0,0
72217.6,60.3233,-1621.6,0,0
72478,58.9906,-1614.29,0,0
72738.3,58.2807,-1607,0,0
72998.6,57.5169,-1599.89,0,0
73258.9,56.9317,-1592.15,0,0
73519.3,57.1867,-1584.64,0,0
73779.6,57.6252,-1577.71,0,0
74039.9,58.058,-1571.08,0,0
74300.225,57.9901,-1564.66,0,0
74560.55,58.288,-1557.69,0,0
74820.875,58.8437,-1551.05,0,0
75081.2,59.5855,-1544.6,0,0
75341.525,60.3406,-1538.71,0,0
75601.85,60.7031,-1532.93,0,0
75862.175,60.969,-1527.07,0,0
76122.5,61.4006,-1521.04,0,0
76382.825,62.054,-1515.53,0,0
76643.15,62.1399,-1510.05,0,0
76903.475,62.0088,-1504.17,0,0
77163.8,62.8499,-1497.81,0,0
77424.125,63.9597,-1492.5,0,0
77684.45,64.937,-1487.59,0,0
77944.775,65.5929,-1483.26,0,0
78205.1,65.5287,-1478.92,0,0
78465.425,65.3368,-1474.42,0,0
78725.75,64.8121,-1469.97,0,0
78986.075,63.9548,-1465.26,0,0
79246.4,63.0051,-1460.11,0,0
79506.725,62.2873,-1454.78,0,0
79767.05,61.711,-1449.31,0,0
80027.375,61.2169,-1443.79,0,0
80287.7,60.8889,-1438.27,0,0
80548.025,60.6527,-1432.79,0,0
80808.35,60.6146,-1427.41,0,0
81068.675,60.6327,-1422.2,0,0
81329.0,60.5531,-1417.17,0,0
81589.325,60.3771,-1412.17,0,0
81849.65,60.1892,-1407.22,0,0
82109.975,59.8486,-1402.18,0,0
82370.3,59.6426,-1397.15,0,0
82630.625,59.4728,-1392.16,0,0
82890.95,59.1545,-1387.21,0,0
83151.275,58.8629,-1382.24,0,0
83411.6,58.6345,-1377.3,0,0
83671.925,58.3703,-1372.25,0,0
83932.25,58.0743,-1367.25,0,0
84192.575,57.8671,-1362.29,0,0
84452.9,57.6809,-1357.32,0,0
84713.225,57.4609,-1352.44,0,0
84973.55,57.3244,-1347.56,0,0
85233.875,57.2017,-1342.73,0,0
85494.2,56.993,-1337.89,0,0
85754.525,56.8101,-1333.13,0,0
86014.85,56.5592,-1328.4,0,0
86275.175,56.5176,-1323.48,0,0
86535.5,56.4203,-1318.76,0,0
86795.825,56.2088,-1314.2,0,0
87056.15,55.9928,-1309.46,0,0
87316.475,55.8099,-1304.87,0,0
87576.8,55.6036,-1300.33,0,0
87837.125,55.2992,-1295.84,0,0
88097.45,54.7649,-1291.33,0,0
88357.775,54.1437,-1286.56,0,0
88618.1,53.8321,-1281.5,0,0
88878.425,53.7273,-1276.61,0,0
89138.75,53.5856,-1271.86,0,0
89399.075,53.343,-1267,0,0
89659.4,53.31,-1262.22,0,0
89919.725,53.4563,-1257.55,0,0
90180,53.4477,-1252.91,0,0
90440.4,53.3821,-1248.28,0,0
90700.7,53.2787,-1243.75,0,0
90961,53.2278,-1239.12,0,0
91221.3,53.09,-1234.52,0,0
91481.7,53.2083,-1229.75,0,0
91742,53.2841,-1225.18,0,0
92002.3,53.562,-1220.56,0,0
92262.6,53.9068,-1216.04,0,0
92523,54.2709,-1211.69,0,0
92783.3,54.5415,-1207.52,0,0
93043.6,54.8345,-1203.45,0,0
93303.9,54.8952,-1199.55,0,0
93564.3,54.9448,-1195.64,0,0
93824.6,54.7978,-1191.7,0,0
94084.9,54.5472,-1187.78,0,0
94345.2,54.0774,-1183.74,0,0
94605.6,53.5428,-1179.4,0,0
94865.9,53.1597,-1174.9,0,0
95126.2,53.0223,-1170.37,0,0
95386.5,52.8425,-1165.86,0,0
95646.9,52.794,-1161.25,0,0
95907.2,52.8636,-1156.79,0,0
96167.5,52.9662,-1152.37,0,0
96427.8,53.1776,-1147.98,0,0
96688.2,53.3154,-1143.69,0,0
96948.5,53.4024,-1139.35,0,0
97208.8,53.6005,-1135.02,0,0
97469.1,53.7677,-1130.73,0,0
97729.5,53.9058,-1126.4,0,0
97989.8,54.0931,-1121.97,0,0
98250.1,54.4649,-1117.68,0,0
98510.4,54.8281,-1113.43,0,0
98770.8,55.1282,-1109.1,0,0
99031.1,55.656,-1104.79,0,0
99291.4,56.2748,-1100.59,0,0
99551.7,56.8881,-1096.62,0,0
99812.1,57.2221,-1092.6,0,0
100072,57.7949,-1088.37,0,0
100333,58.6646,-1084.18,0,0
100593,59.7799,-1080.31,0,0
100853,60.8156,-1077.09,0,0
101114,61.3249,-1073.85,0,0
101374,61.9851,-1070.5,0,0
101634,62.6373,-1067.7,0,0
101895,62.609,-1065.22,0,0
102155,61.8817,-1062.44,0,0
102415,60.8323,-1059.05,0,0
102676,59.751,-1055.15,0,0
102936,58.9264,-1050.85,0,0
103196,58.2695,-1046.27,0,0
103457,57.9129,-1041.42,0,0
103717,57.9643,-1036.39,0,0
103977,58.378,-1031.55,0,0
104238,58.8671,-1026.91,0,0
104498,59.4635,-1022.05,0,0
104758,60.3928,-1017.34,0,0
105019,61.4974,-1012.74,0,0
105279,62.6825,-1008.45,0,0
105539,63.8911,-1004.17,0,0
105800,65.2097,-1000.03,0,0
106060,66.5464,-996.022,0,0
106320.175,67.9514,-992.099,0,0
106580.5,69.4058,-988.31,0,0
106840.825,70.8483,-984.644,0,0
107101.15,72.1885,-981.122,0,0
107361.475,73.4898,-977.589,0,0
107621.8,74.7559,-973.966,0,0
107882.125,76.2348,-970.319,0,0
108142.45,77.7933,-966.763,0,0
108402.775,79.518,-963.267,0,0
108663.1,81.3237,-960.078,0,0
108923.425,83.1628,-956.988,0,0
109183.75,85.0505,-954.064,0,0
109444.075,86.9703,-951.391,0,0
109704.4,88.5943,-948.987,0,0
109964.725,90.107,-946.592,0,0
110225.05,91.5177,-944.16,0,0
110485.375,92.9966,-941.946,0,0
110745.7,94.3551,-939.706,0,0
111006.025,95.6616,-937.626,0,0
111266.35,96.7338,-935.507,0,0
111526.675,97.8506,-933.367,0,0
111787.0,98.8117,-931.185,0,0
112047.325,100.018,-929.119,0,0
112307.65,101.134,-927.145,0,0
112567.975,102.003,-925.278,0,0
112828.3,103.005,-923.385,0,0
113088.625,103.894,-921.538,0,0
113348.95,104.665,-919.762,0,0
113609.275,105.371,-918.001,0,0
113869.6,105.993,-916.336,0,0
114129.925,106.479,-914.577,0,0
114390.25,106.992,-912.775,0,0
114650.575,107.506,-910.98,0,0
114910.9,108.027,-909.314,0,0
115171.225,108.375,-907.759,0,0
115431.55,108.584,-906.205,0,0
115691.875,108.619,-904.554,0,0
115952.2,108.679,-902.788,0,0
116212.525,108.703,-901.114,0,0
116472.85,108.619,-899.379,0,0
116733.175,108.479,-897.638,0,0
116993.5,108.191,-895.779,0,0
117253.825,107.827,-893.87,0,0
117514.15,107.388,-891.764,0,0
117774.475,107.001,-889.471,0,0
118034.8,106.666,-886.943,0,0
118295.125,106.637,-884.429,0,0
118555.45,106.546,-881.946,0,0
118815.775,106.492,-879.233,0,0
119076.1,106.766,-876.162,0,0
119336.425,107.778,-873.228,0,0
119596.75,109.454,-870.943,0,0
119857.075,110.82,-869.428,0,0
120117.4,112.245,-868.491,0,0
120377.725,113.134,-868.282,0,0
120638.05,113.164,-868.338,0,0
120898.375,112.169,-868.307,0,0
121158.7,110.643,-867.523,0,0
121419.025,109.011,-866.15,0,0
121679.35,107.492,-864.362,0,0
121939.675,106.02,-862.304,0,0
122200.0,104.763,-859.958,0,0
122460,103.645,-857.556,0,0
122721,102.697,-854.995,0,0
122981,101.946,-852.486,0,0
123241,101.186,-849.989,0,0
123502,100.434,-847.473,0,0
123762,99.7631,-844.898,0,0
124022,99.1838,-842.336,0,0
124283,98.6407,-839.774,0,0
124543,98.1454,-837.226,0,0
124803,97.6528,-834.647,0,0
125064,97.3294,-832.011,0,0
125324,97.1371,-829.614,0,0
125584,96.8589,-827.243,0,0
125845,96.5908,-825.031,0,0
126105,96.2494,-822.987,0,0
126365,95.6801,-820.96,0,0
126626,94.9559,-818.966,0,0
126886,94.169,-816.761,0,0
127146,93.324,-814.545,0,0
127406,92.4917,-812.218,0,0
127667,91.745,-809.915,0,0
127927,90.9914,-807.908,0,0
128187,89.725,-805.719,0,0
128448,88.3681,-803.37,0,0
128708,87.028,-800.826,0,0
128968,85.6046,-798.272,0,0
129229,84.0914,-795.412,0,0
129489,82.5989,-792.315,0,0
129749,81.2296,-789.103,0,0
130010,79.8355,-785.68,0,0
130270,78.6653,-782.098,0,0
130530,77.7191,-778.553,0,0
130791,76.7803,-774.965,0,0
131051,75.8831,-771.264,0,0
131311,75.0816,-767.501,0,0
131572,74.4882,-763.661,0,0
131832,73.9511,-759.945,0,0
132092,73.4314,-756.185,0,0
132353,72.9777,-752.365,0,0
132613,72.6781,-748.499,0,0
132873,72.4161,-744.668,0,0
133134,72.2598,-740.886,0,0
133394,72.1224,-737.084,0,0
133654,72.0176,-733.311,0,0
133915,72.0145,-729.463,0,0
134175,72.0584,-725.68,0,0
134435,72.1678,-721.898,0,0
134696,72.2857,-718.102,0,0
134956,72.4272,-714.319,0,0
135216,72.7052,-710.511,0,0
135477,73.1023,-706.715,0,0
135737,73.5136,-703.034,0,0
135997,73.9428,-699.326,0,0
136258,74.3544,-695.677,0,0
136518,74.8504,-692.053,0,0
136778,75.4703,-688.484,0,0
137039,76.0535,-685.031,0,0
137299,76.5169,-681.707,0,0
137559,76.9079,-678.288,0,0
137819,77.2072,-674.825,0,0
138080,77.4868,-671.224,0,0
138340.125,77.8309,-667.556,0,0
138600.45,78.2635,-663.841,0,0
138860.775,78.7259,-660.107,0,0
139121.1,79.2064,-656.304,0,0
139381.425,79.8198,-652.444,0,0
139641.75,80.5595,-648.641,0,0
139902.075,81.2794,-644.861,0,0
140162.4,82.0402,-641.026,0,0
140422.725,82.8821,-637.169,0,0
140683.05,83.7913,-633.289,0,0
140943.375,84.8183,-629.435,0,0
141203.7,85.9022,-625.616,0,0
141464.025,87.0695,-621.867,0,0
141724.35,88.224,-618.163,0,0
141984.675,89.4555,-614.47,0,0
142245.0,90.6744,-610.882,0,0
142505.325,91.8759,-607.248,0,0
142765.65,93.096,-603.602,0,0
143025.975,94.3879,-599.956,0,0
143286.3,95.7061,-596.323,0,0
143546.625,97.0568,-592.749,0,0
143806.95,98.3775,-589.165,0,0
144067.275,99.6478,-585.528,0,0
144327.6,101.03,-581.814,0,0
144587.925,102.482,-578.124,0,0
144848.25,103.937,-574.429,0,0
145108.575,105.438,-570.672,0,0
145368.9,107.036,-566.86,0,0
145629.225,108.76,-563.074,0,0
145889.55,110.527,-559.342,0,0
146149.875,112.385,-555.537,0,0
146410.2,114.3,-551.824,0,0
146670.525,116.298,-548.094,0,0
146930.85,118.36,-544.421,0,0
147191.175,120.453,-540.804,0,0
147451.5,122.568,-537.181,0,0
147711.825,124.72,-533.558,0,0
147972.15,126.924,-529.941,0,0
148232.475,129.187,-526.266,0,0
148492.8,131.608,-522.611,0,0
148753.125,134.073,-518.995,0,0
149013.45,136.636,-515.395,0,0
149273.775,139.216,-511.863,0,0
149534.1,141.792,-508.279,0,0
149794.425,144.466,-504.621,0,0
150054.75,147.34,-500.895,0,0
150315.075,150.366,-497.256,0,0
150575.4,153.534,-493.629,0,0
150835.725,156.847,-490.013,0,0
151096.05,160.384,-486.453,0,0
151356.375,164.14,-483.042,0,0
151616.7,167.997,-479.789,0,0
151877.025,171.896,-476.685,0,0
152137.35,175.958,-473.514,0,0
152397.675,180.45,-470.528,0,0
152658.0,185.198,-468.056,0,0
152918.325,189.76,-466.002,0,0
153178.65,194.235,-464.022,0,0
153438.975,198.828,-462.275,0,0
153699.3,203.395,-460.895,0,0
153959.625,207.82,-459.812,0,0
154219.95,212.067,-458.916,0,0
154480,216.25,-458.294,0,0
154741,219.827,-457.878,0,0
155001,222.978,-457.267,0,0
155261,226.263,-456.237,0,0
155522,229.794,-455.083,0,0
155782,233.694,-454.233,0,0
156042,237.451,-453.866,0,0
156303,240.691,-453.726,0,0
156563,243.614,-453.54,0,0
156823,246.345,-453.034,0,0
157084,249.116,-452.276,0,0
157344,252.062,-451.447,0,0
157604,254.943,-450.619,0,0
157864,257.8,-449.683,0,0
158125,260.795,-448.596,0,0
158385,264.016,-447.325,0,0
158645,267.644,-446.35,0,0
158906,271.384,-445.327,0,0
159166,275.557,-444.508,0,0
159426,280.197,-444.294,0,0
159687,284.588,-444.896,0,0
159947,288.398,-445.789,0,0
160207,292.039,-446.716,0,0
160468,295.631,-447.977,0,0
160728,298.905,-449.745,0,0
160988,301.376,-451.803,0,0
161249,303.183,-453.414,0,0
161509,304.602,-454.593,0,0
161769,306.236,-455.368,0,0
162030,307.738,-456.312,0,0
162290,309.056,-457.057,0,0
162550,310.32,-457.622,0,0
162811,311.243,-458.179,0,0
163071,311.984,-458.224,0,0
163331,312.802,-457.951,0,0
163592,313.75,-457.422,0,0
163852,314.911,-456.645,0,0
164112,315.887,-455.677,0,0
164373,317.219,-454.28,0,0
164633,319.064,-452.605,0,0
164893,321.311,-451.267,0,0
165154,323.433,-449.903,0,0
165414,325.631,-448.281,0,0
165674,328.281,-446.243,0,0
165935,331.652,-444.154,0,0
166195,335.61,-442.347,0,0
166455,340.11,-440.752,0,0
166716,345.046,-439.5,0,0
166976,350.621,-438.802,0,0
167236,356.518,-438.913,0,0
167497,362.408,-439.814,0,0
167757,368.296,-441.249,0,0
168017,374.267,-443.388,0,0
168277,379.785,-446.351,0,0
168538,384.9,-449.731,0,0
168798,389.888,-453.312,0,0
169058,394.939,-457.373,0,0
169319,399.815,-462.438,0,0
169579,403.824,-468.239,0,0
169839,407.26,-474.139,0,0
170100,410.406,-480.658,0,0
170360.075,412.987,-487.92,0,0
170620.4,414.407,-495.831,0,0
170880.725,414.501,-504.086,0,0
171141.05,413.048,-512.248,0,0
171401.375,410.41,-519.499,0,0
171661.7,407.448,-526.089,0,0
171922.025,403.827,-532.655,0,0
172182.35,399.08,-538.676,0,0
172442.675,393.719,-543.853,0,0
172703.0,387.818,-548.326,0,0
172963.325,381.273,-551.925,0,0
173223.65,374.478,-554.348,0,0
173483.975,367.729,-555.994,0,0
173744.3,360.87,-556.737,0,0
174004.625,354.297,-556.528,0,0
174264.95,347.955,-555.818,0,0
174525.275,341.801,-554.419,0,0
174785.6,336.139,-552.427,0,0
175045.925,330.723,-550.177,0,0
175306.25,325.261,-547.485,0,0
175566.575,320.107,-543.972,0,0
175826.9,315.659,-539.91,0,0
176087.225,311.747,-535.688,0,0
176347.55,308.215,-531.119,0,0
176607.875,305.276,-526.318,0,0
176868.2,302.906,-521.433,0,0
177128.525,301.016,-516.593,0,0
177388.85,299.504,-511.816,0,0
177649.175,298.369,-507.082,0,0
177909.5,297.611,-502.45,0,0
178169.825,297.09,-498.051,0,0
178430.15,296.621,-493.77,0,0
178690.475,296.313,-489.463,0,0
178950.8,296.176,-485.11,0,0
179211.125,296.323,-480.767,0,0
179471.45,296.726,-476.505,0,0
179731.775,297.435,-472.423,0,0
179992.1,298.28,-468.597,0,0
180252.425,299.133,-464.979,0,0
180512.75,300.006,-461.455,0,0
180773.075,300.86,-458.013,0,0
181033.4,301.754,-454.665,0,0
181293.725,302.657,-451.399,0,0
181554.05,303.48,-448.211,0,0
181814.375,304.287,-445.024,0,0
182074.7,305.05,-441.843,0,0
182335.025,305.737,-438.67,0,0
182595.35,306.32,-435.433,0,0
182855.675,306.879,-432.058,0,0
183116.0,307.36,-428.548,0,0
183376.325,307.899,-424.828,0,0
183636.65,308.505,-420.94,0,0
183896.975,309.223,-416.912,0,0
184157.3,310.057,-412.743,0,0
184417.625,311.02,-408.413,0,0
184677.95,312.153,-404.006,0,0
184938.275,313.406,-399.486,0,0
185198.6,314.834,-394.832,0,0
185458.925,316.477,-390.144,0,0
185719.25,318.29,-385.444,0,0
185979.575,320.168,-380.715,0,0
186239.9,322.161,-375.848,0,0
186500,324.282,-370.851,0,0
186761,326.642,-365.809,0,0
187021,329.166,-360.656,0,0
187281,331.884,-355.418,0,0
187542,334.769,-350.093,0,0
187802,337.894,-344.632,0,0
188062,341.225,-339.092,0,0
188322,344.87,-333.521,0,0
188583,348.808,-327.906,0,0
188843,353.024,-322.169,0,0
189103,357.418,-316.48,0,0
189364,362.12,-310.664,0,0
189624,367.217,-304.806,0,0
189884,372.671,-298.953,0,0
190145,378.56,-293.142,0,0
190405,384.856,-287.466,0,0
190665,391.421,-281.847,0,0
190926,398.332,-276.428,0,0
191186,405.531,-271.075,0,0
191446,413.126,-265.706,0,0
191707,421.176,-260.545,0,0
191967,429.576,-255.604,0,0
192227,438.48,-250.871,0,0
192488,447.65,-246.342,0,0
192748,457.273,-242.252,0,0
193008,467.153,-238.393,0,0
193269,477.299,-234.926,0,0
193529,487.78,-231.866,0,0
193789,498.406,-228.887,0,0
194050,509.444,-226.385,0,0
194310,520.531,-224.285,0,0
194570,531.867,-222.579,0,0
194831,543.409,-221.138,0,0
195091,555.173,-220.038,0,0
195351,567.002,-219.166,0,0
195612,579.116,-218.46,0,0
195872,591.581,-217.985,0,0
196132,604.462,-217.826,0,0
196393,617.8,-218.101,0,0
196653,631.472,-218.854,0,0
196913,645.549,-220.044,0,0
197174,660.109,-221.826,0,0
197434,675.062,-224.325,0,0
197694,690.347,-227.543,0,0
197955,705.996,-231.522,0,0
198215,721.955,-236.376,0,0
198475,738.123,-242.196,0,0
198735,754.526,-248.829,0,0
198996,771.363,-256.713,0,0
199256,788.246,-266.015,0,0
199516,804.896,-276.813,0,0
199777,821.034,-289.122,0,0
200037,836.486,-302.607,0,0
200297,851.198,-317.325,0,0
200558,865.145,-333.417,0,0
200818,877.793,-350.672,0,0
201078,889.05,-368.724,0,0
201339,899.199,-387.297,0,0
201599,908.038,-406.53,0,0
201859,915.321,-426.374,0,0
202120,921.005,-445.996,0,0
202380.025,925.929,-465.447,0,0
202640.35,929.534,-485.016,0,0
202900.675,931.884,-504.14,0,0
203161.0,933.66,-522.634,0,0
203421.325,935.46,-541.241,0,0
203681.65,936.608,-560.63,0,0
203941.975,936.176,-580.777,0,0
204202.3,933.793,-600.596,0,0
204462.625,929.963,-619.422,0,0
204722.95,925.54,-636.892,0,0
204983.275,920.831,-653.84,0,0
205243.6,915.551,-670.855,0,0
205503.925,909.434,-686.925,0,0
205764.25,902.974,-702.435,0,0
206024.575,896.293,-717.484,0,0
206284.9,889.174,-731.985,0,0
206545.225,882.062,-746.07,0,0
206805.55,874.964,-760.538,0,0
207065.875,867.087,-775.22,0,0
207326.2,858.007,-790.163,0,0
207586.525,847.457,-804.574,0,0
207846.85,835.681,-818.045,0,0
208107.175,823.177,-830.285,0,0
208367.5,810.185,-841.309,0,0
208627.825,796.775,-851.321,0,0
208888.15,782.921,-860.277,0,0
209148.475,768.852,-867.808,0,0
209408.8,754.774,-873.996,0,0
209669.125,741.403,-879.171,0,0
209929.45,728.087,-883.603,0,0
210189.775,715.313,-887.128,0,0
210450.1,702.84,-889.951,0,0
210710.425,690.979,-892.104,0,0
210970.75,679.275,-893.731,0,0
211231.075,668.147,-894.732,0,0
211491.4,657.526,-895.341,0,0
211751.725,647.309,-895.519,0,0
212012.05,637.678,-895.227,0,0
212272.375,628.59,-894.673,0,0
212532.7,620.114,-893.803,0,0
212793.025,612.312,-893.025,0,0
213053.35,604.527,-892.59,0,0
213313.675,596.695,-891.683,0,0
213574.0,589.342,-890.259,0,0
213834.325,582.529,-888.458,0,0
214094.65,576.394,-886.282,0,0
214354.975,571.304,-884.173,0,0
214615.3,567.053,-882.558,0,0
214875.625,563.384,-881.373,0,0
215135.95,560.069,-881.081,0,0
215396.275,556.732,-881.461,0,0
215656.6,553.059,-882.436,0,0
215916.925,549.143,-883.734,0,0
216177.25,544.739,-885.232,0,0
216437.575,539.809,-886.688,0,0
216697.9,534.48,-887.802,0,0
216958.225,529.056,-888.342,0,0
217218.55,524.024,-888.595,0,0
217478.875,519.271,-888.875,0,0
217739.2,514.617,-889.255,0,0
217999.525,509.89,-889.647,0,0
218259.85,505.204,-890.049,0,0
218520,500.583,-890.427,0,0
218780,496.008,-890.678,0,0
219041,491.617,-890.947,0,0
219301,487.224,-891.478,0,0
219561,482.783,-891.878,0,0
219822,478.224,-892.493,0,0
220082,473.531,-893.003,0,0
220342,468.782,-893.39,0,0
220603,463.867,-893.711,0,0
220863,458.981,-893.872,0,0
221123,454.127,-893.734,0,0
221384,449.398,-893.447,0,0
221644,444.857,-893.346,0,0
221904,440.28,-893.067,0,0
222165,435.747,-892.759,0,0
222425,431.269,-892.502,0,0
222685,426.833,-892,0,0
222946,422.532,-891.528,0,0
223206,418.416,-891.026,0,0
223466,414.315,-890.548,0,0
223727,410.35,-890.175,0,0
223987,406.542,-889.842,0,0
224247,402.725,-889.798,0,0
224508,398.752,-889.948,0,0
224768,394.792,-890.288,0,0
225028,390.293,-890.453,0,0
225289,385.841,-890.77,0,0
225549,381.088,-890.921,0,0
225809,376.25,-890.862,0,0
226070,371.242,-890.813,0,0
226330,366.024,-890.548,0,0
226590,360.863,-890.119,0,0
226851,355.648,-889.551,0,0
227111,350.277,-888.895,0,0
227371,344.755,-887.978,0,0
227632,339.165,-886.865,0,0
227892,333.576,-885.456,0,0
228152,327.874,-883.787,0,0
228413,322.244,-881.697,0,0
228673,316.685,-879.299,0,0
228933,311.449,-876.594,0,0
229193,306.449,-873.707,0,0
229454,301.669,-870.756,0,0
229714,297.052,-867.6,0,0
229974,292.761,-864.279,0,0
230235,288.403,-861.127,0,0
230495,284.431,-857.674,0,0
230755,280.534,-854.192,0,0
231016,276.898,-850.782,0,0
231276,273.465,-847.183,0,0
231536,270.198,-843.662,0,0
231797,267.07,-840.099,0,0
232057,264.117,-836.633,0,0
232317,261.256,-833.22,0,0
232578,258.547,-829.689,0,0
232838,255.929,-826.187,0,0
233098,253.537,-822.699,0,0
233359,251.291,-819.314,0,0
233619,249.093,-816.037,0,0
233879,246.944,-812.739,0,0
234140,244.833,-809.442,0,0
234400,242.89,-806.066,0,0
234660.3,241.158,-802.749,0,0
234920.625,239.507,-799.51,0,0
235180.95,237.889,-796.477,0,0
235441.275,236.413,-793.478,0,0
235701.6,234.721,-790.57,0,0
235961.925,233.178,-787.666,0,0
236222.25,231.563,-784.701,0,0
236482.575,230.015,-781.629,0,0
236742.9,228.588,-778.567,0,0
237003.225,227.19,-775.478,0,0
237263.55,225.923,-772.289,0,0
237523.875,224.796,-769.051,0,0
237784.2,223.924,-765.872,0,0
238044.525,223.239,-762.738,0,0
238304.85,222.678,-759.736,0,0
238565.175,222.243,-756.914,0,0
238825.5,221.936,-754.213,0,0
239085.825,221.642,-751.633,0,0
239346.15,221.424,-749.162,0,0
239606.475,221.104,-746.83,0,0
239866.8,220.874,-744.562,0,0
240127.125,220.733,-742.498,0,0
240387.45,220.516,-740.535,0,0
240647.775,220.238,-738.63,0,0
240908.1,219.907,-736.823,0,0
241168.425,219.607,-734.966,0,0
241428.75,219.373,-733.28,0,0
241689.075,219.046,-731.679,0,0
241949.4,218.732,-730.139,0,0
242209.725,218.305,-728.753,0,0
242470.05,217.846,-727.34,0,0
242730.375,217.291,-726.006,0,0
242990.7,216.685,-724.706,0,0
243251.025,216.05,-723.42,0,0
243511.35,215.261,-722.214,0,0
243771.675,214.448,-721.026,0,0
244032.0,213.401,-719.794,0,0
244292.325,212.357,-718.555,0,0
244552.65,211.194,-717.225,0,0
244812.975,209.868,-715.765,0,0
245073.3,208.653,-714.176,0,0
245333.625,207.205,-712.443,0,0
245593.95,206.019,-710.602,0,0
245854.275,204.896,-708.636,0,0
246114.6,203.801,-706.674,0,0
246374.925,202.724,-704.683,0,0
246635.25,201.69,-702.647,0,0
246895.575,200.713,-700.43,0,0
247155.9,199.84,-698.192,0,0
247416.225,199.192,-695.949,0,0
247676.55,198.647,-693.779,0,0
247936.875,198.163,-691.722,0,0
248197.2,197.671,-689.745,0,0
248457.525,197.173,-687.754,0,0
248717.85,196.659,-685.796,0,0
248978.175,196.194,-683.806,0,0
249238.5,195.821,-681.752,0,0
249498.825,195.477,-679.791,0,0
249759.15,195.127,-677.976,0,0
250019.475,194.888,-676.194,0,0
250279.8,194.664,-674.431,0,0
250540,194.393,-672.717,0,0
250800,194.086,-671.098,0,0
251061,193.717,-669.56,0,0
251321,193.208,-668.086,0,0
251581,192.6,-666.692,0,0
251842,191.878,-665.175,0,0
252102,191.004,-663.589,0,0
252362,190.045,-661.877,0,0
252623,188.993,-660.033,0,0
252883,187.911,-658.007,0,0
253143,186.874,-655.792,0,0
253404,185.95,-653.36,0,0
253664,185.153,-650.846,0,0
253924,184.479,-648.375,0,0
254185,183.852,-645.809,0,0
254445,183.213,-643.24,0,0
254705,182.647,-640.588,0,0
254966,182.051,-637.824,0,0
255226,181.425,-634.839,0,0
255486,180.925,-631.703,0,0
255747,180.613,-628.397,0,0
256007,180.458,-624.91,0,0
256267,180.599,-621.325,0,0
256528,180.97,-617.69,0,0
256788,181.528,-614.074,0,0
257048,182.275,-610.421,0,0
257309,183.232,-606.702,0,0
257569,184.51,-602.987,0,0
257829,186.032,-599.352,0,0
258090,187.735,-595.832,0,0
258350,189.596,-592.345,0,0
258610,191.658,-588.806,0,0
258871,194.115,-585.264,0,0
259131,196.955,-581.939,0,0
259391,200.068,-578.983,0,0
259651,203.257,-576.363,0,0
259912,206.524,-573.92,0,0
260172,209.733,-571.654,0,0
260432,213.038,-569.413,0,0
260693,216.544,-567.218,0,0
260953,220.374,-565.216,0,0
261213,224.452,-563.517,0,0
261474,228.713,-562.271,0,0
261734,232.945,-561.383,0,0
261994,237.035,-560.792,0,0
262255,241.062,-560.324,0,0
262515,245.14,-559.901,0,0
262775,249.444,-559.672,0,0
263036,253.948,-559.809,0,0
263296,258.522,-560.371,0,0
263556,263.055,-561.435,0,0
263817,267.401,-562.897,0,0
264077,271.507,-564.64,0,0
264337,275.52,-566.658,0,0
264598,279.309,-568.992,0,0
264858,282.888,-571.559,0,0
265118,286.154,-574.394,0,0
265379,289.159,-577.343,0,0
265639,292.047,-580.395,0,0
265899,294.706,-583.535,0,0
266160,297.207,-586.869,0,0
266420,299.504,-590.348,0,0
266680.25,301.568,-593.956,0,0
266940.575,303.488,-597.629,0,0
267200.9,305.387,-601.468,0,0
267461.225,307.13,-605.723,0,0
267721.55,308.464,-610.285,0,0
267981.875,309.372,-615.036,0,0
268242.2,309.856,-620.086,0,0
268502.525,309.781,-625.24,0,0
268762.85,309.047,-630.433,0,0
269023.175,307.637,-635.452,0,0
269283.5,305.594,-640.196,0,0
269543.825,302.866,-644.384,0,0
269804.15,299.902,-647.874,0,0
270064.475,296.915,-650.599,0,0
270324.8,294.214,-652.804,0,0
270585.125,291.708,-654.843,0,0
270845.45,289.454,-656.64,0,0
271105.775,287.39,-658.467,0,0
271366.1,285.412,-660.311,0,0
271626.425,283.391,-662.164,0,0
271886.75,281.368,-663.932,0,0
272147.075,279.493,-665.734,0,0
272407.4,277.551,-667.623,0,0
272667.725,275.535,-669.617,0,0
272928.05,273.29,-671.627,0,0
273188.375,270.959,-673.569,0,0
273448.7,268.543,-675.444,0,0
273709.025,265.971,-677.359,0,0
273969.35,263.261,-679.298,0,0
274229.675,260.311,-681.134,0,0
274490.0,257.187,-682.874,0,0
274750.325,253.833,-684.629,0,0
275010.65,250.081,-686.081,0,0
275270.975,246.172,-687.29,0,0
275531.3,242.092,-688.134,0,0
275791.625,238.007,-688.577,0,0
276051.95,233.924,-688.741,0,0
276312.275,229.887,-688.772,0,0
276572.6,225.743,-688.561,0,0
276832.925,221.477,-688.111,0,0
277093.25,217.099,-687.213,0,0
277353.575,212.824,-685.865,0,0
277613.9,208.665,-684.098,0,0
277874.225,204.688,-681.879,0,0
278134.55,201.02,-679.231,0,0
278394.875,197.759,-676.247,0,0
278655.2,194.945,-672.978,0,0
278915.525,192.762,-669.527,0,0
279175.85,191.171,-666.132,0,0
279436.175,190.081,-662.845,0,0
279696.5,189.363,-659.831,0,0
279956.825,189.014,-657.138,0,0
280217.15,188.909,-654.778,0,0
280477.475,188.851,-652.966,0,0
280737.8,188.712,-651.36,0,0
280998.125,188.408,-649.915,0,0
281258.45,188.007,-648.576,0,0
281518.775,187.503,-647.313,0,0
281779.1,186.84,-645.964,0,0
282039.425,186.19,-644.429,0,0
282299.75,185.734,-642.753,0,0
282560,185.559,-641.047,0,0
282820,185.685,-639.526,0,0
283081,185.968,-638.253,0,0
283341,186.33,-637.299,0,0
283601,186.691,-636.663,0,0
283862,186.847,-636.33,0,0
284122,186.731,-636.172,0,0
284382,186.346,-636.037,0,0
284643,185.782,-635.797,0,0
284903,185.215,-635.526,0,0
285163,184.557,-635.368,0,0
285424,183.663,-635.197,0,0
285684,182.549,-635.027,0,0
285944,181.285,-634.719,0,0
286205,179.83,-634.25,0,0
286465,178.247,-633.467,0,0
286725,176.668,-632.455,0,0
286986,175.246,-631.24,0,0
287246,173.829,-629.956,0,0
287506,172.413,-628.508,0,0
287767,171.02,-626.88,0,0
288027,169.677,-624.995,0,0
288287,168.442,-622.89,0,0
288548,167.346,-620.515,0,0
288808,166.555,-617.841,0,0
289068,166.134,-614.935,0,0
289329,166.209,-611.949,0,0
289589,166.786,-609.053,0,0
289849,167.744,-606.321,0,0
290109,169.05,-603.824,0,0
290370,170.581,-601.578,0,0
290630,172.388,-599.603,0,0
290890,174.41,-597.908,0,0
291151,176.565,-596.539,0,0
291411,178.867,-595.451,0,0
291671,181.272,-594.71,0,0
291932,183.759,-594.336,0,0
292192,186.282,-594.346,0,0
292452,188.77,-594.742,0,0
292713,191.171,-595.563,0,0
292973,193.399,-596.799,0,0
293233,195.296,-598.358,0,0
293494,196.935,-600.208,0,0
293754,198.233,-602.229,0,0
294014,199.259,-604.379,0,0
294275,200.019,-606.709,0,0
294535,200.457,-609.14,0,0
294795,200.499,-611.685,0,0
295056,200.187,-614.265,0,0
295316,199.475,-616.822,0,0
295576,198.438,-619.276,0,0
295837,197.014,-621.572,0,0
296097,195.32,-623.67,0,0
296357,193.322,-625.52,0,0
296618,191.127,-627.043,0,0
296878,188.818,-628.228,0,0
297138,186.484,-629.095,0,0
297399,184.211,-629.708,0,0
297659,181.997,-630.134,0,0
297919,179.814,-630.391,0,0
298180,177.699,-630.489,0,0
298440,175.669,-630.431,0,0
298700.2,173.772,-630.265,0,0
298960.525,171.959,-630.057,0,0
299220.85,170.239,-629.818,0,0
299481.175,168.552,-629.591,0,0
299741.5,166.859,-629.385,0,0
300001.825,165.164,-629.151,0,0
300262.15,163.471,-628.825,0,0
300522.475,161.766,-628.466,0,0
300782.8,160.081,-628.045,0,0
301043.125,158.36,-627.582,0,0
301303.45,156.661,-627.01,0,0
301563.775,154.996,-626.365,0,0
301824.1,153.377,-625.626,0,0
302084.425,151.852,-624.852,0,0
302344.75,150.412,-624.065,0,0
302605.075,148.999,-623.272,0,0
302865.4,147.61,-622.548,0,0
303125.725,146.178,-621.78,0,0
303386.05,144.713,-620.968,0,0
303646.375,143.25,-620.081,0,0
303906.7,141.831,-619.105,0,0
304167.025,140.438,-618.066,0,0
304427.35,139.118,-617.003,0,0
304687.675,137.843,-615.841,0,0
304948.0,136.638,-614.638,0,0
305208.325,135.522,-613.397,0,0
305468.65,134.502,-612.174,0,0
305728.975,133.539,-610.972,0,0
305989.3,132.599,-609.765,0,0
306249.625,131.713,-608.54,0,0
306509.95,130.899,-607.292,0,0
306770.275,130.129,-606.062,0,0
307030.6,129.443,-604.818,0,0
307290.925,128.845,-603.595,0,0
307551.25,128.302,-602.427,0,0
307811.575,127.806,-601.315,0,0
308071.9,127.378,-600.226,0,0
308332.225,126.989,-599.197,0,0
308592.55,126.651,-598.236,0,0
308852.875,126.296,-597.372,0,0
309113.2,125.947,-596.61,0,0
309373.525,125.568,-595.918,0,0
309633.85,125.108,-595.269,0,0
309894.175,124.591,-594.645,0,0
310154.5,124.014,-594.054,0,0
310414.825,123.346,-593.447,0,0
310675.15,122.636,-592.781,0,0
310935.475,121.881,-592.06,0,0
311195.8,121.139,-591.268,0,0
311456.125,120.392,-590.42,0,0
311716.45,119.681,-589.517,0,0
311976.775,119.016,-588.592,0,0
312237.1,118.398,-587.652,0,0
312497.425,117.815,-586.726,0,0
312757.75,117.195,-585.795,0,0
313018.075,116.644,-584.821,0,0
313278.4,116.118,-583.813,0,0
313538.725,115.652,-582.788,0,0
313799.05,115.247,-581.771,0,0
314059.375,114.932,-580.793,0,0
314319.7,114.66,-579.849,0,0
314580,114.387,-578.991,0,0
314840,114.216,-578.183,0,0
315101,113.911,-577.348,0,0
315361,113.676,-576.615,0,0
315621,113.537,-575.815,0,0
315882,113.246,-575.123,0,0
316142,113.055,-574.488,0,0
316402,112.829,-573.827,0,0
316663,112.671,-573.175,0,0
316923,112.433,-572.643,0,0
317183,112.235,-572.121,0,0
317444,112.074,-571.551,0,0
317704,111.839,-571.151,0,0
317964,111.578,-570.724,0,0
318225,111.383,-570.387,0,0
318485,111.103,-570.049,0,0
318745,110.81,-569.712,0,0
319006,110.52,-569.534,0,0
319266,110.072,-569.251,0,0
319526,109.652,-569.173,0,0
319787,109.17,-569.028,0,0
320047,108.521,-568.997,0,0
320307,107.857,-568.893,0,0
320567,107.135,-568.824,0,0
320828,106.276,-568.75,0,0
321088,105.408,-568.611,0,0
321348,104.325,-568.466,0,0
321609,103.234,-568.327,0,0
321869,101.953,-568.046,0,0
322129,100.625,-567.791,0,0
322390,99.2021,-567.236,0,0
322650,97.7737,-566.712,0,0
322910,96.2911,-565.881,0,0
323171,94.8429,-564.895,0,0
323431,93.4213,-563.906,0,0
323691,92.1227,-562.657,0,0
323952,90.8965,-561.327,0,0
324212,89.8451,-559.964,0,0
324472,88.8032,-558.532,0,0
324733,87.9766,-557.128,0,0
324993,87.165,-555.734,0,0
325253,86.5789,-554.405,0,0
325514,85.9032,-553.093,0,0
325774,85.279,-551.727,0,0
326034,84.6829,-550.567,0,0
326295,84.0287,-549.29,0,0
326555,83.4863,-547.975,0,0
326815,82.8108,-546.762,0,0
327076,82.2469,-545.462,0,0
327336,81.6464,-544.128,0,0
327596,81.1228,-542.739,0,0
327857,80.6067,-541.326,0,0
328117,80.1836,-539.937,0,0
328377,79.7919,-538.491,0,0
328638,79.4516,-537.068,0,0
328898,79.1423,-535.566,0,0
329158,78.8735,-534.149,0,0
329419,78.7301,-532.708,0,0
329679,78.645,-531.184,0,0
329939,78.6204,-529.732,0,0
330200,78.5939,-528.361,0,0
330460,78.7629,-526.998,0,0
330720.15,78.9661,-525.736,0,0
330980.475,79.1453,-524.557,0,0
331240.8,79.4471,-523.355,0,0
331501.125,79.6342,-522.301,0,0
331761.45,79.9865,-521.306,0,0
332021.775,80.2703,-520.373,0,0
332282.1,80.5834,-519.551,0,0
332542.425,80.7778,-518.754,0,0
332802.75,81.1072,-518.064,0,0
333063.075,81.2451,-517.454,0,0
333323.4,81.3771,-516.877,0,0
333583.725,81.3843,-516.385,0,0
333844.05,81.3398,-515.838,0,0
334104.375,81.209,-515.325,0,0
334364.7,81.0044,-514.711,0,0
334625.025,80.8377,-514.172,0,0
334885.35,80.5588,-513.575,0,0
335145.675,80.2343,-512.91,0,0
335406.0,79.9051,-512.276,0,0
335666.325,79.5315,-511.574,0,0
335926.65,79.1446,-510.782,0,0
336186.975,78.5831,-509.987,0,0
336447.3,78.1567,-509.151,0,0
336707.625,77.6888,-508.122,0,0
336967.95,77.2662,-507.09,0,0
337228.275,76.8921,-506.003,0,0
337488.6,76.5793,-504.806,0,0
337748.925,76.3336,-503.667,0,0
338009.25,76.1099,-502.5,0,0
338269.575,75.8789,-501.278,0,0
338529.9,75.7497,-500.069,0,0
338790.225,75.6427,-498.851,0,0
339050.55,75.5758,-497.552,0,0
339310.875,75.5523,-496.305,0,0
339571.2,75.6043,-494.96,0,0
339831.525,75.6905,-493.633,0,0
340091.85,75.8277,-492.408,0,0
340352.175,76.0919,-491.054,0,0
340612.5,76.3461,-489.693,0,0
340872.825,76.7638,-488.428,0,0
341133.15,77.2541,-487.153,0,0
341393.475,77.8451,-485.892,0,0
341653.8,78.4506,-484.779,0,0
341914.125,79.1659,-483.604,0,0
342174.45,79.9248,-482.651,0,0
342434.775,80.7993,-481.675,0,0
342695.1,81.6634,-480.873,0,0
342955.425,82.5717,-480.243,0,0
343215.75,83.4702,-479.6,0,0
343476.075,84.355,-479.166,0,0
343736.4,85.1768,-478.84,0,0
343996.725,86.0264,-478.563,0,0
344257.05,86.727,-478.393,0,0
344517.375,87.4002,-478.281,0,0
344777.7,87.9638,-478.228,0,0
345038.025,88.448,-478.281,0,0
345298.35,88.9114,-478.272,0,0
345558.675,89.2474,-478.316,0,0
345819.0,89.5398,-478.374,0,0
346079.325,89.7877,-478.521,0,0
346339.65,89.8856,-478.617,0,0
346599.975,89.9745,-478.755,0,0
346860,90.0028,-478.798,0,0
347121,89.9009,-478.859,0,0
347381,89.8096,-478.922,0,0
347641,89.6411,-478.905,0,0
347902,89.4571,-478.91,0,0
348162,89.2058,-478.83,0,0
348422,88.8722,-478.796,0,0
348683,88.537,-478.628,0,0
348943,88.2307,-478.453,0,0
349203,87.8417,-478.221,0,0
349464,87.4199,-477.979,0,0
349724,87.0155,-477.647,0,0
349984,86.6317,-477.306,0,0
350245,86.2274,-476.872,0,0
350505,85.8175,-476.484,0,0
350765,85.4567,-476.087,0,0
351025,85.0814,-475.585,0,0
351286,84.6925,-475.11,0,0
351546,84.2727,-474.597,0,0
351806,83.8579,-473.997,0,0
352067,83.4821,-473.397,0,0
352327,83.1053,-472.778,0,0
352587,82.7953,-472.041,0,0
352848,82.4623,-471.319,0,0
353108,82.2115,-470.454,0,0
353368,82.052,-469.711,0,0
353629,81.9857,-468.93,0,0
353889,81.9477,-468.156,0,0
354149,81.906,-467.495,0,0
354410,81.9029,-466.848,0,0
354670,81.947,-466.217,0,0
354930,81.936,-465.666,0,0
355191,81.9496,-465.132,0,0
355451,81.869,-464.603,0,0
355711,81.8324,-464.075,0,0
355972,81.7671,-463.497,0,0
356232,81.7057,-462.991,0,0
356492,81.5679,-462.508,0,0
356753,81.5069,-462.001,0,0
357013,81.3874,-461.503,0,0
357273,81.2979,-461.026,0,0
357534,81.1347,-460.485,0,0
357794,81.0145,-459.938,0,0
358054,80.7799,-459.441,0,0
358315,80.5947,-458.899,0,0
358575,80.373,-458.32,0,0
358835,80.1068,-457.678,0,0
359096,79.9152,-457.121,0,0
359356,79.7543,-456.473,0,0
359616,79.4998,-455.766,0,0
359877,79.2787,-455.069,0,0
360137,79.0865,-454.334,0,0
360397,78.9049,-453.603,0,0
360658,78.7322,-452.813,0,0
360918,78.5919,-451.887,0,0
361178,78.5264,-451.061,0,0
361438,78.5411,-450.167,0,0
361699,78.5809,-449.362,0,0
361959,78.6452,-448.524,0,0
362219,78.8085,-447.715,0,0
362480,78.9471,-446.981,0,0
362740.1,79.0927,-446.3,0,0
363000.425,79.2324,-445.556,0,0
363260.75,79.3506,-444.936,0,0
363521.075,79.4366,-444.276,0,0
363781.4,79.5224,-443.651,0,0
364041.725,79.6153,-443.051,0,0
364302.05,79.6954,-442.41,0,0
364562.375,79.6896,-441.81,0,0
364822.7,79.6725,-441.153,0,0
365083.025,79.6584,-440.465,0,0
365343.35,79.6305,-439.77,0,0
365603.675,79.5959,-438.983,0,0
365864.0,79.585,-438.148,0,0
366124.325,79.5146,-437.289,0,0
366384.65,79.5978,-436.315,0,0
366644.975,79.7358,-435.329,0,0
366905.3,79.914,-434.348,0,0
367165.625,80.2074,-433.39,0,0
367425.95,80.494,-432.36,0,0
367686.275,80.8474,-431.372,0,0
367946.6,81.2679,-430.42,0,0
368206.925,81.7543,-429.437,0,0
368467.25,82.2879,-428.495,0,0
368727.575,82.8969,-427.564,0,0
368987.9,83.6059,-426.654,0,0
369248.225,84.3772,-425.851,0,0
369508.55,85.1593,-425.102,0,0
369768.875,85.9977,-424.397,0,0
370029.2,86.8438,-423.74,0,0
370289.525,87.653,-423.081,0,0
370549.85,88.5581,-422.472,0,0
370810.175,89.5151,-421.909,0,0
371070.5,90.5836,-421.404,0,0
371330.825,91.6956,-421.036,0,0
371591.15,92.842,-420.791,0,0
371851.475,93.9839,-420.663,0,0
372111.8,95.1608,-420.678,0,0
372372.125,96.229,-420.725,0,0
372632.45,97.3127,-420.961,0,0
372892.775,98.3264,-421.292,0,0
373153.1,99.2453,-421.751,0,0
373413.425,100.128,-422.314,0,0
373673.75,100.875,-422.944,0,0
373934.075,101.518,-423.685,0,0
374194.4,101.963,-424.431,0,0
374454.725,102.299,-425.214,0,0
374715.05,102.489,-425.956,0,0
374975.375,102.484,-426.687,0,0
375235.7,102.385,-427.284,0,0
375496.025,102.245,-427.791,0,0
375756.35,102.088,-428.216,0,0
376016.675,101.936,-428.536,0,0
376277.0,101.747,-428.824,0,0
376537.325,101.639,-429.07,0,0
376797.65,101.512,-429.356,0,0
377057.975,101.339,-429.581,0,0
377318.3,101.146,-429.759,0,0
377578.625,101.008,-429.945,0,0
377838.95,100.841,-430.095,0,0
378099.275,100.679,-430.292,0,0
378359.6,100.517,-430.483,0,0
378619.925,100.333,-430.621,0,0
378880,100.113,-430.815,0,0
379141,99.8969,-430.997,0,0
379401,99.5995,-431.121,0,0
379661,99.3213,-431.227,0,0
379922,99.0181,-431.33,0,0
380182,98.7441,-431.324,0,0
380442,98.4904,-431.4,0,0
380703,98.1005,-431.467,0,0
380963,97.7761,-431.414,0,0
381223,97.3903,-431.348,0,0
381483,97.1217,-431.1,0,0
381744,96.9197,-430.868,0,0
382004,96.7423,-430.607,0,0
382264,96.8036,-430.333,0,0
382525,96.9308,-430.195,0,0
382785,97.183,-430.199,0,0
383045,97.4355,-430.349,0,0
383306,97.67,-430.581,0,0
383566,97.8006,-431.085,0,0
383826,97.82,-431.668,0,0
384087,97.618,-432.365,0,0
384347,97.2933,-433.037,0,0
384607,96.8739,-433.643,0,0
384868,96.3007,-434.301,0,0
385128,95.5054,-434.901,0,0
385388,94.6447,-435.397,0,0
385649,93.7212,-435.847,0,0
385909,92.5939,-436.097,0,0
386169,91.4373,-436.309,0,0
386430,90.2883,-436.389,0,0
386690,89.0644,-436.305,0,0
386950,87.8414,-436.065,0,0
387211,86.6381,-435.67,0,0
387471,85.449,-435.126,0,0
387731,84.4027,-434.446,0,0
387992,83.4427,-433.69,0,0
388252,82.58,-432.797,0,0
388512,81.8683,-431.937,0,0
388773,81.2564,-430.959,0,0
389033,80.7898,-429.96,0,0
389293,80.4508,-429.024,0,0
389554,80.2267,-428.052,0,0
389814,80.1809,-427.227,0,0
390074,80.2367,-426.429,0,0
390335,80.4162,-425.829,0,0
390595,80.612,-425.359,0,0
390855,80.8034,-424.991,0,0
391116,80.9913,-424.798,0,0
391376,81.1286,-424.717,0,0
391636,81.1722,-424.854,0,0
391896,81.0697,-425.067,0,0
392157,80.7996,-425.321,0,0
392417,80.3551,-425.612,0,0
392677,79.7618,-425.85,0,0
392938,79.0177,-426.031,0,0
393198,78.2024,-426.066,0,0
393458,77.2585,-426.028,0,0
393719,76.3389,-425.856,0,0
393979,75.302,-425.588,0,0
394239,74.322,-425.214,0,0
394500,73.3713,-424.74,0,0
394760.05,72.365,-424.182,0,0
395020.375,71.4657,-423.502,0,0
395280.7,70.5617,-422.783,0,0
395541.025,69.7405,-422.024,0,0
395801.35,68.9814,-421.218,0,0
396061.675,68.2228,-420.327,0,0
396322.0,67.6075,-419.479,0,0
396582.325,67.0178,-418.558,0,0
396842.65,66.4381,-417.692,0,0
397102.975,65.9072,-416.799,0,0
397363.3,65.4091,-415.898,0,0
397623.625,64.8849,-414.99,0,0
397883.95,64.3876,-414.079,0,0
398144.275,63.9485,-413.149,0,0
398404.6,63.4886,-412.202,0,0
398664.925,63.0802,-411.235,0,0
398925.25,62.7171,-410.243,0,0
399185.575,62.3278,-409.209,0,0
399445.9,62.0447,-408.22,0,0
399706.225,61.7623,-407.213,0,0
399966.55,61.5157,-406.163,0,0
400006.6,61.4872,-406.01,0,0