File: Accelerated corrosion test data/2025-10-17_18-00-03/sample_1.csv
Frequency (Hz),Impedance (ohms),Phase (Radians),Temperature (C),Humidity (%)
10000.0,240.096,-12231.7,0,0
10260.325,240.861,-11915.9,0,0
10520.65,230.517,-11636.3,0,0
10780.975,226.3,-11351,0,0
11041.3,219.001,-11090.8,0,0
11301.625,214.164,-10833.1,0,0
11561.95,210.509,-10588.9,0,0
11822.275,208.84,-10349.6,0,0
12082.6,229.309,-10118.6,0,0
12342.925,212.726,-9944.46,0,0
12603.25,195.197,-9730.78,0,0
12863.575,192.388,-9528.55,0,0
13123.9,202.671,-9335.03,0,0
13384.225,186.312,-9165.18,0,0
13644.55,182.022,-8983.49,0,0
13904.875,183.428,-8805.49,0,0
14165.2,192.352,-8669.72,0,0
14425.525,211.898,-8497.79,0,0
14685.8,205.55,-8334.98,0,0
14946.175,178.46,-8234.78,0,0
15206.5,185.456,-8070.23,0,0
15466.825,175.061,-7957.9,0,0
15727.15,173.14,-7822.74,0,0
15987.5,161.749,-7695.2,0,0
16247.8,158.58,-7568.44,0,0
16508.125,155.311,-7444.92,0,0
16768.45,159.702,-7326.58,0,0
17028.775,164.342,-7218.3,0,0
17289.1,155.83,-7116.03,0,0
17549.425,153.74,-7012.84,0,0
17809.75,148.678,-6907.73,0,0
18070.075,148.902,-6807.13,0,0
18330.4,143.528,-6712.91,0,0
18590.725,138.76,-6617.9,0,0
18851.05,139.735,-6519.23,0,0
19111.375,135.986,-6438.14,0,0
19371.7,134.013,-6345.77,0,0
19632.025,131.999,-6256.83,0,0
19892.35,137.372,-6170.14,0,0
20152.675,136.166,-6083.38,0,0
20413.0,155.857,-5993.98,0,0
20673.3,167.921,-5953.05,0,0
20933.65,150.22,-5883.94,0,0
21193.975,163.02,-5821.65,0,0
21454.3,141.47,-5749.59,0,0
21714.625,135.846,-5676.06,0,0
21974.9,139.806,-5594.39,0,0
22235.275,174.986,-5550.69,0,0
22495.6,141.494,-5509.29,0,0
22755.925,127.234,-5440.57,0,0
23016.25,123.109,-5374.18,0,0
23276.6,119.069,-5312.08,0,0
23536.9,116.683,-5251.23,0,0
23797.225,112.639,-5189.71,0,0
24057.55,115.26,-5128.98,0,0
24317.875,112.738,-5080.39,0,0
24578.2,111.47,-5020.6,0,0
24838.525,111.562,-4970.4,0,0
25098.85,111.351,-4916.54,0,0
25359.175,106.733,-4866.92,0,0
25619.5,105.57,-4815.42,0,0
25879.8,103.61,-4764.2,0,0
26140.1,103.839,-4714.76,0,0
26400.5,103.045,-4665.01,0,0
26660.8,106.252,-4614.29,0,0
26921.1,114.216,-4565.42,0,0
27181.4,122.182,-4534.24,0,0
27441.8,110.487,-4498.94,0,0
27702.1,103.828,-4450.36,0,0
27962.4,110.964,-4400.09,0,0
28222.7,110.935,-4361.75,0,0
28483.1,121.958,-4318.9,0,0
28743.4,131.021,-4299.36,0,0
29003.7,118.006,-4262.49,0,0
29264,119.76,-4229.44,0,0
29524.4,108.505,-4195.91,0,0
29784.7,106.186,-4153.11,0,0
30045,102.836,-4121.29,0,0
30305.3,100.169,-4082.79,0,0
30565.7,97.3014,-4044.16,0,0
30826,101.14,-4008.27,0,0
31086.3,104.432,-3980.22,0,0
31346.6,100.521,-3950.4,0,0
31607,94.517,-3913.51,0,0
31867.3,99.0527,-3880.78,0,0
32127.6,98.0976,-3850.33,0,0
32387.9,98.1845,-3822.8,0,0
32648.3,93.902,-3791.21,0,0
32908.6,96.4364,-3763.11,0,0
33168.9,91.6616,-3734.84,0,0
33429.2,89.6372,-3706.02,0,0
33689.6,86.3449,-3676.14,0,0
33949.9,85.7728,-3644.98,0,0
34210.2,86.7317,-3618.69,0,0
34470.5,83.9385,-3591.69,0,0
34730.9,82.3847,-3563.46,0,0
34991.2,81.8939,-3536.53,0,0
35251.5,80.8565,-3509.88,0,0
35511.8,80.0925,-3483.09,0,0
35772.2,79.3409,-3458.1,0,0
36032.5,78.1688,-3432.26,0,0
36292.8,77.5195,-3406.86,0,0
36553.1,76.8256,-3382.07,0,0
36813.5,76.7117,-3357.24,0,0
37073.8,76.493,-3333.05,0,0
37334.1,75.5235,-3309.79,0,0
37594.4,75.5395,-3286.2,0,0
37854.8,74.6121,-3263.68,0,0
38115.1,73.7509,-3240.54,0,0
38375.4,73.5319,-3217.71,0,0
38635.7,73.2095,-3195.93,0,0
38896.1,72.8503,-3173.78,0,0
39156.4,72.8365,-3151.75,0,0
39416.7,72.6037,-3131.46,0,0
39677,71.5549,-3110.22,0,0
39937.4,71.3336,-3088.65,0,0
40197.7,72.0017,-3068.3,0,0
40458,71.404,-3048.04,0,0
40718.3,71.1326,-3027.28,0,0
40978.7,72.7581,-3008.01,0,0
41239,72.6812,-2989.86,0,0
41499.3,72.0597,-2971.57,0,0
41759.6,71.0794,-2952.81,0,0
42020,70.4619,-2933.85,0,0
42280.275,70.1443,-2915.46,0,0
42540.6,70.4255,-2897.4,0,0
42800.925,69.9222,-2880.34,0,0
43061.25,69.2876,-2862.2,0,0
43321.575,68.9317,-2845.29,0,0
43581.9,68.5012,-2827.78,0,0
43842.225,67.7777,-2810.26,0,0
44102.55,67.9607,-2792.71,0,0
44362.875,68.7107,-2775.81,0,0
44623.2,69.1343,-2760.37,0,0
44883.525,68.304,-2744.7,0,0
45143.85,68.516,-2728.69,0,0
45404.175,68.5825,-2713.02,0,0
45664.5,67.6098,-2698.14,0,0
45924.825,66.7496,-2682.6,0,0
46185.15,66.2748,-2667.2,0,0
46445.475,65.2619,-2651.81,0,0
46705.8,65.0223,-2636.47,0,0
46966.125,64.9906,-2621.99,0,0
47226.45,64.3958,-2606.8,0,0
47486.775,64.3673,-2592.32,0,0
47747.1,64.0095,-2578.25,0,0
48007.425,63.4681,-2563.8,0,0
48267.75,63.4458,-2549.88,0,0
48528.075,62.2886,-2536.69,0,0
48788.4,61.7021,-2521.98,0,0
49048.725,61.4287,-2507.94,0,0
49309.05,61.4285,-2494.04,0,0
49569.375,61.3073,-2480.99,0,0
49829.7,61.0179,-2468.01,0,0
50090.025,60.0596,-2454.6,0,0
50350.35,59.5992,-2441.17,0,0
50610.675,59.3671,-2427.91,0,0
50871.0,59.3799,-2415.15,0,0
51131.325,59.2046,-2402.31,0,0
51391.65,59.2251,-2389.86,0,0
51651.975,58.6908,-2377.68,0,0
51912.3,58.3101,-2365.05,0,0
52172.625,58.1734,-2352.73,0,0
52432.95,57.8654,-2340.59,0,0
52693.275,57.6992,-2328.5,0,0
52953.6,57.6598,-2316.53,0,0
53213.925,57.5135,-2304.87,0,0
53474.25,57.323,-2293.27,0,0
53734.575,57.3096,-2281.62,0,0
53994.9,57.2721,-2270.43,0,0
54255.225,56.67,-2259.37,0,0
54515.55,56.3303,-2248.07,0,0
54775.875,55.9702,-2236.69,0,0
55036.2,55.8988,-2225.45,0,0
55296.525,55.9098,-2214.5,0,0
55556.85,55.7527,-2203.83,0,0
55817.175,55.4506,-2193.3,0,0
56077.5,54.979,-2182.35,0,0
56337.825,54.8851,-2171.54,0,0
56598.15,54.8233,-2161.01,0,0
56858.475,54.7118,-2150.62,0,0
57118.8,54.5914,-2140.28,0,0
57379.125,54.5161,-2130.04,0,0
57639.45,54.7271,-2119.87,0,0
57899.775,54.4876,-2109.86,0,0
58160.1,54.5946,-2099.83,0,0
58420.4,54.4805,-2090.25,0,0
58680.7,54.3389,-2080.38,0,0
58941.1,54.2113,-2070.64,0,0
59201.4,54.5152,-2061.02,0,0
59461.7,54.3023,-2051.94,0,0
59722,54.1383,-2042.45,0,0
59982.4,54.2531,-2032.99,0,0
60242.7,54.0483,-2023.79,0,0
60503,54.1662,-2014.46,0,0
60763.3,54.5218,-2005.83,0,0
61023.7,54.0583,-1997.28,0,0
61284,53.5545,-1988.29,0,0
61544.3,53.1746,-1979.16,0,0
61804.6,53.3807,-1970.22,0,0
62065,53.0631,-1961.78,0,0
62325.3,52.7992,-1952.98,0,0
62585.6,52.4536,-1944.14,0,0
62845.9,52.3754,-1935.18,0,0
63106.3,52.5829,-1926.59,0,0
63366.6,52.3897,-1918.1,0,0
63626.9,52.4794,-1909.59,0,0
63887.2,52.4268,-1901.2,0,0
64147.6,52.6059,-1892.79,0,0
64407.9,52.6296,-1884.42,0,0
64668.2,52.8986,-1875.85,0,0
64928.5,53.4137,-1867.86,0,0
65188.9,53.8955,-1859.8,0,0
65449.2,54.7775,-1852.12,0,0
65709.5,55.2203,-1845.06,0,0
65969.8,55.0853,-1838.12,0,0
66230.2,54.9204,-1830.88,0,0
66490.5,54.755,-1823.61,0,0
66750.8,54.6786,-1816.31,0,0
67011.1,54.2833,-1809.23,0,0
67271.5,53.628,-1801.41,0,0
67531.8,54.1273,-1793.63,0,0
67792.1,54.4539,-1786.95,0,0
68052.4,54.2115,-1780.5,0,0
68312.8,53.3122,-1773.32,0,0
68573.1,53.1388,-1765.73,0,0
68833.4,53.3474,-1758.62,0,0
69093.7,53.1258,-1752.08,0,0
69354.1,52.8992,-1745.13,0,0
69614.4,52.727,-1738.39,0,0
69874.7,52.1131,-1731.76,0,0
70135,51.7581,-1724.93,0,0
70395.4,51.1887,-1717.99,0,0
70655.7,50.7523,-1710.99,0,0
70916,50.5223,-1703.97,0,0
71176.3,50.3504,-1697.09,0,0
71436.7,50.2656,-1690.57,0,0
71697,49.8442,-1683.92,0,0
71957.3,49.2981,-1677.15,0,0
72217.6,48.7616,-1670.39,0,0
72478,48.5312,-1663.38,0,0
72738.3,48.3526,-1656.44,0,0
72998.6,48.3773,-1649.6,0,0
73258.9,48.4323,-1643.07,0,0
73519.3,48.1598,-1636.56,0,0
73779.6,48.0878,-1629.91,0,0
74039.9,48.0994,-1623.16,0,0
74300.225,48.1729,-1616.77,0,0
74560.55,48.1175,-1610.3,0,0
74820.875,48.3213,-1603.73,0,0
75081.2,48.4861,-1597.62,0,0
75341.525,48.5033,-1591.34,0,0
75601.85,48.4873,-1585.07,0,0
75862.175,48.6522,-1578.66,0,0
76122.5,48.9285,-1572.52,0,0
76382.825,49.2788,-1566.41,0,0
76643.15,49.4777,-1560.61,0,0
76903.475,49.5728,-1554.58,0,0
77163.8,49.8889,-1548.62,0,0
77424.125,50.1116,-1542.8,0,0
77684.45,50.2648,-1536.98,0,0
77944.775,50.4316,-1531.12,0,0
78205.1,50.7787,-1525.34,0,0
78465.425,51.358,-1519.69,0,0
78725.75,51.8521,-1514.54,0,0
78986.075,51.8872,-1509.36,0,0
79246.4,51.9179,-1504.22,0,0
79506.725,51.7485,-1499.13,0,0
79767.05,51.4039,-1493.68,0,0
80027.375,51.2634,-1488.26,0,0
80287.7,51.1545,-1482.91,0,0
80548.025,50.7351,-1477.47,0,0
80808.35,50.5537,-1471.87,0,0
81068.675,50.3565,-1466.18,0,0
81329.0,50.4222,-1460.53,0,0
81589.325,50.543,-1454.97,0,0
81849.65,50.7546,-1449.49,0,0
82109.975,50.9178,-1444.18,0,0
82370.3,51.1112,-1438.83,0,0
82630.625,51.1441,-1433.6,0,0
82890.95,51.2139,-1428.13,0,0
83151.275,51.4137,-1422.77,0,0
83411.6,51.7658,-1417.57,0,0
83671.925,51.9259,-1412.34,0,0
83932.25,52.1814,-1407.11,0,0
84192.575,52.5488,-1401.82,0,0
84452.9,52.994,-1396.77,0,0
84713.225,53.4134,-1391.78,0,0
84973.55,53.7455,-1386.68,0,0
85233.875,54.3572,-1381.79,0,0
85494.2,54.8641,-1377.17,0,0
85754.525,55.1461,-1372.56,0,0
86014.85,55.3048,-1367.9,0,0
86275.175,55.4687,-1363.27,0,0
86535.5,55.6501,-1358.55,0,0
86795.825,55.8126,-1354,0,0
87056.15,55.8669,-1349.13,0,0
87316.475,56.1895,-1344.52,0,0
87576.8,56.2716,-1340.04,0,0
87837.125,56.2559,-1335.44,0,0
88097.45,56.1107,-1330.57,0,0
88357.775,56.121,-1325.45,0,0
88618.1,56.4674,-1320.43,0,0
88878.425,57.0766,-1315.57,0,0
89138.75,57.421,-1310.77,0,0
89399.075,58.0335,-1305.85,0,0
89659.4,58.6718,-1301.03,0,0
89919.725,59.4235,-1296.37,0,0
90180,60.1033,-1291.87,0,0
90440.4,60.6427,-1287.34,0,0
90700.7,61.3853,-1282.59,0,0
90961,62.3147,-1277.8,0,0
91221.3,63.5261,-1273.05,0,0
91481.7,65.0807,-1268.92,0,0
91742,66.448,-1265.03,0,0
92002.3,67.5964,-1261.2,0,0
92262.6,68.7655,-1257.25,0,0
92523,69.9912,-1253.49,0,0
92783.3,71.8896,-1249.65,0,0
93043.6,73.7633,-1247.17,0,0
93303.9,74.8796,-1244.33,0,0
93564.3,76.6182,-1241.47,0,0
93824.6,78.9503,-1240.23,0,0
94084.9,79.2905,-1240.77,0,0
94345.2,76.8187,-1240.42,0,0
94605.6,74.0385,-1237.3,0,0
94865.9,72.8899,-1234,0,0
95126.2,70.973,-1230.68,0,0
95386.5,69.7052,-1226.83,0,0
95646.9,68.5344,-1222.86,0,0
95907.2,67.1413,-1218.67,0,0
96167.5,66.408,-1213.89,0,0
96427.8,66.5741,-1209.52,0,0
96688.2,66.393,-1206.06,0,0
96948.5,65.6485,-1202.25,0,0
97208.8,64.9967,-1198.09,0,0
97469.1,64.603,-1193.94,0,0
97729.5,64.3221,-1189.66,0,0
97989.8,64.164,-1185.46,0,0
98250.1,64.2338,-1181.18,0,0
98510.4,64.4701,-1177.41,0,0
98770.8,64.3353,-1173.76,0,0
99031.1,64.0286,-1169.94,0,0
99291.4,63.8618,-1165.95,0,0
99551.7,63.5928,-1162.02,0,0
99812.1,63.4727,-1157.9,0,0
100072,63.4521,-1153.89,0,0
100333,63.3426,-1150,0,0
100593,63.2456,-1145.79,0,0
100853,63.3146,-1141.76,0,0
101114,63.3025,-1137.71,0,0
101374,63.3788,-1133.7,0,0
101634,63.2471,-1129.62,0,0
101895,63.0668,-1125.33,0,0
102155,63.1466,-1120.71,0,0
102415,63.4821,-1116.09,0,0
102676,64.1302,-1111.38,0,0
102936,65.2563,-1107.02,0,0
103196,66.1749,-1102.87,0,0
103457,67.2005,-1098.8,0,0
103717,68.2006,-1094.77,0,0
103977,69.3717,-1090.52,0,0
104238,71.0838,-1086.59,0,0
104498,72.7943,-1083.38,0,0
104758,74.0777,-1080.35,0,0
105019,75.1273,-1077.4,0,0
105279,75.8594,-1074.01,0,0
105539,76.8993,-1070.41,0,0
105800,78.2726,-1067.09,0,0
106060,79.689,-1063.9,0,0
106320.175,81.2625,-1060.92,0,0
106580.5,82.7671,-1058.25,0,0
106840.825,84.0509,-1055.78,0,0
107101.15,85.132,-1053.19,0,0
107361.475,86.5118,-1050.61,0,0
107621.8,87.849,-1048.49,0,0
107882.125,88.736,-1046.45,0,0
108142.45,89.4432,-1044.25,0,0
108402.775,90.2282,-1041.94,0,0
108663.1,91.1242,-1039.65,0,0
108923.425,91.983,-1037.62,0,0
109183.75,92.8301,-1035.58,0,0
109444.075,93.6753,-1033.84,0,0
109704.4,94.1852,-1032.31,0,0
109964.725,94.3651,-1030.92,0,0
110225.05,94.2189,-1029.21,0,0
110485.375,93.5157,-1027.23,0,0
110745.7,93.1743,-1024.47,0,0
111006.025,93.3119,-1021.71,0,0
111266.35,93.784,-1019.07,0,0
111526.675,94.2142,-1016.66,0,0
111787.0,94.9088,-1014.34,0,0
112047.325,95.6226,-1012.16,0,0
112307.65,96.0377,-1010.4,0,0
112567.975,96.4667,-1008.57,0,0
112828.3,96.8209,-1006.86,0,0
113088.625,96.9319,-1005.3,0,0
113348.95,96.9485,-1003.85,0,0
113609.275,96.8258,-1002.36,0,0
113869.6,96.3595,-1000.87,0,0
114129.925,95.6995,-999.123,0,0
114390.25,95.1703,-997.257,0,0
114650.575,94.5196,-995.305,0,0
114910.9,94.028,-993.397,0,0
115171.225,93.3261,-991.636,0,0
115431.55,92.4359,-989.724,0,0
115691.875,91.4297,-987.696,0,0
115952.2,90.3116,-985.265,0,0
116212.525,89.3932,-982.819,0,0
116472.85,88.5622,-980.296,0,0
116733.175,87.8121,-977.79,0,0
116993.5,86.8927,-975.305,0,0
117253.825,85.7987,-972.668,0,0
117514.15,84.8203,-969.735,0,0
117774.475,84.0526,-966.704,0,0
118034.8,83.3848,-963.596,0,0
118295.125,82.8091,-960.511,0,0
118555.45,82.3689,-957.425,0,0
118815.775,81.9676,-954.364,0,0
119076.1,81.6424,-951.142,0,0
119336.425,81.53,-947.997,0,0
119596.75,81.4075,-944.989,0,0
119857.075,81.3411,-941.96,0,0
120117.4,81.5047,-939.081,0,0
120377.725,81.6224,-936.296,0,0
120638.05,81.6539,-933.644,0,0
120898.375,81.7388,-931.116,0,0
121158.7,81.5857,-928.715,0,0
121419.025,81.2947,-926.179,0,0
121679.35,80.9396,-923.623,0,0
121939.675,80.4817,-920.912,0,0
122200.0,80.1222,-918.081,0,0
122460,79.7702,-915.19,0,0
122721,79.4631,-912.227,0,0
122981,79.3275,-909.322,0,0
123241,79.044,-906.372,0,0
123502,78.8531,-903.304,0,0
123762,78.7802,-900.27,0,0
124022,78.7948,-897.2,0,0
124283,78.8613,-894.191,0,0
124543,78.915,-891.242,0,0
124803,79.04,-888.268,0,0
125064,79.1574,-885.336,0,0
125324,79.1981,-882.385,0,0
125584,79.3903,-879.303,0,0
125845,79.7159,-876.364,0,0
126105,79.9741,-873.57,0,0
126365,80.243,-870.625,0,0
126626,80.4667,-867.876,0,0
126886,80.6879,-864.98,0,0
127146,81.0199,-862.085,0,0
127406,81.3502,-859.21,0,0
127667,81.6509,-856.35,0,0
127927,82.0482,-853.341,0,0
128187,82.7493,-850.499,0,0
128448,83.0317,-847.602,0,0
128708,83.6208,-844.844,0,0
128968,84.0963,-842.185,0,0
129229,84.4746,-839.442,0,0
129489,84.9198,-836.561,0,0
129749,85.4561,-833.604,0,0
130010,86.2191,-830.538,0,0
130270,87.2305,-827.664,0,0
130530,88.2218,-825.091,0,0
130791,89.1968,-822.549,0,0
131051,90.1874,-820.098,0,0
131311,91.2555,-817.73,0,0
131572,92.2773,-815.565,0,0
131832,93.1241,-813.515,0,0
132092,93.903,-811.477,0,0
132353,94.6157,-809.477,0,0
132613,95.1132,-807.469,0,0
132873,95.6822,-805.276,0,0
133134,96.3349,-803.122,0,0
133394,96.9255,-801.064,0,0
133654,97.4618,-798.958,0,0
133915,97.935,-796.773,0,0
134175,98.5103,-794.573,0,0
134435,99.2057,-792.386,0,0
134696,99.7988,-790.339,0,0
134956,100.357,-788.229,0,0
135216,100.95,-786.166,0,0
135477,101.548,-784.071,0,0
135737,102.129,-781.972,0,0
135997,102.741,-779.777,0,0
136258,103.302,-777.602,0,0
136518,104.058,-775.296,0,0
136778,105.13,-773.086,0,0
137039,106.227,-771.19,0,0
137299,107.278,-769.358,0,0
137559,108.407,-767.786,0,0
137819,109.46,-766.569,0,0
138080,110.092,-765.604,0,0
138340.125,110.305,-764.483,0,0
138600.45,110.495,-763.095,0,0
138860.775,110.705,-761.762,0,0
139121.1,110.655,-760.393,0,0
139381.425,110.51,-758.795,0,0
139641.75,110.501,-757.088,0,0
139902.075,110.437,-755.418,0,0
140162.4,110.322,-753.67,0,0
140422.725,110.119,-751.829,0,0
140683.05,109.93,-749.852,0,0
140943.375,109.769,-747.8,0,0
141203.7,109.722,-745.62,0,0
141464.025,109.82,-743.454,0,0
141724.35,109.932,-741.408,0,0
141984.675,109.842,-739.345,0,0
142245.0,109.757,-736.969,0,0
142505.325,109.982,-734.566,0,0
142765.65,110.321,-732.348,0,0
143025.975,110.485,-730.17,0,0
143286.3,110.681,-727.913,0,0
143546.625,110.956,-725.539,0,0
143806.95,111.35,-723.203,0,0
144067.275,111.859,-720.909,0,0
144327.6,112.293,-718.811,0,0
144587.925,112.541,-716.672,0,0
144848.25,112.91,-714.225,0,0
145108.575,113.532,-711.89,0,0
145368.9,114.144,-709.683,0,0
145629.225,114.733,-707.52,0,0
145889.55,115.405,-705.324,0,0
146149.875,116.196,-703.246,0,0
146410.2,116.862,-701.411,0,0
146670.525,117.383,-699.433,0,0
146930.85,118.128,-697.402,0,0
147191.175,118.956,-695.643,0,0
147451.5,119.568,-694.118,0,0
147711.825,119.901,-692.611,0,0
147972.15,119.964,-690.987,0,0
148232.475,119.906,-689.044,0,0
148492.8,120.058,-686.838,0,0
148753.125,120.328,-684.674,0,0
149013.45,120.643,-682.398,0,0
149273.775,121.256,-680.053,0,0
149534.1,122.153,-677.982,0,0
149794.425,122.945,-676.355,0,0
150054.75,123.37,-674.903,0,0
150315.075,123.602,-673.308,0,0
150575.4,123.69,-671.755,0,0
150835.725,123.502,-670.165,0,0
151096.05,123.017,-668.288,0,0
151356.375,122.549,-666.015,0,0
151616.7,122.28,-663.511,0,0
151877.025,122.159,-660.976,0,0
152137.35,121.964,-658.45,0,0
152397.675,121.697,-655.74,0,0
152658.0,121.45,-652.747,0,0
152918.325,121.401,-649.446,0,0
153178.65,121.649,-646.021,0,0
153438.975,122.197,-642.606,0,0
153699.3,122.889,-639.239,0,0
153959.625,123.681,-635.903,0,0
154219.95,124.575,-632.503,0,0
154480,125.716,-629.056,0,0
154741,127.028,-625.661,0,0
155001,128.534,-622.394,0,0
155261,129.974,-619.296,0,0
155522,131.319,-616.071,0,0
155782,132.971,-612.554,0,0
156042,135.036,-609.133,0,0
156303,137.45,-605.903,0,0
156563,140.012,-603.082,0,0
156823,142.41,-600.464,0,0
157084,144.864,-597.762,0,0
157344,147.692,-595.217,0,0
157604,150.627,-593.233,0,0
157864,153.19,-591.593,0,0
158125,155.504,-589.912,0,0
158385,157.797,-588.26,0,0
158645,159.9,-586.764,0,0
158906,161.521,-585.25,0,0
159166,162.899,-583.034,0,0
159426,164.688,-580.302,0,0
159687,166.956,-577.318,0,0
159947,169.852,-574.368,0,0
160207,173.388,-571.668,0,0
160468,177.197,-569.603,0,0
160728,181.032,-567.904,0,0
160988,184.966,-566.491,0,0
161249,189.016,-565.466,0,0
161509,192.929,-564.848,0,0
161769,196.857,-564.532,0,0
162030,200.834,-564.657,0,0
162290,204.331,-565.393,0,0
162550,207.296,-566.154,0,0
162811,210.028,-566.988,0,0
163071,212.317,-567.895,0,0
163331,214.242,-568.47,0,0
163592,216.172,-568.652,0,0
163852,218.376,-568.735,0,0
164112,220.724,-568.959,0,0
164373,223.177,-569.278,0,0
164633,225.54,-569.842,0,0
164893,227.79,-570.367,0,0
165154,230.234,-570.946,0,0
165414,232.647,-571.828,0,0
165674,235.092,-572.722,0,0
165935,237.8,-573.961,0,0
166195,240.331,-575.882,0,0
166455,242.275,-578.22,0,0
166716,243.611,-580.516,0,0
166976,244.598,-582.496,0,0
167236,245.784,-584.353,0,0
167497,246.935,-586.685,0,0
167757,247.497,-589.192,0,0
168017,247.715,-591.616,0,0
168277,247.64,-593.966,0,0
168538,247.266,-596.241,0,0
168798,246.663,-598.437,0,0
169058,245.639,-600.716,0,0
169319,244.115,-602.715,0,0
169579,242.208,-604.321,0,0
169839,240.028,-605.426,0,0
170100,237.728,-606.061,0,0
170360.075,235.594,-606.074,0,0
170620.4,233.829,-605.646,0,0
170880.725,232.244,-605.375,0,0
171141.05,230.542,-604.884,0,0
171401.375,228.962,-603.972,0,0
171661.7,227.827,-602.872,0,0
171922.025,226.882,-601.891,0,0
172182.35,226.016,-600.822,0,0
172442.675,225.41,-599.653,0,0
172703.0,225.146,-598.683,0,0
172963.325,224.874,-598.096,0,0
173223.65,224.313,-597.609,0,0
173483.975,223.506,-597.033,0,0
173744.3,222.613,-596.178,0,0
174004.625,221.854,-594.983,0,0
174264.95,221.474,-593.737,0,0
174525.275,221.278,-592.674,0,0
174785.6,221.059,-591.764,0,0
175045.925,220.857,-590.923,0,0
175306.25,220.538,-589.89,0,0
175566.575,220.465,-588.851,0,0
175826.9,220.661,-588.043,0,0
176087.225,220.801,-587.642,0,0
176347.55,220.516,-587.385,0,0
176607.875,219.936,-586.949,0,0
176868.2,219.415,-586.231,0,0
177128.525,219,-585.448,0,0
177388.85,218.692,-584.673,0,0
177649.175,218.579,-584.003,0,0
177909.5,218.397,-583.661,0,0
178169.825,217.972,-583.475,0,0
178430.15,217.242,-583.252,0,0
178690.475,216.365,-582.91,0,0
178950.8,215.417,-582.518,0,0
179211.125,214.196,-581.973,0,0
179471.45,213.048,-581.077,0,0
179731.775,212.159,-580.389,0,0
179992.1,210.992,-579.919,0,0
180252.425,209.322,-579.311,0,0
180512.75,207.536,-578.129,0,0
180773.075,205.964,-576.639,0,0
181033.4,204.559,-575.145,0,0
181293.725,203.113,-573.552,0,0
181554.05,201.731,-571.832,0,0
181814.375,200.414,-570.018,0,0
182074.7,199.129,-568.232,0,0
182335.025,197.696,-566.292,0,0
182595.35,196.319,-564.164,0,0
182855.675,195.08,-561.826,0,0
183116.0,193.979,-559.489,0,0
183376.325,192.878,-557.153,0,0
183636.65,191.746,-554.707,0,0
183896.975,190.646,-552.114,0,0
184157.3,189.568,-549.399,0,0
184417.625,188.572,-546.503,0,0
184677.95,187.685,-543.429,0,0
184938.275,186.83,-540.162,0,0
185198.6,186.323,-536.624,0,0
185458.925,186.272,-533.077,0,0
185719.25,186.489,-529.803,0,0
185979.575,186.717,-526.688,0,0
186239.9,186.994,-523.618,0,0
186500,187.201,-520.682,0,0
186761,187.446,-517.72,0,0
187021,187.589,-514.667,0,0
187281,187.812,-511.251,0,0
187542,188.476,-507.885,0,0
187802,189.444,-504.743,0,0
188062,190.342,-501.71,0,0
188322,191.248,-498.965,0,0
188583,191.957,-496.15,0,0
188843,192.698,-493.265,0,0
189103,193.588,-490.42,0,0
189364,194.444,-487.547,0,0
189624,195.229,-484.806,0,0
189884,195.95,-482.071,0,0
190145,196.785,-479.064,0,0
190405,197.626,-476.04,0,0
190665,198.545,-472.959,0,0
190926,199.486,-469.915,0,0
191186,200.437,-466.874,0,0
191446,201.345,-463.697,0,0
191707,202.41,-460.433,0,0
191967,203.518,-456.992,0,0
192227,204.828,-453.439,0,0
192488,206.344,-449.881,0,0
192748,208.004,-446.475,0,0
193008,209.717,-443.013,0,0
193269,211.665,-439.597,0,0
193529,213.581,-436.324,0,0
193789,215.495,-432.919,0,0
194050,217.485,-429.617,0,0
194310,219.626,-426.274,0,0
194570,221.755,-422.915,0,0
194831,223.946,-419.51,0,0
195091,226.156,-416.118,0,0
195351,228.584,-412.426,0,0
195612,231.239,-408.86,0,0
195872,234.026,-405.398,0,0
196132,236.953,-401.99,0,0
196393,239.852,-398.581,0,0
196653,242.875,-395.098,0,0
196913,246.135,-391.772,0,0
197174,249.311,-388.452,0,0
197434,252.666,-385.01,0,0
197694,256.168,-381.453,0,0
197955,260.073,-378.08,0,0
198215,264.041,-374.894,0,0
198475,267.963,-371.829,0,0
198735,272.013,-368.755,0,0
198996,276.185,-365.739,0,0
199256,280.289,-362.796,0,0
199516,284.343,-359.798,0,0
199777,288.433,-356.706,0,0
200037,292.846,-353.363,0,0
200297,297.564,-349.879,0,0
200558,302.59,-346.565,0,0
200818,307.826,-343.257,0,0
201078,313.331,-340.076,0,0
201339,319.069,-336.905,0,0
201599,325.022,-333.753,0,0
201859,331.28,-330.481,0,0
202120,338.121,-327.214,0,0
202380.025,345.448,-324.303,0,0
202640.35,353.387,-321.674,0,0
202900.675,361.61,-319.678,0,0
203161.0,369.941,-318.278,0,0
203421.325,378.167,-317.032,0,0
203681.65,386.587,-315.836,0,0
203941.975,395.631,-314.81,0,0
204202.3,405.229,-314.276,0,0
204462.625,415.413,-314.349,0,0
204722.95,426.009,-315.521,0,0
204983.275,436.573,-317.636,0,0
205243.6,447.136,-320.814,0,0
205503.925,457.166,-324.848,0,0
205764.25,466.845,-329.737,0,0
206024.575,476.124,-335.069,0,0
206284.9,484.812,-340.963,0,0
206545.225,493.127,-347.489,0,0
206805.55,500.909,-354.72,0,0
207065.875,507.775,-362.59,0,0
207326.2,513.56,-370.467,0,0
207586.525,518.778,-378.235,0,0
207846.85,523.613,-385.981,0,0
208107.175,527.959,-394.027,0,0
208367.5,531.562,-402.157,0,0
208627.825,534.492,-410.148,0,0
208888.15,537.1,-418.006,0,0
209148.475,539.204,-425.904,0,0
209408.8,540.718,-433.791,0,0
209669.125,541.77,-441.584,0,0
209929.45,542.123,-449.648,0,0
210189.775,541.341,-457.523,0,0
210450.1,539.298,-464.403,0,0
210710.425,536.925,-470.268,0,0
210970.75,534.249,-474.923,0,0
211231.075,531.9,-478.736,0,0
211491.4,529.792,-481.9,0,0
211751.725,527.864,-484.596,0,0
212012.05,525.956,-486.677,0,0
212272.375,524.341,-487.931,0,0
212532.7,523.435,-488.379,0,0
212793.025,523.407,-488.429,0,0
213053.35,524.348,-488.562,0,0
213313.675,526.035,-488.929,0,0
213574.0,528.277,-489.773,0,0
213834.325,530.93,-491.089,0,0
214094.65,533.671,-492.94,0,0
214354.975,536.376,-495.168,0,0
214615.3,539.021,-497.639,0,0
214875.625,541.602,-500.37,0,0
215135.95,544.093,-503.186,0,0
215396.275,546.802,-506.191,0,0
215656.6,549.433,-509.552,0,0
215916.925,551.749,-513.302,0,0
216177.25,553.589,-517.042,0,0
216437.575,555.204,-520.414,0,0
216697.9,556.848,-523.582,0,0
216958.225,558.653,-526.609,0,0
217218.55,560.562,-529.624,0,0
217478.875,562.728,-532.676,0,0
217739.2,564.987,-535.914,0,0
217999.525,567.233,-539.379,0,0
218259.85,569.315,-542.902,0,0
218520,571.3,-546.146,0,0
218780,573.515,-549.17,0,0
219041,576.234,-552.111,0,0
219301,579.438,-555.365,0,0
219561,582.813,-558.859,0,0
219822,586.579,-562.765,0,0
220082,590.512,-567.15,0,0
220342,594.573,-572.187,0,0
220603,598.501,-577.655,0,0
220863,602.16,-583.476,0,0
221123,605.967,-589.597,0,0
221384,609.801,-596.267,0,0
221644,613.401,-603.593,0,0
221904,617.04,-611.49,0,0
222165,620.192,-620.22,0,0
222425,622.672,-629.638,0,0
222685,624.24,-639.336,0,0
222946,625.16,-649.241,0,0
223206,625.34,-659.298,0,0
223466,624.891,-669.139,0,0
223727,623.748,-678.952,0,0
223987,622.255,-688.581,0,0
224247,620.394,-698.084,0,0
224508,618.139,-707.621,0,0
224768,615.553,-717.099,0,0
225028,612.277,-726.467,0,0
225289,608.746,-735.818,0,0
225549,604.656,-745.098,0,0
225809,600.058,-753.859,0,0
226070,595.179,-762.504,0,0
226330,590.069,-770.954,0,0
226590,584.538,-779.249,0,0
226851,578.619,-787.424,0,0
227111,572.379,-795.258,0,0
227371,565.894,-802.806,0,0
227632,559.025,-810.384,0,0
227892,551.492,-817.791,0,0
228152,543.395,-824.836,0,0
228413,534.72,-831.109,0,0
228673,525.724,-836.723,0,0
228933,516.525,-841.639,0,0
229193,507.298,-845.897,0,0
229454,498.126,-849.558,0,0
229714,489.005,-852.935,0,0
229974,479.773,-855.344,0,0
230235,470.572,-857.7,0,0
230495,461.55,-859.29,0,0
230755,452.635,-860.316,0,0
231016,444.078,-860.882,0,0
231276,435.798,-860.998,0,0
231536,427.859,-860.862,0,0
231797,420.182,-860.422,0,0
232057,412.784,-859.726,0,0
232317,405.732,-858.8,0,0
232578,398.99,-857.603,0,0
232838,392.692,-856.215,0,0
233098,386.843,-854.805,0,0
233359,381.371,-853.441,0,0
233619,376.172,-852.315,0,0
233879,370.983,-851.299,0,0
234140,365.961,-850.301,0,0
234400,360.917,-849.31,0,0
234660.3,356.434,-848.254,0,0
234920.625,351.687,-847.625,0,0
235180.95,347.089,-847.002,0,0
235441.275,342.175,-846.422,0,0
235701.6,337.067,-845.855,0,0
235961.925,332.032,-844.843,0,0
236222.25,327.08,-843.764,0,0
236482.575,322.272,-842.683,0,0
236742.9,317.545,-841.403,0,0
237003.225,312.872,-840.199,0,0
237263.55,308.241,-838.93,0,0
237523.875,303.577,-837.637,0,0
237784.2,298.894,-836.144,0,0
238044.525,294.321,-834.56,0,0
238304.85,289.828,-832.96,0,0
238565.175,285.445,-831.185,0,0
238825.5,280.884,-829.281,0,0
239085.825,276.614,-827.159,0,0
239346.15,272.516,-825.094,0,0
239606.475,268.695,-822.972,0,0
239866.8,264.875,-820.848,0,0
240127.125,260.988,-818.493,0,0
240387.45,257.304,-816.39,0,0
240647.775,253.733,-814.116,0,0
240908.1,250.344,-811.778,0,0
241168.425,247.033,-809.598,0,0
241428.75,243.664,-807.403,0,0
241689.075,240.368,-805.2,0,0
241949.4,237.084,-802.827,0,0
242209.725,233.947,-800.452,0,0
242470.05,230.875,-797.962,0,0
242730.375,227.974,-795.454,0,0
242990.7,225.204,-792.919,0,0
243251.025,222.585,-790.453,0,0
243511.35,220.037,-788.031,0,0
243771.675,217.698,-785.642,0,0
244032.0,215.336,-783.44,0,0
244292.325,213.007,-781.184,0,0
244552.65,210.692,-779.041,0,0
244812.975,208.288,-776.927,0,0
245073.3,206.013,-775.051,0,0
245333.625,203.388,-772.849,0,0
245593.95,201.042,-770.722,0,0
245854.275,198.702,-768.532,0,0
246114.6,196.414,-766.388,0,0
246374.925,194.023,-764.133,0,0
246635.25,191.633,-761.872,0,0
246895.575,189.306,-759.483,0,0
247155.9,187.038,-757.081,0,0
247416.225,184.834,-754.536,0,0
247676.55,182.725,-752.109,0,0
247936.875,180.711,-749.531,0,0
248197.2,178.797,-746.928,0,0
248457.525,176.971,-744.312,0,0
248717.85,175.2,-741.747,0,0
248978.175,173.544,-739.237,0,0
249238.5,171.863,-736.729,0,0
249498.825,170.36,-734.141,0,0
249759.15,168.839,-731.672,0,0
250019.475,167.395,-729.244,0,0
250279.8,165.933,-726.753,0,0
250540,164.599,-724.448,0,0
250800,163.165,-721.97,0,0
251061,161.738,-719.555,0,0
251321,160.467,-717.12,0,0
251581,159.179,-714.711,0,0
251842,157.987,-712.31,0,0
252102,156.746,-709.879,0,0
252362,155.561,-707.448,0,0
252623,154.422,-705.063,0,0
252883,153.279,-702.68,0,0
253143,152.077,-700.235,0,0
253404,150.981,-697.69,0,0
253664,149.966,-695.087,0,0
253924,149.052,-692.445,0,0
254185,148.166,-689.81,0,0
254445,147.426,-687.273,0,0
254705,146.786,-684.587,0,0
254966,146.233,-682.104,0,0
255226,145.757,-679.451,0,0
255486,145.359,-677.037,0,0
255747,144.963,-674.668,0,0
256007,144.599,-672.317,0,0
256267,144.26,-670.005,0,0
256528,143.865,-667.704,0,0
256788,143.521,-665.394,0,0
257048,143.241,-662.999,0,0
257309,143.04,-660.669,0,0
257569,142.858,-658.413,0,0
257829,142.693,-656.108,0,0
258090,142.53,-653.786,0,0
258350,142.461,-651.426,0,0
258610,142.44,-649.038,0,0
258871,142.473,-646.679,0,0
259131,142.62,-644.189,0,0
259391,142.903,-641.805,0,0
259651,143.344,-639.403,0,0
259912,143.982,-637.109,0,0
260172,144.681,-634.81,0,0
260432,145.482,-632.706,0,0
260693,146.406,-630.759,0,0
260953,147.306,-628.917,0,0
261213,148.221,-627.195,0,0
261474,149.182,-625.501,0,0
261734,150.113,-623.944,0,0
261994,151.084,-622.447,0,0
262255,152.104,-621.018,0,0
262515,153.146,-619.67,0,0
262775,154.211,-618.401,0,0
263036,155.245,-617.229,0,0
263296,156.41,-616.163,0,0
263556,157.522,-615.143,0,0
263817,158.642,-614.266,0,0
264077,159.746,-613.401,0,0
264337,160.897,-612.671,0,0
264598,162.032,-611.985,0,0
264858,163.175,-611.382,0,0
265118,164.362,-610.962,0,0
265379,165.608,-610.506,0,0
265639,166.985,-610.331,0,0
265899,168.316,-610.266,0,0
266160,169.639,-610.509,0,0
266420,170.936,-610.969,0,0
266680.25,172.064,-611.693,0,0
266940.575,173.046,-612.632,0,0
267200.9,173.784,-613.824,0,0
267461.225,174.208,-615.192,0,0
267721.55,174.286,-616.614,0,0
267981.875,174.111,-618.06,0,0
268242.2,173.66,-619.455,0,0
268502.525,172.94,-620.859,0,0
268762.85,171.932,-622.168,0,0
269023.175,170.598,-623.423,0,0
269283.5,168.994,-624.437,0,0
269543.825,167.134,-625.296,0,0
269804.15,165.108,-625.812,0,0
270064.475,162.918,-626.066,0,0
270324.8,160.725,-626.042,0,0
270585.125,158.529,-625.745,0,0
270845.45,156.249,-625.121,0,0
271105.775,154.109,-624.203,0,0
271366.1,152.038,-623.031,0,0
271626.425,150.129,-621.704,0,0
271886.75,148.426,-620.216,0,0
272147.075,146.871,-618.609,0,0
272407.4,145.485,-616.886,0,0
272667.725,144.201,-615.074,0,0
272928.05,143.146,-613.24,0,0
273188.375,142.239,-611.348,0,0
273448.7,141.53,-609.444,0,0
273709.025,140.967,-607.6,0,0
273969.35,140.523,-605.829,0,0
274229.675,140.166,-604.063,0,0
274490.0,139.939,-602.308,0,0
274750.325,139.755,-600.663,0,0
275010.65,139.811,-599.041,0,0
275270.975,139.789,-597.536,0,0
275531.3,139.764,-596.184,0,0
275791.625,139.814,-594.817,0,0
276051.95,139.817,-593.424,0,0
276312.275,139.923,-592.08,0,0
276572.6,140.091,-590.708,0,0
276832.925,140.337,-589.439,0,0
277093.25,140.617,-588.24,0,0
277353.575,140.952,-587.077,0,0
277613.9,141.38,-585.998,0,0
277874.225,141.782,-585.015,0,0
278134.55,142.226,-584.148,0,0
278394.875,142.642,-583.365,0,0
278655.2,143.062,-582.637,0,0
278915.525,143.466,-582.021,0,0
279175.85,143.812,-581.502,0,0
279436.175,144.104,-581.042,0,0
279696.5,144.427,-580.62,0,0
279956.825,144.586,-580.252,0,0
280217.15,144.778,-579.901,0,0
280477.475,144.878,-579.579,0,0
280737.8,144.901,-579.309,0,0
280998.125,144.934,-579.057,0,0
281258.45,144.911,-578.826,0,0
281518.775,144.824,-578.718,0,0
281779.1,144.639,-578.656,0,0
282039.425,144.256,-578.598,0,0
282299.75,143.714,-578.464,0,0
282560,143.126,-578.197,0,0
282820,142.437,-577.843,0,0
283081,141.714,-577.394,0,0
283341,140.99,-576.793,0,0
283601,140.321,-576.08,0,0
283862,139.724,-575.279,0,0
284122,139.208,-574.495,0,0
284382,138.732,-573.694,0,0
284643,138.342,-572.944,0,0
284903,137.865,-572.2,0,0
285163,137.46,-571.4,0,0
285424,136.954,-570.697,0,0
285684,136.505,-569.957,0,0
285944,136.006,-569.245,0,0
286205,135.427,-568.5,0,0
286465,134.788,-567.729,0,0
286725,134.092,-566.893,0,0
286986,133.31,-565.94,0,0
287246,132.522,-564.843,0,0
287506,131.699,-563.578,0,0
287767,130.943,-562.098,0,0
288027,130.358,-560.45,0,0
288287,129.972,-558.665,0,0
288548,129.819,-556.814,0,0
288808,129.931,-554.962,0,0
289068,130.274,-553.25,0,0
289329,130.747,-551.672,0,0
289589,131.367,-550.243,0,0
289849,132.065,-548.914,0,0
290109,132.859,-547.748,0,0
290370,133.699,-546.832,0,0
290630,134.478,-546.145,0,0
290890,135.091,-545.589,0,0
291151,135.603,-545.101,0,0
291411,135.998,-544.62,0,0
291671,136.261,-544.121,0,0
291932,136.599,-543.67,0,0
292192,136.85,-543.294,0,0
292452,136.989,-542.979,0,0
292713,136.946,-542.648,0,0
292973,136.772,-542.264,0,0
293233,136.525,-541.757,0,0
293494,136.206,-541.143,0,0
293754,135.858,-540.389,0,0
294014,135.486,-539.505,0,0
294275,135.163,-538.462,0,0
294535,134.894,-537.302,0,0
294795,134.712,-536.055,0,0
295056,134.633,-534.645,0,0
295316,134.721,-533.214,0,0
295576,134.97,-531.689,0,0
295837,135.382,-530.217,0,0
296097,135.942,-528.755,0,0
296357,136.635,-527.35,0,0
296618,137.48,-526.012,0,0
296878,138.424,-524.822,0,0
297138,139.446,-523.76,0,0
297399,140.495,-522.847,0,0
297659,141.504,-522.061,0,0
297919,142.486,-521.333,0,0
298180,143.418,-520.656,0,0
298440,144.362,-519.973,0,0
298700.2,145.317,-519.31,0,0
298960.525,146.302,-518.715,0,0
299220.85,147.196,-518.169,0,0
299481.175,148.185,-517.63,0,0
299741.5,149.19,-517.105,0,0
300001.825,150.145,-516.633,0,0
300262.15,151.17,-516.042,0,0
300522.475,152.253,-515.521,0,0
300782.8,153.43,-515.083,0,0
301043.125,154.694,-514.672,0,0
301303.45,155.986,-514.285,0,0
301563.775,157.357,-513.975,0,0
301824.1,158.896,-513.749,0,0
302084.425,160.473,-513.771,0,0
302344.75,162.062,-514.059,0,0
302605.075,163.532,-514.416,0,0
302865.4,164.874,-515.014,0,0
303125.725,166.2,-515.633,0,0
303386.05,167.373,-516.405,0,0
303646.375,168.351,-517.116,0,0
303906.7,169.278,-517.885,0,0
304167.025,170.189,-518.667,0,0
304427.35,171.129,-519.424,0,0
304687.675,171.874,-520.229,0,0
304948.0,172.688,-521.129,0,0
305208.325,173.357,-521.943,0,0
305468.65,174.134,-522.9,0,0
305728.975,174.902,-523.749,0,0
305989.3,175.627,-524.825,0,0
306249.625,176.302,-525.869,0,0
306509.95,176.994,-527.055,0,0
306770.275,177.583,-528.296,0,0
307030.6,178.122,-529.649,0,0
307290.925,178.496,-531.123,0,0
307551.25,178.693,-532.665,0,0
307811.575,178.75,-534.176,0,0
308071.9,178.611,-535.671,0,0
308332.225,178.303,-537.167,0,0
308592.55,177.964,-538.524,0,0
308852.875,177.491,-539.729,0,0
309113.2,177.153,-540.812,0,0
309373.525,176.751,-541.956,0,0
309633.85,176.306,-542.898,0,0
309894.175,176.027,-543.95,0,0
310154.5,175.724,-545.011,0,0
310414.825,175.386,-546.207,0,0
310675.15,175.09,-547.491,0,0
310935.475,174.609,-548.867,0,0
311195.8,174.14,-550.2,0,0
311456.125,173.432,-551.551,0,0
311716.45,172.616,-552.998,0,0
311976.775,171.763,-554.4,0,0
312237.1,170.709,-555.823,0,0
312497.425,169.442,-557.227,0,0
312757.75,168.118,-558.543,0,0
313018.075,166.579,-559.645,0,0
313278.4,165.123,-560.613,0,0
313538.725,163.498,-561.605,0,0
313799.05,161.777,-562.377,0,0
314059.375,160.108,-562.976,0,0
314319.7,158.505,-563.508,0,0
314580,156.827,-563.909,0,0
314840,155.184,-564.178,0,0
315101,153.695,-564.434,0,0
315361,152.235,-564.761,0,0
315621,150.767,-565.037,0,0
315882,149.302,-565.409,0,0
316142,147.819,-565.601,0,0
316402,146.219,-565.798,0,0
316663,144.656,-565.993,0,0
316923,142.945,-566.128,0,0
317183,141.294,-566.036,0,0
317444,139.639,-565.921,0,0
317704,137.953,-565.755,0,0
317964,136.422,-565.563,0,0
318225,134.798,-565.356,0,0
318485,133.25,-565.043,0,0
318745,131.729,-564.617,0,0
319006,130.217,-564.27,0,0
319266,128.718,-563.868,0,0
319526,127.133,-563.378,0,0
319787,125.691,-562.907,0,0
320047,124.202,-562.336,0,0
320307,122.687,-561.747,0,0
320567,121.259,-561.003,0,0
320828,119.809,-560.351,0,0
321088,118.508,-559.491,0,0
321348,117.039,-558.726,0,0
321609,115.765,-557.848,0,0
321869,114.451,-556.949,0,0
322129,113.241,-555.977,0,0
322390,112.157,-554.934,0,0
322650,110.946,-553.998,0,0
322910,109.881,-552.845,0,0
323171,108.832,-551.726,0,0
323431,107.88,-550.597,0,0
323691,107.04,-549.387,0,0
323952,106.247,-548.126,0,0
324212,105.651,-547.012,0,0
324472,104.961,-545.908,0,0
324733,104.537,-544.823,0,0
324993,104.042,-543.753,0,0
325253,103.602,-542.759,0,0
325514,103.157,-541.715,0,0
325774,102.791,-540.681,0,0
326034,102.396,-539.914,0,0
326295,102.168,-538.996,0,0
326555,101.891,-538.089,0,0
326815,101.622,-537.332,0,0
327076,101.448,-536.592,0,0
327336,101.224,-535.936,0,0
327596,101.096,-535.344,0,0
327857,100.858,-534.766,0,0
328117,100.607,-534.294,0,0
328377,100.373,-533.797,0,0
328638,100.131,-533.306,0,0
328898,99.7974,-532.894,0,0
329158,99.5746,-532.475,0,0
329419,99.1919,-532.116,0,0
329679,98.7721,-531.784,0,0
329939,98.3726,-531.518,0,0
330200,97.9484,-531.117,0,0
330460,97.5115,-530.843,0,0
330720.15,97.0029,-530.554,0,0
330980.475,96.4277,-530.236,0,0
331240.8,95.8898,-529.888,0,0
331501.125,95.2819,-529.501,0,0
331761.45,94.6331,-529.144,0,0
332021.775,94.0764,-528.801,0,0
332282.1,93.3897,-528.409,0,0
332542.425,92.7408,-528.103,0,0
332802.75,92.101,-527.687,0,0
333063.075,91.3665,-527.295,0,0
333323.4,90.6026,-526.814,0,0
333583.725,89.9223,-526.414,0,0
333844.05,89.1873,-525.915,0,0
334104.375,88.4488,-525.401,0,0
334364.7,87.7016,-524.899,0,0
334625.025,86.862,-524.396,0,0
334885.35,86.1364,-523.819,0,0
335145.675,85.2986,-523.214,0,0
335406.0,84.5372,-522.553,0,0
335666.325,83.8143,-521.849,0,0
335926.65,83.0326,-521.234,0,0
336186.975,82.3551,-520.452,0,0
336447.3,81.6308,-519.725,0,0
336707.625,80.9552,-519.044,0,0
336967.95,80.25,-518.329,0,0
337228.275,79.6135,-517.519,0,0
337488.6,78.9193,-516.761,0,0
337748.925,78.3519,-515.973,0,0
338009.25,77.7009,-515.18,0,0
338269.575,77.0817,-514.385,0,0
338529.9,76.4987,-513.591,0,0
338790.225,75.9225,-512.762,0,0
339050.55,75.3159,-511.973,0,0
339310.875,74.7388,-511.21,0,0
339571.2,74.2507,-510.3,0,0
339831.525,73.6284,-509.438,0,0
340091.85,73.132,-508.664,0,0
340352.175,72.6762,-507.769,0,0
340612.5,72.2027,-506.897,0,0
340872.825,71.7804,-506.11,0,0
341133.15,71.2954,-505.287,0,0
341393.475,70.8657,-504.487,0,0
341653.8,70.3921,-503.688,0,0
341914.125,69.9774,-502.918,0,0
342174.45,69.602,-502.081,0,0
342434.775,69.1703,-501.309,0,0
342695.1,68.6916,-500.558,0,0
342955.425,68.2529,-499.724,0,0
343215.75,67.8639,-498.915,0,0
343476.075,67.4161,-498.161,0,0
343736.4,66.952,-497.311,0,0
343996.725,66.5016,-496.588,0,0
344257.05,66.0939,-495.674,0,0
344517.375,65.6902,-494.879,0,0
344777.7,65.2623,-493.986,0,0
345038.025,64.7991,-493.175,0,0
345298.35,64.4515,-492.302,0,0
345558.675,63.9669,-491.532,0,0
345819.0,63.6579,-490.602,0,0
346079.325,63.2294,-489.755,0,0
346339.65,62.7852,-488.83,0,0
346599.975,62.4451,-488.006,0,0
346860,62.0871,-487.074,0,0
347121,61.7248,-486.15,0,0
347381,61.3361,-485.237,0,0
347641,61.0187,-484.265,0,0
347902,60.7116,-483.274,0,0
348162,60.4303,-482.347,0,0
348422,60.1686,-481.394,0,0
348683,59.9805,-480.413,0,0
348943,59.7783,-479.517,0,0
349203,59.5459,-478.578,0,0
349464,59.3726,-477.633,0,0
349724,59.2031,-476.784,0,0
349984,59.0399,-475.869,0,0
350245,58.9153,-475.053,0,0
350505,58.7521,-474.131,0,0
350765,58.5933,-473.208,0,0
351025,58.4093,-472.347,0,0
351286,58.2634,-471.492,0,0
351546,58.1241,-470.621,0,0
351806,58.0451,-469.747,0,0
352067,57.9313,-468.819,0,0
352327,57.8467,-468.024,0,0
352587,57.775,-467.133,0,0
352848,57.7209,-466.334,0,0
353108,57.6168,-465.543,0,0
353368,57.539,-464.653,0,0
353629,57.5388,-463.876,0,0
353889,57.4298,-463.052,0,0
354149,57.3541,-462.235,0,0
354410,57.3072,-461.489,0,0
354670,57.1973,-460.639,0,0
354930,57.1104,-459.822,0,0
355191,57.0767,-459.032,0,0
355451,57.0307,-458.186,0,0
355711,57.0085,-457.41,0,0
355972,56.9364,-456.582,0,0
356232,56.9407,-455.843,0,0
356492,56.9471,-455.068,0,0
356753,56.8846,-454.277,0,0
357013,56.9109,-453.457,0,0
357273,56.8942,-452.751,0,0
357534,56.8585,-451.953,0,0
357794,56.8859,-451.225,0,0
358054,56.8632,-450.44,0,0
358315,56.8605,-449.656,0,0
358575,56.7885,-448.906,0,0
358835,56.8279,-448.112,0,0
359096,56.8434,-447.375,0,0
359356,56.8595,-446.55,0,0
359616,56.9245,-445.834,0,0
359877,56.9661,-445.048,0,0
360137,56.9992,-444.23,0,0
360397,57.015,-443.525,0,0
360658,57.0971,-442.793,0,0
360918,57.1805,-442.047,0,0
361178,57.256,-441.378,0,0
361438,57.3194,-440.607,0,0
361699,57.3527,-439.946,0,0
361959,57.4859,-439.217,0,0
362219,57.5227,-438.493,0,0
362480,57.5752,-437.806,0,0
362740.1,57.6296,-437.186,0,0
363000.425,57.6778,-436.45,0,0
363260.75,57.7793,-435.731,0,0
363521.075,57.8212,-435.006,0,0
363781.4,57.8707,-434.287,0,0
364041.725,57.9282,-433.545,0,0
364302.05,58.0413,-432.848,0,0
364562.375,58.14,-432.06,0,0
364822.7,58.2743,-431.425,0,0
365083.025,58.3686,-430.746,0,0
365343.35,58.473,-430.04,0,0
365603.675,58.6278,-429.328,0,0
365864.0,58.7731,-428.68,0,0
366124.325,58.833,-428.017,0,0
366384.65,58.9555,-427.384,0,0
366644.975,59.0489,-426.722,0,0
366905.3,59.0739,-426.026,0,0
367165.625,59.1248,-425.382,0,0
367425.95,59.1348,-424.701,0,0
367686.275,59.1774,-423.894,0,0
367946.6,59.1762,-423.12,0,0
368206.925,59.2337,-422.282,0,0
368467.25,59.3243,-421.402,0,0
368727.575,59.4923,-420.527,0,0
368987.9,59.7011,-419.619,0,0
369248.225,59.9326,-418.679,0,0
369508.55,60.172,-417.792,0,0
369768.875,60.5021,-416.879,0,0
370029.2,60.8974,-415.996,0,0
370289.525,61.2575,-415.137,0,0
370549.85,61.7493,-414.276,0,0
370810.175,62.2565,-413.43,0,0
371070.5,62.7347,-412.631,0,0
371330.825,63.3467,-411.871,0,0
371591.15,63.9474,-411.099,0,0
371851.475,64.5789,-410.372,0,0
372111.8,65.2901,-409.773,0,0
372372.125,66.0051,-409.146,0,0
372632.45,66.7073,-408.618,0,0
372892.775,67.4372,-408.178,0,0
373153.1,68.1397,-407.753,0,0
373413.425,68.8364,-407.353,0,0
373673.75,69.5969,-407.027,0,0
373934.075,70.2693,-406.738,0,0
374194.4,70.9087,-406.505,0,0
374454.725,71.5739,-406.303,0,0
374715.05,72.1672,-406.201,0,0
374975.375,72.7598,-406.034,0,0
375235.7,73.3171,-405.924,0,0
375496.025,73.8317,-405.876,0,0
375756.35,74.2865,-405.787,0,0
376016.675,74.6893,-405.778,0,0
376277.0,75.1491,-405.67,0,0
376537.325,75.5461,-405.61,0,0
376797.65,75.8979,-405.541,0,0
377057.975,76.3188,-405.429,0,0
377318.3,76.7157,-405.34,0,0
377578.625,77.0792,-405.311,0,0
377838.95,77.4693,-405.27,0,0
378099.275,77.8446,-405.183,0,0
378359.6,78.2292,-405.221,0,0
378619.925,78.5917,-405.228,0,0
378880,78.9097,-405.294,0,0
379141,79.2214,-405.359,0,0
379401,79.5066,-405.427,0,0
379661,79.7718,-405.492,0,0
379922,79.9637,-405.495,0,0
380182,80.1757,-405.498,0,0
380442,80.3974,-405.488,0,0
380703,80.7479,-405.425,0,0
380963,81.0985,-405.473,0,0
381223,81.486,-405.581,0,0
381483,81.8727,-405.749,0,0
381744,82.2419,-405.969,0,0
382004,82.5765,-406.3,0,0
382264,82.8515,-406.676,0,0
382525,83.0012,-407.12,0,0
382785,83.0821,-407.552,0,0
383045,83.1501,-408.028,0,0
383306,83.1064,-408.456,0,0
383566,82.9871,-408.914,0,0
383826,82.8491,-409.325,0,0
384087,82.6042,-409.748,0,0
384347,82.3149,-410.179,0,0
384607,81.9919,-410.514,0,0
384868,81.5746,-410.878,0,0
385128,81.1874,-411.14,0,0
385388,80.6488,-411.401,0,0
385649,80.2157,-411.625,0,0
385909,79.6581,-411.773,0,0
386169,79.1225,-411.908,0,0
386430,78.5159,-411.947,0,0
386690,77.8888,-412.026,0,0
386950,77.243,-412.008,0,0
387211,76.6427,-411.928,0,0
387471,76.0046,-411.776,0,0
387731,75.3606,-411.528,0,0
387992,74.7906,-411.269,0,0
388252,74.1827,-410.976,0,0
388512,73.6473,-410.598,0,0
388773,73.1056,-410.228,0,0
389033,72.6703,-409.822,0,0
389293,72.2718,-409.371,0,0
389554,71.8989,-408.992,0,0
389814,71.5628,-408.593,0,0
390074,71.2107,-408.218,0,0
390335,70.9451,-407.798,0,0
390595,70.6628,-407.455,0,0
390855,70.4124,-407.123,0,0
391116,70.1444,-406.775,0,0
391376,69.8162,-406.44,0,0
391636,69.622,-406.13,0,0
391896,69.3268,-405.89,0,0
392157,69.0174,-405.616,0,0
392417,68.7368,-405.315,0,0
392677,68.4206,-405.093,0,0
392938,68.0304,-404.87,0,0
393198,67.6303,-404.621,0,0
393458,67.2134,-404.327,0,0
393719,66.7637,-404.042,0,0
393979,66.2675,-403.739,0,0
394239,65.7444,-403.368,0,0
394500,65.2367,-402.974,0,0
394760.05,64.6966,-402.502,0,0
395020.375,64.199,-401.992,0,0
395280.7,63.7107,-401.508,0,0
395541.025,63.2244,-400.947,0,0
395801.35,62.7821,-400.349,0,0
396061.675,62.3641,-399.699,0,0
396322.0,61.9235,-399.112,0,0
396582.325,61.5242,-398.463,0,0
396842.65,61.2231,-397.809,0,0
397102.975,60.8416,-397.107,0,0
397363.3,60.5388,-396.416,0,0
397623.625,60.2576,-395.732,0,0
397883.95,59.9922,-395.077,0,0
398144.275,59.7281,-394.388,0,0
398404.6,59.4553,-393.695,0,0
398664.925,59.2277,-392.947,0,0
398925.25,59.0181,-392.249,0,0
399185.575,58.8108,-391.552,0,0
399445.9,58.6684,-390.82,0,0
399706.225,58.5291,-390.096,0,0
399966.55,58.3436,-389.377,0,0
400006.6,58.3296,-389.269,0,0