File: Accelerated corrosion test data/2025-10-17_18-00-03/sample_7.csv
Frequency (Hz),Impedance (ohms),Phase (Radians),Temperature (C),Humidity (%)
10000.0,274.014,-12108.4,0,0
10260.325,271.324,-11817.3,0,0
10520.65,258.304,-11517.1,0,0
10780.975,252.907,-11235.6,0,0
11041.3,249.855,-10967.8,0,0
11301.625,247.513,-10711.3,0,0
11561.95,250.929,-10461.9,0,0
11822.275,259.362,-10230.7,0,0
12082.6,269.426,-10002.7,0,0
12342.925,322.541,-9851.2,0,0
12603.25,258.197,-9658.59,0,0
12863.575,267.143,-9476.87,0,0
13123.9,237.299,-9286.37,0,0
13384.225,228.374,-9113.51,0,0
13644.55,227.151,-8932.29,0,0
13904.875,209.542,-8763.72,0,0
14165.2,208.782,-8590.44,0,0
14425.525,205.577,-8451.18,0,0
14685.8,203.758,-8301.77,0,0
14946.175,199.468,-8154.95,0,0
15206.5,195.971,-8024.99,0,0
15466.825,186.322,-7882.6,0,0
15727.15,183.744,-7754.74,0,0
15987.5,179.6,-7624.65,0,0
16247.8,177.986,-7505.84,0,0
16508.125,171.531,-7383.13,0,0
16768.45,171.298,-7264.29,0,0
17028.775,171.017,-7153.92,0,0
17289.1,166.679,-7045.59,0,0
17549.425,165.486,-6936.81,0,0
17809.75,170.066,-6827.6,0,0
18070.075,170.057,-6730.25,0,0
18330.4,181.485,-6623.87,0,0
18590.725,200.46,-6540.59,0,0
18851.05,191.19,-6469.39,0,0
19111.375,179.901,-6382.64,0,0
19371.7,204.052,-6318.02,0,0
19632.025,168.734,-6242.66,0,0
19892.35,158.634,-6142.1,0,0
20152.675,170.285,-6062.94,0,0
20413.0,169.509,-5992.34,0,0
20673.3,171.234,-5909.98,0,0
20933.65,181.495,-5852.1,0,0
21193.975,162.615,-5789.06,0,0
21454.3,154.128,-5713.4,0,0
21714.625,157.76,-5650.42,0,0
21974.9,146.461,-5585.89,0,0
22235.275,141.889,-5516.58,0,0
22495.6,139.555,-5453.76,0,0
22755.925,134.026,-5389.31,0,0
23016.25,130.692,-5325.91,0,0
23276.6,128.821,-5262.75,0,0
23536.9,129.476,-5202.54,0,0
23797.225,128.011,-5147.07,0,0
24057.55,124.589,-5089.46,0,0
24317.875,123.009,-5031.94,0,0
24578.2,124.069,-4977.71,0,0
24838.525,122.124,-4923.97,0,0
25098.85,120.379,-4872.26,0,0
25359.175,120.055,-4819.88,0,0
25619.5,119.063,-4767.14,0,0
25879.8,119.217,-4718.04,0,0
26140.1,119.434,-4666.12,0,0
26400.5,124.133,-4619.53,0,0
26660.8,121.087,-4572.49,0,0
26921.1,122.142,-4522.35,0,0
27181.4,128.06,-4474.87,0,0
27441.8,131.208,-4427.62,0,0
27702.1,142.17,-4380.61,0,0
27962.4,156.325,-4336.43,0,0
28222.7,178.41,-4307.76,0,0
28483.1,186.978,-4289.13,0,0
28743.4,185.755,-4275.52,0,0
29003.7,169.654,-4254.78,0,0
29264,150.429,-4220.3,0,0
29524.4,140.269,-4180.54,0,0
29784.7,133.064,-4142.22,0,0
30045,129.646,-4098.22,0,0
30305.3,131.168,-4062.03,0,0
30565.7,130.689,-4027.66,0,0
30826,132.394,-3994.3,0,0
31086.3,134.302,-3964.22,0,0
31346.6,132.658,-3935.47,0,0
31607,130.67,-3911.06,0,0
31867.3,120.408,-3879.29,0,0
32127.6,118.249,-3846.97,0,0
32387.9,115.134,-3816.73,0,0
32648.3,111.052,-3786.98,0,0
32908.6,108.156,-3756.25,0,0
33168.9,104.637,-3726.29,0,0
33429.2,101.851,-3696.49,0,0
33689.6,99.1466,-3666.24,0,0
33949.9,97.6011,-3637.3,0,0
34210.2,95.062,-3607.92,0,0
34470.5,93.6358,-3579.53,0,0
34730.9,92.9488,-3551.38,0,0
34991.2,91.7563,-3523.67,0,0
35251.5,90.411,-3496.8,0,0
35511.8,89.4351,-3469.56,0,0
35772.2,89.0014,-3443,0,0
36032.5,88.5135,-3417.28,0,0
36292.8,87.9377,-3392.32,0,0
36553.1,86.9997,-3367.12,0,0
36813.5,86.4043,-3341.69,0,0
37073.8,86.6516,-3317.42,0,0
37334.1,86.27,-3293.29,0,0
37594.4,85.6471,-3270.04,0,0
37854.8,85.1505,-3246.29,0,0
38115.1,85.4814,-3222.19,0,0
38375.4,85.8663,-3199.01,0,0
38635.7,86.8041,-3175.91,0,0
38896.1,88.7544,-3153.25,0,0
39156.4,90.3724,-3131.62,0,0
39416.7,93.8637,-3110.08,0,0
39677,97.814,-3092.33,0,0
39937.4,98.7985,-3076.15,0,0
40197.7,99.1751,-3060.64,0,0
40458,96.0636,-3045,0,0
40718.3,92.9565,-3027.38,0,0
40978.7,89.7362,-3008.43,0,0
41239,86.9879,-2989.29,0,0
41499.3,85.0556,-2969.57,0,0
41759.6,83.9757,-2950.59,0,0
42020,82.3431,-2931.96,0,0
42280.275,80.6486,-2912.67,0,0
42540.6,80.1351,-2893.25,0,0
42800.925,80.2695,-2874.67,0,0
43061.25,80.5586,-2856.14,0,0
43321.575,80.5971,-2839.77,0,0
43581.9,78.8176,-2822.28,0,0
43842.225,79.012,-2803.78,0,0
44102.55,80.3183,-2786.07,0,0
44362.875,82.1024,-2770.25,0,0
44623.2,82.5678,-2755.59,0,0
44883.525,81.5864,-2741.83,0,0
45143.85,80.2395,-2725.72,0,0
45404.175,79.4673,-2710.28,0,0
45664.5,79.5061,-2693.28,0,0
45924.825,81.3394,-2679.46,0,0
46185.15,80.2784,-2667.51,0,0
46445.475,77.3856,-2653.73,0,0
46705.8,74.6784,-2638.93,0,0
46966.125,72.5127,-2623.12,0,0
47226.45,71.7463,-2607,0,0
47486.775,71.2343,-2591.92,0,0
47747.1,70.8939,-2577.15,0,0
48007.425,70.5083,-2562.72,0,0
48267.75,70.0308,-2548.65,0,0
48528.075,69.2033,-2534.67,0,0
48788.4,68.6835,-2520.54,0,0
49048.725,68.1344,-2506.82,0,0
49309.05,67.6647,-2492.89,0,0
49569.375,67.3164,-2479.33,0,0
49829.7,66.786,-2465.88,0,0
50090.025,66.4873,-2452.57,0,0
50350.35,66.2111,-2439.39,0,0
50610.675,65.8472,-2426.47,0,0
50871.0,65.6415,-2413.77,0,0
51131.325,65.1209,-2400.85,0,0
51391.65,64.8032,-2388.41,0,0
51651.975,64.634,-2375.76,0,0
51912.3,64.3461,-2363.38,0,0
52172.625,64.091,-2351.16,0,0
52432.95,63.9648,-2338.99,0,0
52693.275,63.6397,-2327.09,0,0
52953.6,63.7771,-2315.14,0,0
53213.925,63.7427,-2303.93,0,0
53474.25,63.3067,-2292.38,0,0
53734.575,63.0198,-2281.2,0,0
53994.9,62.5975,-2269.81,0,0
54255.225,62.3616,-2258.42,0,0
54515.55,62.0771,-2247.28,0,0
54775.875,61.8043,-2236.06,0,0
55036.2,61.5608,-2225.2,0,0
55296.525,61.3194,-2214.39,0,0
55556.85,61.0472,-2203.63,0,0
55817.175,60.7614,-2192.94,0,0
56077.5,60.5559,-2182.11,0,0
56337.825,60.4953,-2171.6,0,0
56598.15,60.4513,-2161.35,0,0
56858.475,60.2551,-2151.18,0,0
57118.8,60.005,-2140.96,0,0
57379.125,59.9218,-2130.91,0,0
57639.45,59.5646,-2120.87,0,0
57899.775,59.2325,-2110.67,0,0
58160.1,59.3279,-2100.55,0,0
58420.4,59.6774,-2090.8,0,0
58680.7,59.8215,-2081.59,0,0
58941.1,59.4816,-2072.18,0,0
59201.4,59.2356,-2062.59,0,0
59461.7,59.4319,-2052.99,0,0
59722,59.7977,-2044.18,0,0
59982.4,59.6031,-2035.13,0,0
60242.7,59.7132,-2026.28,0,0
60503,59.5911,-2017.77,0,0
60763.3,59.0818,-2009.26,0,0
61023.7,58.5806,-2000.38,0,0
61284,58.3579,-1991.7,0,0
61544.3,58.017,-1982.95,0,0
61804.6,57.4769,-1974.51,0,0
62065,57.0146,-1965.73,0,0
62325.3,56.7086,-1957.08,0,0
62585.6,56.3918,-1948.4,0,0
62845.9,56.0984,-1939.95,0,0
63106.3,55.822,-1931.43,0,0
63366.6,55.7179,-1922.86,0,0
63626.9,55.8203,-1914.61,0,0
63887.2,55.6368,-1906.54,0,0
64147.6,55.4198,-1898.31,0,0
64407.9,55.2546,-1890.25,0,0
64668.2,55.0079,-1882.34,0,0
64928.5,54.9844,-1874.21,0,0
65188.9,55.0588,-1866.29,0,0
65449.2,55.1837,-1858.68,0,0
65709.5,55.1566,-1851.18,0,0
65969.8,55.0023,-1843.69,0,0
66230.2,54.9659,-1836.23,0,0
66490.5,54.6207,-1829.11,0,0
66750.8,54.1476,-1821.74,0,0
67011.1,53.7914,-1814.33,0,0
67271.5,53.2289,-1806.88,0,0
67531.8,53.0583,-1799.42,0,0
67792.1,52.6731,-1792.01,0,0
68052.4,52.4742,-1784.66,0,0
68312.8,52.2887,-1777.36,0,0
68573.1,52.1435,-1770.08,0,0
68833.4,51.8641,-1762.98,0,0
69093.7,51.738,-1755.82,0,0
69354.1,51.6613,-1748.57,0,0
69614.4,51.627,-1741.65,0,0
69874.7,51.4759,-1734.71,0,0
70135,51.3576,-1727.8,0,0
70395.4,51.3096,-1721.01,0,0
70655.7,51.3157,-1714.21,0,0
70916,51.2039,-1707.49,0,0
71176.3,51.3488,-1700.94,0,0
71436.7,51.2565,-1694.5,0,0
71697,50.9756,-1688.12,0,0
71957.3,50.7353,-1681.61,0,0
72217.6,50.5458,-1675.23,0,0
72478,50.2519,-1668.73,0,0
72738.3,50.1209,-1662.34,0,0
72998.6,49.8822,-1655.85,0,0
73258.9,49.7743,-1649.47,0,0
73519.3,49.6726,-1643.2,0,0
73779.6,49.469,-1636.88,0,0
74039.9,49.3586,-1630.64,0,0
74300.225,49.2351,-1624.44,0,0
74560.55,49.1098,-1618.26,0,0
74820.875,48.9727,-1612.13,0,0
75081.2,48.9365,-1606.07,0,0
75341.525,48.8563,-1600.07,0,0
75601.85,48.7635,-1594.11,0,0
75862.175,48.6091,-1588.1,0,0
76122.5,48.4314,-1582.19,0,0
76382.825,48.3589,-1576.17,0,0
76643.15,48.2703,-1570.36,0,0
76903.475,48.2267,-1564.52,0,0
77163.8,48.2029,-1558.73,0,0
77424.125,48.1497,-1552.99,0,0
77684.45,48.1182,-1547.35,0,0
77944.775,48.0077,-1541.71,0,0
78205.1,47.886,-1536.08,0,0
78465.425,47.8749,-1530.42,0,0
78725.75,47.7864,-1524.89,0,0
78986.075,47.7686,-1519.37,0,0
79246.4,47.7597,-1513.82,0,0
79506.725,47.6997,-1508.4,0,0
79767.05,47.6718,-1502.97,0,0
80027.375,47.7435,-1497.64,0,0
80287.7,47.612,-1492.28,0,0
80548.025,47.565,-1487.02,0,0
80808.35,47.4359,-1481.74,0,0
81068.675,47.3093,-1476.47,0,0
81329.0,47.2666,-1471.2,0,0
81589.325,47.278,-1465.91,0,0
81849.65,47.1809,-1460.82,0,0
82109.975,47.1381,-1455.65,0,0
82370.3,47.0833,-1450.43,0,0
82630.625,47.0492,-1445.42,0,0
82890.95,46.9975,-1440.34,0,0
83151.275,46.8909,-1435.16,0,0
83411.6,46.8394,-1430.17,0,0
83671.925,46.8662,-1425.05,0,0
83932.25,46.9086,-1420.07,0,0
84192.575,46.9945,-1415.12,0,0
84452.9,46.9965,-1410.13,0,0
84713.225,47.1148,-1405.34,0,0
84973.55,47.2298,-1400.52,0,0
85233.875,47.2962,-1395.66,0,0
85494.2,47.2685,-1391.05,0,0
85754.525,47.1533,-1386.3,0,0
86014.85,47.113,-1381.5,0,0
86275.175,47.2679,-1376.71,0,0
86535.5,47.3193,-1372.21,0,0
86795.825,47.2405,-1367.57,0,0
87056.15,47.1988,-1362.82,0,0
87316.475,47.3595,-1358.34,0,0
87576.8,47.4667,-1353.8,0,0
87837.125,47.4849,-1349.48,0,0
88097.45,47.3976,-1344.99,0,0
88357.775,47.3143,-1340.46,0,0
88618.1,47.2537,-1336.1,0,0
88878.425,47.2063,-1331.69,0,0
89138.75,47.0321,-1327.13,0,0
89399.075,46.9219,-1322.63,0,0
89659.4,46.8982,-1318.12,0,0
89919.725,46.9931,-1313.59,0,0
90180,46.921,-1309.15,0,0
90440.4,47.0274,-1304.6,0,0
90700.7,47.1322,-1300.35,0,0
90961,47.0384,-1296,0,0
91221.3,47.067,-1291.62,0,0
91481.7,47.1963,-1287.22,0,0
91742,47.3303,-1282.86,0,0
92002.3,47.4578,-1278.48,0,0
92262.6,47.6331,-1274.36,0,0
92523,47.8052,-1270.23,0,0
92783.3,47.8338,-1266.13,0,0
93043.6,47.7579,-1261.8,0,0
93303.9,48.0262,-1257.39,0,0
93564.3,48.3191,-1253.15,0,0
93824.6,48.7479,-1248.93,0,0
94084.9,49.3154,-1244.96,0,0
94345.2,49.7418,-1241.17,0,0
94605.6,50.1136,-1237.42,0,0
94865.9,50.3993,-1233.72,0,0
95126.2,50.8274,-1230.3,0,0
95386.5,50.8194,-1227.05,0,0
95646.9,50.3257,-1223.55,0,0
95907.2,49.9416,-1219.72,0,0
96167.5,49.7547,-1215.8,0,0
96427.8,49.5331,-1211.93,0,0
96688.2,49.45,-1207.91,0,0
96948.5,49.3634,-1204.02,0,0
97208.8,49.2983,-1200.09,0,0
97469.1,49.2145,-1196.01,0,0
97729.5,49.467,-1191.9,0,0
97989.8,49.8024,-1188.04,0,0
98250.1,50.0154,-1184.38,0,0
98510.4,50.2001,-1180.71,0,0
98770.8,50.2687,-1177.08,0,0
99031.1,50.2836,-1173.52,0,0
99291.4,50.1461,-1169.88,0,0
99551.7,49.9116,-1166.11,0,0
99812.1,49.8473,-1162.03,0,0
100072,50.0101,-1158.03,0,0
100333,50.3784,-1154.16,0,0
100593,50.6024,-1150.44,0,0
100853,50.8283,-1146.62,0,0
101114,51.3083,-1142.85,0,0
101374,51.6621,-1139.42,0,0
101634,51.8136,-1135.83,0,0
101895,52.1032,-1132.08,0,0
102155,52.4503,-1128.41,0,0
102415,52.8599,-1124.87,0,0
102676,53.2546,-1121.26,0,0
102936,53.8164,-1117.69,0,0
103196,54.4863,-1114.35,0,0
103457,55.1277,-1111.1,0,0
103717,55.7595,-1108.13,0,0
103977,55.9494,-1105.45,0,0
104238,55.8295,-1102.27,0,0
104498,56.0289,-1098.95,0,0
104758,56.4182,-1095.8,0,0
105019,56.6289,-1092.91,0,0
105279,56.6203,-1090,0,0
105539,56.4628,-1086.91,0,0
105800,56.3289,-1083.67,0,0
106060,56.1738,-1080.43,0,0
106320.175,56.179,-1076.91,0,0
106580.5,56.2733,-1073.45,0,0
106840.825,56.5965,-1069.99,0,0
107101.15,56.9421,-1066.9,0,0
107361.475,56.9451,-1063.8,0,0
107621.8,57.0258,-1060.51,0,0
107882.125,57.0757,-1057.11,0,0
108142.45,57.3883,-1053.74,0,0
108402.775,57.6793,-1050.51,0,0
108663.1,57.9601,-1047.31,0,0
108923.425,58.1488,-1044.18,0,0
109183.75,58.3061,-1040.99,0,0
109444.075,58.4487,-1037.86,0,0
109704.4,58.3998,-1034.54,0,0
109964.725,58.4891,-1031.02,0,0
110225.05,58.7074,-1027.43,0,0
110485.375,59.2093,-1023.77,0,0
110745.7,59.752,-1020.17,0,0
111006.025,60.6774,-1016.82,0,0
111266.35,61.4042,-1013.65,0,0
111526.675,61.7877,-1010.54,0,0
111787.0,62.3995,-1007.07,0,0
112047.325,63.2652,-1003.54,0,0
112307.65,64.3212,-1000.29,0,0
112567.975,65.4668,-997.143,0,0
112828.3,66.5343,-994.327,0,0
113088.625,67.4737,-991.323,0,0
113348.95,68.6159,-988.525,0,0
113609.275,69.5714,-985.853,0,0
113869.6,70.5779,-983.053,0,0
114129.925,71.5569,-980.231,0,0
114390.25,72.8075,-977.482,0,0
114650.575,74.0945,-974.873,0,0
114910.9,75.3133,-972.486,0,0
115171.225,76.4305,-969.943,0,0
115431.55,77.8162,-967.405,0,0
115691.875,79.5375,-964.965,0,0
115952.2,81.2576,-963.089,0,0
116212.525,82.747,-961.233,0,0
116472.85,84.5511,-959.591,0,0
116733.175,86.1668,-958.576,0,0
116993.5,87.2874,-957.765,0,0
117253.825,88.1181,-956.814,0,0
117514.15,88.9668,-955.835,0,0
117774.475,89.5951,-954.988,0,0
118034.8,89.9798,-953.98,0,0
118295.125,90.5986,-952.739,0,0
118555.45,91.59,-951.866,0,0
118815.775,92.2816,-951.515,0,0
119076.1,92.7638,-951.226,0,0
119336.425,93.1248,-951.382,0,0
119596.75,92.8409,-951.981,0,0
119857.075,91.7245,-952.544,0,0
120117.4,89.9847,-952.435,0,0
120377.725,88.4045,-952.208,0,0
120638.05,86.0546,-951.796,0,0
120898.375,83.453,-950.669,0,0
121158.7,80.822,-948.948,0,0
121419.025,78.478,-946.503,0,0
121679.35,76.7909,-943.983,0,0
121939.675,75.2077,-941.672,0,0
122200.0,73.5825,-939.281,0,0
122460,71.9201,-936.723,0,0
122721,70.4802,-934.041,0,0
122981,69.0103,-931.396,0,0
123241,67.584,-928.457,0,0
123502,66.4051,-925.422,0,0
123762,65.4117,-922.371,0,0
124022,64.6652,-919.337,0,0
124283,64.0357,-916.527,0,0
124543,63.2804,-913.864,0,0
124803,62.533,-911.166,0,0
125064,61.7352,-908.552,0,0
125324,60.7356,-905.805,0,0
125584,59.8566,-902.872,0,0
125845,59.148,-899.914,0,0
126105,58.5093,-897.043,0,0
126365,57.7209,-894.27,0,0
126626,56.9955,-891.169,0,0
126886,56.4356,-888.194,0,0
127146,55.8437,-885.273,0,0
127406,55.1627,-882.086,0,0
127667,54.914,-878.892,0,0
127927,54.6481,-875.957,0,0
128187,54.4017,-873.107,0,0
128448,54.0238,-870.292,0,0
128708,53.5944,-867.398,0,0
128968,53.208,-864.412,0,0
129229,52.9875,-861.373,0,0
129489,52.7648,-858.544,0,0
129749,52.4403,-855.69,0,0
130010,52.0931,-852.68,0,0
130270,51.9956,-849.71,0,0
130530,51.8969,-846.945,0,0
130791,51.6068,-844.24,0,0
131051,51.1841,-841.384,0,0
131311,50.7498,-838.323,0,0
131572,50.5395,-835.075,0,0
131832,50.5201,-831.97,0,0
132092,50.4815,-828.985,0,0
132353,50.4056,-825.952,0,0
132613,50.3635,-822.857,0,0
132873,50.3779,-819.747,0,0
133134,50.4526,-816.648,0,0
133394,50.592,-813.518,0,0
133654,50.7814,-810.384,0,0
133915,51.0779,-807.185,0,0
134175,51.5761,-804.013,0,0
134435,52.1686,-800.972,0,0
134696,52.8964,-798.148,0,0
134956,53.4711,-795.402,0,0
135216,54.0248,-792.615,0,0
135477,54.7514,-789.686,0,0
135737,55.8223,-786.998,0,0
135997,56.9243,-784.633,0,0
136258,57.8593,-782.657,0,0
136518,58.7546,-780.817,0,0
136778,59.5094,-779.348,0,0
137039,59.6066,-778.209,0,0
137299,59.1768,-776.647,0,0
137559,58.6305,-774.74,0,0
137819,58.1247,-772.58,0,0
138080,57.6758,-770.276,0,0
138340.125,57.0978,-767.938,0,0
138600.45,56.5079,-765.302,0,0
138860.775,56.0885,-762.396,0,0
139121.1,55.9818,-759.448,0,0
139381.425,56.0027,-756.615,0,0
139641.75,56.0517,-753.832,0,0
139902.075,56.1712,-751.111,0,0
140162.4,56.3362,-748.535,0,0
140422.725,56.3318,-745.967,0,0
140683.05,56.2752,-743.289,0,0
140943.375,56.2362,-740.557,0,0
141203.7,56.2399,-737.832,0,0
141464.025,56.2351,-734.999,0,0
141724.35,56.3199,-732.069,0,0
141984.675,56.5192,-729.151,0,0
142245.0,56.7634,-726.296,0,0
142505.325,57.021,-723.389,0,0
142765.65,57.3442,-720.523,0,0
143025.975,57.8103,-717.567,0,0
143286.3,58.3346,-714.731,0,0
143546.625,58.9544,-712.037,0,0
143806.95,59.5719,-709.437,0,0
144067.275,60.1208,-706.966,0,0
144327.6,60.6226,-704.525,0,0
144587.925,61.0369,-702.138,0,0
144848.25,61.3542,-699.701,0,0
145108.575,61.6632,-697.265,0,0
145368.9,61.907,-694.837,0,0
145629.225,62.0929,-692.371,0,0
145889.55,62.2248,-689.818,0,0
146149.875,62.3901,-687.14,0,0
146410.2,62.6753,-684.421,0,0
146670.525,62.9721,-681.794,0,0
146930.85,63.2286,-679.081,0,0
147191.175,63.6146,-676.4,0,0
147451.5,63.9049,-673.845,0,0
147711.825,64.0984,-671.088,0,0
147972.15,64.5761,-668.338,0,0
148232.475,65.024,-665.855,0,0
148492.8,65.2626,-663.415,0,0
148753.125,65.3448,-660.951,0,0
149013.45,65.3012,-658.352,0,0
149273.775,65.1447,-655.529,0,0
149534.1,65.1348,-652.53,0,0
149794.425,65.1474,-649.483,0,0
150054.75,65.1724,-646.374,0,0
150315.075,65.3041,-643.134,0,0
150575.4,65.5067,-639.869,0,0
150835.725,65.6861,-636.497,0,0
151096.05,65.9948,-633.034,0,0
151356.375,66.4461,-629.518,0,0
151616.7,66.9483,-626.007,0,0
151877.025,67.5255,-622.439,0,0
152137.35,68.1874,-618.847,0,0
152397.675,68.951,-615.233,0,0
152658.0,69.8136,-611.635,0,0
152918.325,70.7164,-608.007,0,0
153178.65,71.7325,-604.366,0,0
153438.975,72.8218,-600.791,0,0
153699.3,73.9113,-597.189,0,0
153959.625,75.045,-593.517,0,0
154219.95,76.3033,-589.805,0,0
154480,77.6938,-586.125,0,0
154741,79.125,-582.405,0,0
155001,80.7013,-578.64,0,0
155261,82.4285,-574.91,0,0
155522,84.2512,-571.307,0,0
155782,86.1193,-567.679,0,0
156042,88.1544,-564.064,0,0
156303,90.273,-560.532,0,0
156563,92.4616,-557.026,0,0
156823,94.7851,-553.603,0,0
157084,97.2029,-550.183,0,0
157344,99.8489,-546.859,0,0
157604,102.673,-543.804,0,0
157864,105.483,-541.009,0,0
158125,108.22,-538.361,0,0
158385,111.019,-535.87,0,0
158645,113.811,-533.727,0,0
158906,116.311,-531.863,0,0
159166,118.521,-530.121,0,0
159426,120.361,-528.423,0,0
159687,121.886,-526.585,0,0
159947,123.075,-524.65,0,0
160207,123.943,-522.334,0,0
160468,124.798,-519.596,0,0
160728,125.657,-516.664,0,0
160988,126.218,-513.368,0,0
161249,126.848,-509.339,0,0
161509,127.854,-504.74,0,0
161769,129.413,-499.755,0,0
162030,131.62,-494.659,0,0
162290,134.323,-489.533,0,0
162550,137.455,-484.69,0,0
162811,140.559,-479.957,0,0
163071,143.848,-474.881,0,0
163331,147.699,-469.61,0,0
163592,152.281,-464.371,0,0
163852,157.282,-459.665,0,0
164112,162.464,-455.365,0,0
164373,167.68,-451.075,0,0
164633,173.31,-447.034,0,0
164893,179.076,-443.42,0,0
165154,184.497,-440.081,0,0
165414,189.608,-436.404,0,0
165674,195.002,-432.051,0,0
165935,201.103,-427.186,0,0
166195,208.252,-422.299,0,0
166455,216.359,-417.681,0,0
166716,225.175,-413.701,0,0
166976,234.397,-410.203,0,0
167236,244.356,-406.946,0,0
167497,255.277,-404.403,0,0
167757,266.7,-403.035,0,0
168017,278.227,-402.351,0,0
168277,290.421,-402.407,0,0
168538,303.15,-403.848,0,0
168798,315.842,-406.607,0,0
169058,328.351,-410.584,0,0
169319,340.693,-415.986,0,0
169579,352.093,-422.704,0,0
169839,362.732,-429.622,0,0
170100,373.54,-437.261,0,0
170360.075,384.249,-446.234,0,0
170620.4,393.97,-457.299,0,0
170880.725,401.417,-469.227,0,0
171141.05,407.506,-480.742,0,0
171401.375,413,-492.373,0,0
171661.7,417.685,-504.263,0,0
171922.025,421.91,-516.376,0,0
172182.35,425.574,-529.41,0,0
172442.675,427.856,-543.617,0,0
172703.0,428.137,-558.199,0,0
172963.325,426.594,-572.923,0,0
173223.65,422.946,-587.186,0,0
173483.975,417.594,-601.056,0,0
173744.3,409.59,-613.851,0,0
174004.625,399.802,-624.238,0,0
174264.95,389.3,-632.082,0,0
174525.275,379.054,-637.764,0,0
174785.6,368.629,-642.061,0,0
175045.925,358.112,-643.754,0,0
175306.25,349.827,-643.393,0,0
175566.575,342.552,-643.378,0,0
175826.9,335.169,-641.811,0,0
176087.225,329.958,-638.631,0,0
176347.55,326.726,-635.826,0,0
176607.875,324.219,-633.216,0,0
176868.2,323.287,-630.189,0,0
177128.525,324.491,-628.072,0,0
177388.85,326.422,-628.151,0,0
177649.175,327.667,-629.043,0,0
177909.5,329.709,-629.826,0,0
178169.825,333.417,-632.012,0,0
178430.15,337.66,-637.451,0,0
178690.475,339.671,-646.153,0,0
178950.8,338.392,-655.713,0,0
179211.125,334.378,-664.792,0,0
179471.45,328.237,-672.444,0,0
179731.775,321.111,-678.081,0,0
179992.1,314.194,-682.022,0,0
180252.425,308.015,-685.305,0,0
180512.75,302.133,-688.692,0,0
180773.075,295.975,-692.236,0,0
181033.4,289.418,-695.992,0,0
181293.725,281.476,-699.71,0,0
181554.05,272.475,-701.824,0,0
181814.375,263.916,-702.63,0,0
182074.7,255.473,-703.281,0,0
182335.025,246.44,-703.229,0,0
182595.35,237.226,-701.991,0,0
182855.675,228.21,-699.528,0,0
183116.0,220.013,-695.844,0,0
183376.325,213.113,-691.729,0,0
183636.65,206.811,-688.009,0,0
183896.975,200.312,-684.165,0,0
184157.3,193.969,-679.507,0,0
184417.625,188.464,-674.15,0,0
184677.95,184.065,-668.653,0,0
184938.275,180.481,-663.878,0,0
185198.6,176.881,-659.63,0,0
185458.925,173.016,-655.508,0,0
185719.25,168.749,-651.292,0,0
185979.575,164.388,-646.22,0,0
186239.9,160.839,-640.485,0,0
186500,158.066,-634.809,0,0
186761,155.608,-629.46,0,0
187021,153.14,-623.98,0,0
187281,151.256,-618.092,0,0
187542,150.241,-612.337,0,0
187802,149.797,-607.208,0,0
188062,149.498,-602.738,0,0
188322,149.048,-598.719,0,0
188583,148.534,-595.008,0,0
188843,147.615,-591.719,0,0
189103,146.142,-588.249,0,0
189364,144.53,-584.316,0,0
189624,143.216,-580.189,0,0
189884,141.866,-576.063,0,0
190145,140.54,-571.617,0,0
190405,139.572,-567.177,0,0
190665,138.456,-562.96,0,0
190926,137.133,-558.277,0,0
191186,136.221,-553.121,0,0
191446,135.917,-547.885,0,0
191707,136.038,-543.006,0,0
191967,136.058,-538.541,0,0
192227,135.859,-534.062,0,0
192488,135.692,-529.263,0,0
192748,135.752,-524.344,0,0
193008,135.974,-519.373,0,0
193269,136.467,-514.306,0,0
193529,137.234,-509.363,0,0
193789,138.108,-504.512,0,0
194050,139.054,-499.701,0,0
194310,140.079,-494.836,0,0
194570,141.308,-489.82,0,0
194831,142.913,-484.77,0,0
195091,144.837,-479.958,0,0
195351,147.034,-475.427,0,0
195612,149.202,-471.201,0,0
195872,151.395,-467.007,0,0
196132,153.69,-463.048,0,0
196393,155.931,-459.193,0,0
196653,158.217,-455.443,0,0
196913,160.545,-451.658,0,0
197174,163.059,-448.126,0,0
197434,165.589,-444.796,0,0
197694,167.965,-441.955,0,0
197955,169.746,-439.125,0,0
198215,171.293,-435.865,0,0
198475,173.016,-432.351,0,0
198735,174.837,-428.873,0,0
198996,176.538,-425.343,0,0
199256,178.19,-421.719,0,0
199516,179.696,-417.822,0,0
199777,181.364,-413.489,0,0
200037,183.457,-408.903,0,0
200297,185.821,-404.328,0,0
200558,188.379,-399.606,0,0
200818,191.246,-395.092,0,0
201078,194.173,-390.582,0,0
201339,197.13,-385.922,0,0
201599,200.3,-380.964,0,0
201859,203.872,-375.915,0,0
202120,207.935,-370.762,0,0
202380.025,212.379,-365.807,0,0
202640.35,217.137,-361.014,0,0
202900.675,222.139,-356.418,0,0
203161.0,227.42,-351.905,0,0
203421.325,232.871,-347.547,0,0
203681.65,238.684,-343.326,0,0
203941.975,244.589,-339.299,0,0
204202.3,250.8,-335.369,0,0
204462.625,257.303,-331.494,0,0
204722.95,263.927,-327.909,0,0
204983.275,270.803,-324.157,0,0
205243.6,278.328,-320.204,0,0
205503.925,286.941,-316.824,0,0
205764.25,296.154,-314.52,0,0
206024.575,305.314,-313.264,0,0
206284.9,314.263,-312.713,0,0
206545.225,322.945,-312.748,0,0
206805.55,331.438,-313.417,0,0
207065.875,339.242,-314.668,0,0
207326.2,346.391,-316.002,0,0
207586.525,352.937,-317.208,0,0
207846.85,359.012,-318.12,0,0
208107.175,364.871,-318.208,0,0
208367.5,371.244,-317.507,0,0
208627.825,378.339,-316.434,0,0
208888.15,386.426,-315.166,0,0
209148.475,395.663,-314.243,0,0
209408.8,405.97,-313.992,0,0
209669.125,417.012,-314.716,0,0
209929.45,428.6,-316.424,0,0
210189.775,441.122,-319.466,0,0
210450.1,453.737,-324.462,0,0
210710.425,465.676,-331.603,0,0
210970.75,476.117,-340.108,0,0
211231.075,485.177,-349.005,0,0
211491.4,493.406,-358.19,0,0
211751.725,500.929,-367.861,0,0
212012.05,507.397,-378.028,0,0
212272.375,512.599,-388.27,0,0
212532.7,517.251,-398.054,0,0
212793.025,521.63,-408.105,0,0
213053.35,524.977,-418.744,0,0
213313.675,526.857,-429.009,0,0
213574.0,528.103,-438.111,0,0
213834.325,529.642,-446.644,0,0
214094.65,531.443,-455.301,0,0
214354.975,532.897,-464.68,0,0
214615.3,533.249,-474.3,0,0
214875.625,532.724,-483.187,0,0
215135.95,531.899,-491.465,0,0
215396.275,530.899,-499.157,0,0
215656.6,530.063,-506.536,0,0
215916.925,529.342,-513.656,0,0
216177.25,529.043,-520.836,0,0
216437.575,529.022,-528.587,0,0
216697.9,528.732,-537.366,0,0
216958.225,527.295,-546.952,0,0
217218.55,524.292,-556.578,0,0
217478.875,520.006,-565.328,0,0
217739.2,515.348,-573.025,0,0
217999.525,510.686,-580.312,0,0
218259.85,505.731,-587.312,0,0
218520,500.435,-594.226,0,0
218780,494.423,-601.084,0,0
219041,487.371,-607.455,0,0
219301,479.428,-612.688,0,0
219561,471.088,-616.628,0,0
219822,462.643,-619.316,0,0
220082,454.342,-620.498,0,0
220342,446.793,-620.521,0,0
220603,440.458,-619.845,0,0
220863,434.62,-619.113,0,0
221123,429.061,-618.007,0,0
221384,423.88,-616.448,0,0
221644,419.422,-614.282,0,0
221904,415.785,-611.858,0,0
222165,412.928,-609.388,0,0
222425,410.8,-606.99,0,0
222685,409.466,-604.973,0,0
222946,408.284,-603.416,0,0
223206,407.286,-602.098,0,0
223466,406.55,-601.072,0,0
223727,405.864,-600.215,0,0
223987,405.164,-599.563,0,0
224247,404.497,-599.025,0,0
224508,403.713,-598.575,0,0
224768,402.829,-597.973,0,0
225028,401.865,-597.051,0,0
225289,401.141,-595.509,0,0
225549,401.295,-593.505,0,0
225809,402.412,-591.711,0,0
226070,404.266,-590.529,0,0
226330,406.529,-590.113,0,0
226590,408.832,-590.311,0,0
226851,410.95,-591.079,0,0
227111,412.923,-592.016,0,0
227371,415.035,-593.142,0,0
227632,417.25,-594.495,0,0
227892,419.645,-596.179,0,0
228152,422.265,-598.406,0,0
228413,424.798,-601.294,0,0
228673,427.111,-604.749,0,0
228933,429.085,-608.747,0,0
229193,430.529,-613.098,0,0
229454,431.261,-617.627,0,0
229714,431.649,-621.844,0,0
229974,432.267,-625.821,0,0
230235,433.307,-630.348,0,0
230495,434.3,-635.738,0,0
230755,434.283,-642.114,0,0
231016,432.995,-648.502,0,0
231276,430.884,-654.29,0,0
231536,428.696,-659.413,0,0
231797,426.755,-664.483,0,0
232057,424.846,-669.882,0,0
232317,422.711,-675.782,0,0
232578,419.934,-682.166,0,0
232838,416.189,-688.796,0,0
233098,411.421,-695.128,0,0
233359,406.087,-701.055,0,0
233619,400.219,-706.825,0,0
233879,393.326,-712.362,0,0
234140,385.504,-717.107,0,0
234400,377.209,-720.777,0,0
234660.3,368.573,-723.739,0,0
234920.625,359.376,-725.718,0,0
235180.95,350.073,-726.156,0,0
235441.275,341.319,-725.196,0,0
235701.6,333.443,-723.437,0,0
235961.925,326.242,-721.084,0,0
236222.25,320.031,-718.384,0,0
236482.575,314.68,-715.596,0,0
236742.9,310.01,-713.189,0,0
237003.225,305.6,-711.189,0,0
237263.55,301.149,-709.565,0,0
237523.875,296.376,-707.992,0,0
237784.2,291.476,-706.271,0,0
238044.525,286.24,-704.341,0,0
238304.85,280.733,-701.794,0,0
238565.175,275.171,-698.364,0,0
238825.5,270.24,-693.816,0,0
239085.825,266.441,-688.727,0,0
239346.15,263.758,-683.362,0,0
239606.475,262.318,-678.295,0,0
239866.8,261.949,-674.088,0,0
240127.125,261.97,-670.838,0,0
240387.45,261.988,-668.606,0,0
240647.775,261.738,-667.269,0,0
240908.1,260.749,-666.367,0,0
241168.425,259.214,-665.506,0,0
241428.75,257.368,-664.452,0,0
241689.075,255.387,-663.41,0,0
241949.4,253.192,-662.404,0,0
242209.725,250.161,-661.458,0,0
242470.05,246.652,-659.786,0,0
242730.375,243.145,-656.999,0,0
242990.7,240.297,-653.636,0,0
243251.025,238.125,-650.178,0,0
243511.35,236.127,-646.821,0,0
243771.675,234.216,-643.221,0,0
244032.0,232.678,-639.212,0,0
244292.325,231.804,-634.983,0,0
244552.65,231.771,-630.786,0,0
244812.975,232.503,-627.18,0,0
245073.3,233.603,-624.348,0,0
245333.625,234.428,-622.39,0,0
245593.95,234.933,-620.65,0,0
245854.275,235.205,-619.035,0,0
246114.6,235.291,-617.682,0,0
246374.925,235.068,-616.325,0,0
246635.25,234.687,-614.853,0,0
246895.575,234.159,-613.344,0,0
247155.9,233.446,-611.717,0,0
247416.225,232.698,-609.804,0,0
247676.55,232.073,-607.629,0,0
247936.875,231.626,-605.324,0,0
248197.2,231.357,-603.001,0,0
248457.525,231.17,-600.642,0,0
248717.85,231.187,-598.247,0,0
248978.175,231.312,-595.816,0,0
249238.5,231.586,-593.395,0,0
249498.825,231.954,-590.979,0,0
249759.15,232.509,-588.585,0,0
250019.475,233.187,-586.084,0,0
250279.8,234.082,-583.584,0,0
250540,235.242,-581.143,0,0
250800,236.604,-578.8,0,0
251061,238.228,-576.579,0,0
251321,240.085,-574.573,0,0
251581,241.983,-572.751,0,0
251842,244.021,-571.033,0,0
252102,246.264,-569.374,0,0
252362,248.842,-567.905,0,0
252623,251.729,-566.77,0,0
252883,254.87,-566.083,0,0
253143,258.146,-565.953,0,0
253404,261.368,-566.51,0,0
253664,264.284,-567.59,0,0
253924,266.885,-569.106,0,0
254185,269.035,-570.936,0,0
254445,270.752,-572.916,0,0
254705,272.136,-574.955,0,0
254966,273.192,-577.135,0,0
255226,273.931,-579.482,0,0
255486,274.264,-581.804,0,0
255747,274.139,-584.031,0,0
256007,273.698,-586.082,0,0
256267,272.976,-587.908,0,0
256528,272.156,-589.531,0,0
256788,271.166,-591.037,0,0
257048,269.95,-592.409,0,0
257309,268.518,-593.449,0,0
257569,267.072,-594.112,0,0
257829,265.741,-594.567,0,0
258090,264.441,-594.875,0,0
258350,263.174,-594.939,0,0
258610,262.14,-594.823,0,0
258871,261.367,-594.637,0,0
259131,260.763,-594.714,0,0
259391,260.158,-594.912,0,0
259651,259.328,-595.312,0,0
259912,258.251,-595.545,0,0
260172,256.939,-595.637,0,0
260432,255.663,-595.386,0,0
260693,254.368,-594.89,0,0
260953,253.254,-594.169,0,0
261213,252.319,-593.334,0,0
261474,251.495,-592.374,0,0
261734,250.814,-591.266,0,0
261994,250.312,-589.956,0,0
262255,250.217,-588.487,0,0
262515,250.527,-587.006,0,0
262775,251.285,-585.684,0,0
263036,252.451,-584.589,0,0
263296,253.946,-583.988,0,0
263556,255.508,-583.944,0,0
263817,256.959,-584.362,0,0
264077,258.256,-585.13,0,0
264337,259.303,-586.263,0,0
264598,259.998,-587.653,0,0
264858,260.316,-589.09,0,0
265118,260.209,-590.58,0,0
265379,259.745,-591.99,0,0
265639,259.079,-593.002,0,0
265899,258.389,-593.795,0,0
266160,257.734,-594.279,0,0
266420,257.218,-594.641,0,0
266680.25,256.917,-594.976,0,0
266940.575,256.832,-595.438,0,0
267200.9,256.773,-596.123,0,0
267461.225,256.583,-597.023,0,0
267721.55,256.233,-598,0,0
267981.875,255.616,-598.982,0,0
268242.2,254.816,-599.887,0,0
268502.525,253.806,-600.614,0,0
268762.85,252.74,-601.025,0,0
269023.175,251.688,-601.198,0,0
269283.5,250.86,-601.092,0,0
269543.825,250.301,-600.733,0,0
269804.15,249.988,-600.421,0,0
270064.475,249.975,-600.099,0,0
270324.8,250.246,-599.694,0,0
270585.125,250.897,-599.351,0,0
270845.45,251.92,-599.288,0,0
271105.775,253.333,-599.509,0,0
271366.1,255.083,-600.125,0,0
271626.425,257.182,-601.302,0,0
271886.75,259.526,-603.244,0,0
272147.075,261.883,-606.094,0,0
272407.4,264.05,-609.942,0,0
272667.725,265.494,-614.863,0,0
272928.05,265.946,-620.48,0,0
273188.375,265.276,-626.511,0,0
273448.7,263.516,-632.647,0,0
273709.025,260.576,-638.626,0,0
273969.35,256.754,-644.191,0,0
274229.675,252.072,-649.239,0,0
274490.0,246.814,-653.741,0,0
274750.325,241.048,-657.65,0,0
275010.65,234.733,-661.225,0,0
275270.975,227.727,-664.176,0,0
275531.3,220.103,-666.135,0,0
275791.625,212.26,-666.93,0,0
276051.95,204.573,-666.749,0,0
276312.275,197.153,-665.774,0,0
276572.6,190.02,-664.118,0,0
276832.925,183.074,-661.91,0,0
277093.25,176.342,-658.948,0,0
277353.575,170.049,-655.254,0,0
277613.9,164.451,-650.91,0,0
277874.225,159.648,-646.231,0,0
278134.55,155.527,-641.399,0,0
278394.875,151.987,-636.529,0,0
278655.2,149.039,-631.683,0,0
278915.525,146.611,-626.954,0,0
279175.85,144.484,-622.395,0,0
279436.175,142.658,-617.829,0,0
279696.5,141.212,-613.418,0,0
279956.825,140.056,-609.053,0,0
280217.15,139.237,-604.782,0,0
280477.475,138.84,-600.767,0,0
280737.8,138.745,-597.001,0,0
280998.125,138.874,-593.706,0,0
281258.45,139.004,-590.854,0,0
281518.775,138.916,-588.315,0,0
281779.1,138.641,-585.895,0,0
282039.425,138.209,-583.532,0,0
282299.75,137.611,-581.162,0,0
282560,136.815,-578.676,0,0
282820,135.962,-575.985,0,0
283081,135.18,-573.029,0,0
283341,134.564,-569.851,0,0
283601,134.203,-566.545,0,0
283862,134.095,-563.206,0,0
284122,134.279,-559.832,0,0
284382,134.693,-556.541,0,0
284643,135.361,-553.379,0,0
284903,136.27,-550.295,0,0
285163,137.377,-547.401,0,0
285424,138.641,-544.717,0,0
285684,140.089,-542.274,0,0
285944,141.561,-540.089,0,0
286205,143.058,-538.141,0,0
286465,144.538,-536.436,0,0
286725,145.95,-534.945,0,0
286986,147.257,-533.676,0,0
287246,148.391,-532.543,0,0
287506,149.378,-531.554,0,0
287767,150.115,-530.58,0,0
288027,150.634,-529.565,0,0
288287,151.013,-528.381,0,0
288548,151.369,-527.042,0,0
288808,151.758,-525.56,0,0
289068,152.208,-524.019,0,0
289329,152.711,-522.401,0,0
289589,153.299,-520.719,0,0
289849,153.931,-519.025,0,0
290109,154.607,-517.259,0,0
290370,155.405,-515.418,0,0
290630,156.399,-513.488,0,0
290890,157.614,-511.624,0,0
291151,158.974,-509.924,0,0
291411,160.445,-508.344,0,0
291671,161.947,-506.934,0,0
291932,163.404,-505.655,0,0
292192,164.806,-504.451,0,0
292452,166.161,-503.185,0,0
292713,167.603,-501.903,0,0
292973,169.155,-500.664,0,0
293233,170.759,-499.48,0,0
293494,172.413,-498.396,0,0
293754,174.064,-497.382,0,0
294014,175.772,-496.388,0,0
294275,177.46,-495.473,0,0
294535,179.165,-494.552,0,0
294795,180.902,-493.623,0,0
295056,182.768,-492.687,0,0
295316,184.74,-491.825,0,0
295576,186.834,-491.049,0,0
295837,188.927,-490.361,0,0
296097,191.103,-489.757,0,0
296357,193.342,-489.178,0,0
296618,195.704,-488.684,0,0
296878,198.175,-488.303,0,0
297138,200.747,-488.066,0,0
297399,203.409,-487.975,0,0
297659,206.161,-488.071,0,0
297919,208.932,-488.378,0,0
298180,211.673,-488.916,0,0
298440,214.36,-489.582,0,0
298700.2,217.007,-490.443,0,0
298960.525,219.644,-491.27,0,0
299220.85,222.224,-492.236,0,0
299481.175,224.91,-493.268,0,0
299741.5,227.6,-494.435,0,0
300001.825,230.482,-495.848,0,0
300262.15,233.322,-497.373,0,0
300522.475,236.24,-499.193,0,0
300782.8,239.244,-501.152,0,0
301043.125,242.189,-503.412,0,0
301303.45,245.338,-505.955,0,0
301563.775,248.449,-508.797,0,0
301824.1,251.563,-512.207,0,0
302084.425,254.637,-516.136,0,0
302344.75,257.503,-520.678,0,0
302605.075,259.837,-525.913,0,0
302865.4,261.689,-531.577,0,0
303125.725,262.729,-537.693,0,0
303386.05,262.896,-543.998,0,0
303646.375,262.174,-550.262,0,0
303906.7,260.656,-556.232,0,0
304167.025,258.533,-561.792,0,0
304427.35,255.971,-566.897,0,0
304687.675,253.065,-571.558,0,0
304948.0,249.958,-575.843,0,0
305208.325,246.753,-579.733,0,0
305468.65,243.412,-583.455,0,0
305728.975,239.856,-586.954,0,0
305989.3,236.043,-590.196,0,0
306249.625,232.015,-593.081,0,0
306509.95,227.842,-595.601,0,0
306770.275,223.613,-597.72,0,0
307030.6,219.383,-599.53,0,0
307290.925,215.179,-601.041,0,0
307551.25,210.985,-602.306,0,0
307811.575,206.784,-603.329,0,0
308071.9,202.594,-604.114,0,0
308332.225,198.412,-604.612,0,0
308592.55,194.245,-604.871,0,0
308852.875,190.125,-604.818,0,0
309113.2,186.096,-604.484,0,0
309373.525,182.18,-603.894,0,0
309633.85,178.516,-602.994,0,0
309894.175,175.093,-601.893,0,0
310154.5,171.944,-600.704,0,0
310414.825,169.038,-599.466,0,0
310675.15,166.304,-598.222,0,0
310935.475,163.702,-596.998,0,0
311195.8,161.225,-595.742,0,0
311456.125,158.873,-594.501,0,0
311716.45,156.603,-593.257,0,0
311976.775,154.432,-592.009,0,0
312237.1,152.32,-590.804,0,0
312497.425,150.241,-589.594,0,0
312757.75,148.219,-588.376,0,0
313018.075,146.193,-587.161,0,0
313278.4,144.188,-585.909,0,0
313538.725,142.169,-584.593,0,0
313799.05,140.161,-583.18,0,0
314059.375,138.2,-581.644,0,0
314319.7,136.338,-580.006,0,0
314580,134.596,-578.266,0,0
314840,133.025,-576.438,0,0
315101,131.596,-574.588,0,0
315361,130.383,-572.698,0,0
315621,129.303,-570.884,0,0
315882,128.337,-569.114,0,0
316142,127.5,-567.423,0,0
316402,126.757,-565.796,0,0
316663,126.1,-564.28,0,0
316923,125.469,-562.83,0,0
317183,124.872,-561.448,0,0
317444,124.28,-560.128,0,0
317704,123.733,-558.837,0,0
317964,123.211,-557.594,0,0
318225,122.727,-556.4,0,0
318485,122.237,-555.28,0,0
318745,121.745,-554.177,0,0
319006,121.274,-553.093,0,0
319266,120.83,-552.01,0,0
319526,120.447,-550.981,0,0
319787,120.053,-550.017,0,0
320047,119.705,-549.11,0,0
320307,119.328,-548.265,0,0
320567,118.918,-547.451,0,0
320828,118.486,-546.653,0,0
321088,118.019,-545.884,0,0
321348,117.56,-545.141,0,0
321609,117.085,-544.386,0,0
321869,116.598,-543.635,0,0
322129,116.13,-542.898,0,0
322390,115.653,-542.163,0,0
322650,115.166,-541.455,0,0
322910,114.697,-540.769,0,0
323171,114.198,-540.09,0,0
323431,113.681,-539.434,0,0
323691,113.157,-538.762,0,0
323952,112.593,-538.093,0,0
324212,112.035,-537.428,0,0
324472,111.447,-536.713,0,0
324733,110.883,-535.969,0,0
324993,110.347,-535.176,0,0
325253,109.861,-534.383,0,0
325514,109.458,-533.613,0,0
325774,109.068,-532.883,0,0
326034,108.729,-532.212,0,0
326295,108.38,-531.601,0,0
326555,108.021,-531.034,0,0
326815,107.673,-530.514,0,0
327076,107.271,-530.058,0,0
327336,106.81,-529.629,0,0
327596,106.294,-529.224,0,0
327857,105.744,-528.806,0,0
328117,105.157,-528.37,0,0
328377,104.529,-527.921,0,0
328638,103.895,-527.451,0,0
328898,103.228,-526.976,0,0
329158,102.562,-526.479,0,0
329419,101.899,-525.963,0,0
329679,101.236,-525.459,0,0
329939,100.556,-524.952,0,0
330200,99.8719,-524.436,0,0
330460,99.1463,-523.879,0,0
330720.15,98.4608,-523.317,0,0
330980.475,97.8062,-522.825,0,0
331240.8,97.0395,-522.299,0,0
331501.125,96.2509,-521.884,0,0
331761.45,95.4726,-521.373,0,0
332021.775,94.6203,-520.948,0,0
332282.1,93.7673,-520.391,0,0
332542.425,92.8001,-519.946,0,0
332802.75,91.9095,-519.301,0,0
333063.075,90.8799,-518.7,0,0
333323.4,89.8662,-518.051,0,0
333583.725,88.8342,-517.329,0,0
333844.05,87.8332,-516.54,0,0
334104.375,86.8107,-515.697,0,0
334364.7,85.7831,-514.846,0,0
334625.025,84.7924,-513.907,0,0
334885.35,83.8393,-512.948,0,0
335145.675,82.9002,-511.951,0,0
335406.0,81.9142,-510.978,0,0
335666.325,81.033,-509.977,0,0
335926.65,80.102,-508.906,0,0
336186.975,79.1736,-507.874,0,0
336447.3,78.2287,-506.724,0,0
336707.625,77.3242,-505.578,0,0
336967.95,76.4646,-504.343,0,0
337228.275,75.7433,-503.082,0,0
337488.6,74.9867,-501.784,0,0
337748.925,74.2251,-500.475,0,0
338009.25,73.5354,-499.194,0,0
338269.575,72.8557,-497.885,0,0
338529.9,72.2972,-496.579,0,0
338790.225,71.7143,-495.283,0,0
339050.55,71.1431,-493.886,0,0
339310.875,70.5821,-492.637,0,0
339571.2,70.0818,-491.256,0,0
339831.525,69.56,-489.979,0,0
340091.85,69.1105,-488.605,0,0
340352.175,68.6584,-487.239,0,0
340612.5,68.2676,-485.907,0,0
340872.825,67.8216,-484.45,0,0
341133.15,67.4611,-483.073,0,0
341393.475,67.1484,-481.65,0,0
341653.8,66.9239,-480.21,0,0
341914.125,66.6251,-478.825,0,0
342174.45,66.4981,-477.427,0,0
342434.775,66.3655,-475.989,0,0
342695.1,66.3205,-474.626,0,0
342955.425,66.2537,-473.228,0,0
343215.75,66.2408,-471.923,0,0
343476.075,66.3079,-470.585,0,0
343736.4,66.3253,-469.252,0,0
343996.725,66.4455,-467.973,0,0
344257.05,66.61,-466.774,0,0
344517.375,66.7912,-465.621,0,0
344777.7,66.9848,-464.531,0,0
345038.025,67.1565,-463.429,0,0
345298.35,67.3691,-462.401,0,0
345558.675,67.6097,-461.402,0,0
345819.0,67.7232,-460.513,0,0
346079.325,67.9144,-459.581,0,0
346339.65,68.0443,-458.757,0,0
346599.975,68.1432,-457.985,0,0
346860,68.191,-457.174,0,0
347121,68.2048,-456.423,0,0
347381,68.1949,-455.712,0,0
347641,68.0942,-454.932,0,0
347902,67.9594,-454.164,0,0
348162,67.8183,-453.372,0,0
348422,67.5532,-452.566,0,0
348683,67.3119,-451.626,0,0
348943,67.064,-450.695,0,0
349203,66.8462,-449.692,0,0
349464,66.6321,-448.667,0,0
349724,66.4813,-447.603,0,0
349984,66.3326,-446.486,0,0
350245,66.1803,-445.39,0,0
350505,66.0707,-444.287,0,0
350765,65.9166,-443.082,0,0
351025,65.8002,-441.895,0,0
351286,65.7997,-440.652,0,0
351546,65.8361,-439.363,0,0
351806,65.908,-438.032,0,0
352067,66.0608,-436.736,0,0
352327,66.3701,-435.436,0,0
352587,66.7186,-434.246,0,0
352848,67.0183,-432.986,0,0
353108,67.4705,-431.872,0,0
353368,67.8949,-430.766,0,0
353629,68.3877,-429.709,0,0
353889,68.9169,-428.717,0,0
354149,69.4121,-427.789,0,0
354410,69.9311,-426.938,0,0
354670,70.4599,-426.1,0,0
354930,70.9905,-425.323,0,0
355191,71.4498,-424.544,0,0
355451,72.0388,-423.884,0,0
355711,72.5569,-423.35,0,0
355972,73.0516,-422.87,0,0
356232,73.4856,-422.423,0,0
356492,73.7374,-422.045,0,0
356753,73.9326,-421.719,0,0
357013,74.1035,-421.295,0,0
357273,74.1363,-420.917,0,0
357534,74.0669,-420.47,0,0
357794,73.9845,-419.963,0,0
358054,73.8355,-419.369,0,0
358315,73.5963,-418.731,0,0
358575,73.4086,-418.041,0,0
358835,73.2041,-417.176,0,0
359096,73.0501,-416.295,0,0
359356,72.9108,-415.313,0,0
359616,72.8509,-414.314,0,0
359877,72.8674,-413.223,0,0
360137,72.9047,-412.111,0,0
360397,72.9987,-411.004,0,0
360658,73.2027,-409.864,0,0
360918,73.4102,-408.748,0,0
361178,73.7009,-407.621,0,0
361438,74.0388,-406.528,0,0
361699,74.4322,-405.45,0,0
361959,74.8686,-404.409,0,0
362219,75.3761,-403.367,0,0
362480,75.8803,-402.447,0,0
362740.1,76.4248,-401.464,0,0
363000.425,76.9949,-400.573,0,0
363260.75,77.4661,-399.709,0,0
363521.075,78.1093,-398.821,0,0
363781.4,78.6669,-397.939,0,0
364041.725,79.3037,-397.105,0,0
364302.05,79.9351,-396.283,0,0
364562.375,80.6147,-395.503,0,0
364822.7,81.3645,-394.741,0,0
365083.025,82.0822,-394.082,0,0
365343.35,82.8618,-393.422,0,0
365603.675,83.6822,-392.856,0,0
365864.0,84.4728,-392.388,0,0
366124.325,85.1703,-392.008,0,0
366384.65,85.8596,-391.688,0,0
366644.975,86.458,-391.359,0,0
366905.3,87.0112,-391.002,0,0
367165.625,87.566,-390.641,0,0
367425.95,88.114,-390.28,0,0
367686.275,88.6713,-389.94,0,0
367946.6,89.211,-389.64,0,0
368206.925,89.7471,-389.331,0,0
368467.25,90.2898,-389.046,0,0
368727.575,90.79,-388.837,0,0
368987.9,91.2872,-388.591,0,0
369248.225,91.7866,-388.426,0,0
369508.55,92.275,-388.282,0,0
369768.875,92.7575,-388.252,0,0
370029.2,93.1469,-388.199,0,0
370289.525,93.4846,-388.209,0,0
370549.85,93.6841,-388.246,0,0
370810.175,93.7993,-388.31,0,0
371070.5,93.8257,-388.316,0,0
371330.825,93.7608,-388.228,0,0
371591.15,93.6278,-388.109,0,0
371851.475,93.3983,-387.87,0,0
372111.8,93.1767,-387.489,0,0
372372.125,92.9874,-387.012,0,0
372632.45,92.8222,-386.513,0,0
372892.775,92.7202,-385.89,0,0
373153.1,92.6449,-385.254,0,0
373413.425,92.673,-384.532,0,0
373673.75,92.8005,-383.813,0,0
373934.075,92.9196,-383.09,0,0
374194.4,93.0916,-382.394,0,0
374454.725,93.3497,-381.7,0,0
374715.05,93.6488,-381.053,0,0
374975.375,93.9307,-380.451,0,0
375235.7,94.2538,-379.811,0,0
375496.025,94.5686,-379.238,0,0
375756.35,94.9143,-378.735,0,0
376016.675,95.2407,-378.236,0,0
376277.0,95.5728,-377.775,0,0
376537.325,95.8295,-377.307,0,0
376797.65,96.0447,-376.893,0,0
377057.975,96.1803,-376.414,0,0
377318.3,96.3141,-375.848,0,0
377578.625,96.4792,-375.287,0,0
377838.95,96.6317,-374.665,0,0
378099.275,96.8206,-373.99,0,0
378359.6,97.0523,-373.262,0,0
378619.925,97.3508,-372.561,0,0
378880,97.6971,-371.839,0,0
379141,98.0876,-371.111,0,0
379401,98.5313,-370.447,0,0
379661,98.9768,-369.762,0,0
379922,99.4346,-369.118,0,0
380182,99.9267,-368.526,0,0
380442,100.404,-367.953,0,0
380703,100.908,-367.381,0,0
380963,101.394,-366.837,0,0
381223,101.855,-366.311,0,0
381483,102.343,-365.783,0,0
381744,102.782,-365.246,0,0
382004,103.278,-364.668,0,0
382264,103.767,-364.113,0,0
382525,104.301,-363.587,0,0
382785,104.872,-363.027,0,0
383045,105.391,-362.522,0,0
383306,105.997,-362.01,0,0
383566,106.521,-361.51,0,0
383826,107.102,-361.022,0,0
384087,107.706,-360.523,0,0
384347,108.328,-360.069,0,0
384607,108.926,-359.622,0,0
384868,109.568,-359.237,0,0
385128,110.191,-358.881,0,0
385388,110.751,-358.583,0,0
385649,111.274,-358.243,0,0
385909,111.782,-357.834,0,0
386169,112.242,-357.472,0,0
386430,112.796,-357.041,0,0
386690,113.336,-356.61,0,0
386950,113.905,-356.207,0,0
387211,114.435,-355.804,0,0
387471,114.934,-355.387,0,0
387731,115.475,-354.95,0,0
387992,115.941,-354.46,0,0
388252,116.468,-353.897,0,0
388512,117.041,-353.268,0,0
388773,117.695,-352.619,0,0
389033,118.448,-351.962,0,0
389293,119.289,-351.319,0,0
389554,120.255,-350.73,0,0
389814,121.275,-350.241,0,0
390074,122.329,-349.783,0,0
390335,123.417,-349.471,0,0
390595,124.467,-349.22,0,0
390855,125.532,-349.045,0,0
391116,126.489,-348.915,0,0
391376,127.473,-348.78,0,0
391636,128.415,-348.732,0,0
391896,129.353,-348.644,0,0
392157,130.219,-348.573,0,0
392417,131.13,-348.511,0,0
392677,132.069,-348.471,0,0
392938,132.935,-348.445,0,0
393198,133.809,-348.432,0,0
393458,134.575,-348.434,0,0
393719,135.378,-348.393,0,0
393979,136.166,-348.309,0,0
394239,136.963,-348.179,0,0
394500,137.777,-348.009,0,0
394760.05,138.716,-347.79,0,0
395020.375,139.649,-347.568,0,0
395280.7,140.701,-347.3,0,0
395541.025,141.856,-347.1,0,0
395801.35,143.029,-346.905,0,0
396061.675,144.289,-346.7,0,0
396322.0,145.702,-346.591,0,0
396582.325,147.185,-346.508,0,0
396842.65,148.764,-346.534,0,0
397102.975,150.438,-346.669,0,0
397363.3,152.15,-346.921,0,0
397623.625,153.927,-347.343,0,0
397883.95,155.761,-347.817,0,0
398144.275,157.652,-348.528,0,0
398404.6,159.537,-349.374,0,0
398664.925,161.43,-350.459,0,0
398925.25,163.269,-351.667,0,0
399185.575,165.147,-353.114,0,0
399445.9,166.916,-354.775,0,0
399706.225,168.536,-356.724,0,0
399966.55,169.995,-358.849,0,0
400006.6,170.219,-359.167,0,0