File: Accelerated corrosion test data/2025-10-17_18-00-03/sample_2.csv
Frequency (Hz),Impedance (ohms),Phase (Radians),Temperature (C),Humidity (%)
10000.0,225.686,-11467.6,0,0
10260.325,220.312,-11179,0,0
10520.65,214.77,-10904.1,0,0
10780.975,209.861,-10643.1,0,0
11041.3,205.112,-10394.5,0,0
11301.625,200.834,-10156.3,0,0
11561.95,197.09,-9927.87,0,0
11822.275,196.641,-9718.56,0,0
12082.6,189.505,-9507.4,0,0
12342.925,184.631,-9309.74,0,0
12603.25,180.889,-9118.1,0,0
12863.575,177.572,-8933.12,0,0
13123.9,175.056,-8759.57,0,0
13384.225,170.791,-8587.97,0,0
13644.55,168.969,-8422.47,0,0
13904.875,184.502,-8270.06,0,0
14165.2,163.564,-8123.14,0,0
14425.525,159.317,-7972.23,0,0
14685.8,161.655,-7827.39,0,0
14946.175,157.291,-7697.24,0,0
15206.5,160.827,-7577.24,0,0
15466.825,157.927,-7440.34,0,0
15727.15,149.585,-7326.77,0,0
15987.5,146.522,-7204.85,0,0
16247.8,147.044,-7090.12,0,0
16508.125,141.472,-6979.55,0,0
16768.45,139.021,-6870.9,0,0
17028.775,137.551,-6766.37,0,0
17289.1,136.235,-6665.8,0,0
17549.425,133.232,-6566.03,0,0
17809.75,130.929,-6469.8,0,0
18070.075,129.193,-6377.22,0,0
18330.4,127.982,-6286.15,0,0
18590.725,126.771,-6197.31,0,0
18851.05,125.567,-6111.15,0,0
19111.375,126.942,-6028.97,0,0
19371.7,126.94,-5951.35,0,0
19632.025,121.537,-5873.04,0,0
19892.35,119.132,-5795.13,0,0
20152.675,117.548,-5718.9,0,0
20413.0,116.863,-5644.5,0,0
20673.3,115.979,-5571.58,0,0
20933.65,116.599,-5499.85,0,0
21193.975,121.816,-5432.26,0,0
21454.3,129.444,-5371.09,0,0
21714.625,125.758,-5314.67,0,0
21974.9,120.656,-5249.1,0,0
22235.275,117.371,-5194.75,0,0
22495.6,113.607,-5133.99,0,0
22755.925,110.504,-5072.96,0,0
23016.25,111.631,-5017.37,0,0
23276.6,111.435,-4962.85,0,0
23536.9,107.105,-4907.61,0,0
23797.225,106.136,-4853.21,0,0
24057.55,105.371,-4801.52,0,0
24317.875,101.605,-4750.98,0,0
24578.2,100.109,-4699.69,0,0
24838.525,98.7145,-4649.27,0,0
25098.85,98.0476,-4599.82,0,0
25359.175,97.1015,-4552.92,0,0
25619.5,96.3417,-4506.12,0,0
25879.8,94.973,-4459.88,0,0
26140.1,95.4584,-4415.56,0,0
26400.5,94.3976,-4371.68,0,0
26660.8,95.0675,-4329.39,0,0
26921.1,93.7221,-4287.38,0,0
27181.4,92.8677,-4247.75,0,0
27441.8,91.2332,-4206.86,0,0
27702.1,89.588,-4166.74,0,0
27962.4,89.2986,-4125.95,0,0
28222.7,89.0819,-4087.55,0,0
28483.1,88.2224,-4049.68,0,0
28743.4,87.9576,-4012.17,0,0
29003.7,89.7039,-3974.88,0,0
29264,89.5765,-3937.95,0,0
29524.4,92.8622,-3902.68,0,0
29784.7,95.841,-3872.86,0,0
30045,92.2285,-3843.55,0,0
30305.3,92.8987,-3809.16,0,0
30565.7,89.8519,-3780.9,0,0
30826,86.8384,-3748.12,0,0
31086.3,85.6839,-3716.27,0,0
31346.6,84.2723,-3684.65,0,0
31607,84.6232,-3654.15,0,0
31867.3,82.2486,-3624.33,0,0
32127.6,81.3426,-3593.57,0,0
32387.9,81.5927,-3563.14,0,0
32648.3,82.9248,-3535.75,0,0
32908.6,82.3784,-3509.24,0,0
33168.9,80.9583,-3481.86,0,0
33429.2,79.107,-3454.86,0,0
33689.6,78.5242,-3427.87,0,0
33949.9,77.9245,-3401.91,0,0
34210.2,76.3759,-3375.41,0,0
34470.5,75.213,-3349.26,0,0
34730.9,74.7961,-3323.67,0,0
34991.2,74.4535,-3298.39,0,0
35251.5,73.9044,-3273.75,0,0
35511.8,73.4868,-3249.23,0,0
35772.2,72.985,-3225.51,0,0
36032.5,72.3018,-3201.87,0,0
36292.8,71.6597,-3178.11,0,0
36553.1,71.0979,-3155.24,0,0
36813.5,71.016,-3132.54,0,0
37073.8,70.6722,-3110.13,0,0
37334.1,70.422,-3088.12,0,0
37594.4,69.8458,-3066.37,0,0
37854.8,69.658,-3045.03,0,0
38115.1,69.2576,-3024.31,0,0
38375.4,68.4298,-3003.32,0,0
38635.7,67.9661,-2982.61,0,0
38896.1,67.8741,-2962.03,0,0
39156.4,67.3088,-2942.13,0,0
39416.7,67.0955,-2922.28,0,0
39677,66.5017,-2902.78,0,0
39937.4,66.2276,-2883.45,0,0
40197.7,66.0232,-2864.15,0,0
40458,65.7069,-2845.44,0,0
40718.3,65.4232,-2826.37,0,0
40978.7,65.4213,-2808.57,0,0
41239,64.8988,-2790.21,0,0
41499.3,65.1648,-2772.33,0,0
41759.6,64.646,-2754.97,0,0
42020,64.527,-2737.22,0,0
42280.275,64.5758,-2720.52,0,0
42540.6,63.9202,-2703.35,0,0
42800.925,63.5161,-2686.63,0,0
43061.25,63.1702,-2670,0,0
43321.575,63.0635,-2653.38,0,0
43581.9,62.7119,-2637.23,0,0
43842.225,62.4945,-2621.1,0,0
44102.55,62.2856,-2605.02,0,0
44362.875,62.3541,-2589.4,0,0
44623.2,61.7994,-2574.24,0,0
44883.525,61.4474,-2558.58,0,0
45143.85,61.5543,-2543.13,0,0
45404.175,61.505,-2528.3,0,0
45664.5,61.0001,-2513.53,0,0
45924.825,61.2913,-2498.62,0,0
46185.15,61.4521,-2484.72,0,0
46445.475,60.5256,-2470.56,0,0
46705.8,60.1983,-2456.13,0,0
46966.125,60.3461,-2441.92,0,0
47226.45,60.2369,-2427.75,0,0
47486.775,60.6036,-2414.65,0,0
47747.1,59.8836,-2400.88,0,0
48007.425,60.0139,-2387.18,0,0
48267.75,60.624,-2373.52,0,0
48528.075,61.0537,-2361.55,0,0
48788.4,60.8077,-2349.2,0,0
49048.725,60.1763,-2337.04,0,0
49309.05,59.5296,-2324.43,0,0
49569.375,58.8302,-2311.88,0,0
49829.7,58.2339,-2299.2,0,0
50090.025,57.932,-2286.97,0,0
50350.35,57.3855,-2274.49,0,0
50610.675,57.169,-2262.07,0,0
50871.0,57.2278,-2250.17,0,0
51131.325,57.0705,-2238.39,0,0
51391.65,56.7294,-2226.86,0,0
51651.975,56.2085,-2215.29,0,0
51912.3,55.7061,-2203.74,0,0
52172.625,55.4226,-2191.87,0,0
52432.95,55.2404,-2180.47,0,0
52693.275,54.8863,-2169.16,0,0
52953.6,54.611,-2157.77,0,0
53213.925,54.5725,-2146.56,0,0
53474.25,54.3712,-2135.58,0,0
53734.575,54.1526,-2124.67,0,0
53994.9,53.9249,-2113.67,0,0
54255.225,53.8751,-2102.93,0,0
54515.55,53.8837,-2092.21,0,0
54775.875,53.8378,-2081.85,0,0
55036.2,53.6342,-2071.42,0,0
55296.525,53.6257,-2060.94,0,0
55556.85,53.645,-2050.63,0,0
55817.175,53.5099,-2040.57,0,0
56077.5,53.5239,-2030.47,0,0
56337.825,53.3786,-2020.55,0,0
56598.15,53.4524,-2010.68,0,0
56858.475,53.4499,-2000.82,0,0
57118.8,53.4898,-1991.19,0,0
57379.125,53.4871,-1981.5,0,0
57639.45,53.5378,-1971.82,0,0
57899.775,53.7724,-1962.59,0,0
58160.1,53.659,-1953.38,0,0
58420.4,53.616,-1944.06,0,0
58680.7,53.5951,-1934.69,0,0
58941.1,53.8335,-1925.47,0,0
59201.4,53.9159,-1916.28,0,0
59461.7,54.2587,-1907.27,0,0
59722,54.4527,-1898.2,0,0
59982.4,55.1418,-1889.33,0,0
60242.7,55.9076,-1881.08,0,0
60503,55.9452,-1873.13,0,0
60763.3,55.7774,-1864.64,0,0
61023.7,56.2551,-1856.07,0,0
61284,56.8297,-1847.69,0,0
61544.3,57.7344,-1839.81,0,0
61804.6,58.5805,-1832.6,0,0
62065,58.6501,-1826.18,0,0
62325.3,57.6936,-1818.83,0,0
62585.6,57.385,-1811.23,0,0
62845.9,57.2875,-1804.03,0,0
63106.3,56.1823,-1797.24,0,0
63366.6,55.2544,-1789.06,0,0
63626.9,54.9801,-1781.61,0,0
63887.2,54.1965,-1773.88,0,0
64147.6,53.838,-1766.2,0,0
64407.9,53.2587,-1758.66,0,0
64668.2,52.9022,-1751.37,0,0
64928.5,51.7278,-1744,0,0
65188.9,50.8735,-1735.89,0,0
65449.2,50.248,-1727.55,0,0
65709.5,50.3805,-1719.53,0,0
65969.8,50.5439,-1711.82,0,0
66230.2,50.5096,-1704.3,0,0
66490.5,50.6616,-1696.67,0,0
66750.8,50.7674,-1689.53,0,0
67011.1,50.644,-1681.98,0,0
67271.5,50.968,-1674.39,0,0
67531.8,51.565,-1667.07,0,0
67792.1,52.1546,-1659.96,0,0
68052.4,52.9535,-1653.4,0,0
68312.8,52.9737,-1647.11,0,0
68573.1,53.0334,-1640.13,0,0
68833.4,53.8114,-1633.54,0,0
69093.7,54.428,-1627.37,0,0
69354.1,54.6385,-1621.3,0,0
69614.4,55.2025,-1615.15,0,0
69874.7,55.5063,-1609.87,0,0
70135,55.607,-1604.42,0,0
70395.4,55.2018,-1599.39,0,0
70655.7,53.9619,-1593.99,0,0
70916,52.8734,-1587.73,0,0
71176.3,52.4217,-1581.63,0,0
71436.7,51.8197,-1575.71,0,0
71697,51.0519,-1569.87,0,0
71957.3,49.9001,-1564.02,0,0
72217.6,48.7117,-1557.75,0,0
72478,47.6467,-1551.23,0,0
72738.3,46.7578,-1544.65,0,0
72998.6,46.2106,-1537.71,0,0
73258.9,45.9439,-1531.19,0,0
73519.3,45.4359,-1524.83,0,0
73779.6,44.9143,-1518.18,0,0
74039.9,44.6569,-1511.4,0,0
74300.225,44.7763,-1504.76,0,0
74560.55,44.7586,-1498.39,0,0
74820.875,44.823,-1492.06,0,0
75081.2,44.9734,-1485.68,0,0
75341.525,45.2031,-1479.42,0,0
75601.85,45.449,-1473.24,0,0
75862.175,45.7525,-1467.14,0,0
76122.5,46.2425,-1461.07,0,0
76382.825,46.652,-1455.29,0,0
76643.15,47.1053,-1449.42,0,0
76903.475,47.5352,-1443.71,0,0
77163.8,48.0185,-1437.91,0,0
77424.125,48.6809,-1432.25,0,0
77684.45,49.4013,-1426.83,0,0
77944.775,50.161,-1421.54,0,0
78205.1,50.9227,-1416.45,0,0
78465.425,51.751,-1411.59,0,0
78725.75,52.2884,-1407.02,0,0
78986.075,52.7759,-1402.48,0,0
79246.4,53,-1398.12,0,0
79506.725,53.1579,-1393.81,0,0
79767.05,53.0568,-1389.76,0,0
80027.375,52.435,-1385.56,0,0
80287.7,51.5645,-1380.93,0,0
80548.025,50.9857,-1376.06,0,0
80808.35,50.3077,-1371.04,0,0
81068.675,49.7897,-1366.05,0,0
81329.0,49.3806,-1360.97,0,0
81589.325,48.9836,-1355.88,0,0
81849.65,48.6645,-1350.75,0,0
82109.975,48.3022,-1345.64,0,0
82370.3,48.1081,-1340.46,0,0
82630.625,47.8709,-1335.28,0,0
82890.95,47.8522,-1330.08,0,0
83151.275,47.8995,-1324.91,0,0
83411.6,47.9816,-1319.84,0,0
83671.925,48.1429,-1314.95,0,0
83932.25,48.3148,-1310.01,0,0
84192.575,48.5731,-1305.22,0,0
84452.9,48.7354,-1300.59,0,0
84713.225,48.7979,-1295.92,0,0
84973.55,48.8919,-1291.13,0,0
85233.875,48.9501,-1286.45,0,0
85494.2,49.1456,-1281.62,0,0
85754.525,49.6011,-1277.03,0,0
86014.85,49.8621,-1272.68,0,0
86275.175,50.0221,-1268.22,0,0
86535.5,50.2096,-1263.93,0,0
86795.825,50.2417,-1259.55,0,0
87056.15,50.3707,-1255.02,0,0
87316.475,50.7061,-1250.72,0,0
87576.8,50.8504,-1246.64,0,0
87837.125,50.7876,-1242.45,0,0
88097.45,50.7631,-1238.16,0,0
88357.775,50.8962,-1233.88,0,0
88618.1,50.9745,-1229.84,0,0
88878.425,50.6411,-1225.56,0,0
89138.75,50.6726,-1220.92,0,0
89399.075,51.0224,-1216.61,0,0
89659.4,51.2079,-1212.37,0,0
89919.725,51.6282,-1208.18,0,0
90180,51.9077,-1204.57,0,0
90440.4,51.4771,-1200.67,0,0
90700.7,51.0977,-1196.32,0,0
90961,51.1862,-1191.44,0,0
91221.3,51.9288,-1187.24,0,0
91481.7,52.285,-1183.38,0,0
91742,52.4033,-1179.34,0,0
92002.3,52.632,-1175.17,0,0
92262.6,53.1841,-1170.96,0,0
92523,53.8876,-1167.18,0,0
92783.3,54.2865,-1163.61,0,0
93043.6,54.6575,-1159.93,0,0
93303.9,54.9914,-1156.44,0,0
93564.3,55.3211,-1152.77,0,0
93824.6,55.9154,-1149.43,0,0
94084.9,55.989,-1146.56,0,0
94345.2,55.5345,-1143.4,0,0
94605.6,55.159,-1139.66,0,0
94865.9,55.1813,-1136.1,0,0
95126.2,54.8719,-1132.77,0,0
95386.5,54.1272,-1129.07,0,0
95646.9,53.547,-1124.56,0,0
95907.2,54.0187,-1119.95,0,0
96167.5,54.8097,-1115.91,0,0
96427.8,55.6965,-1112.35,0,0
96688.2,56.3056,-1109.03,0,0
96948.5,56.8944,-1105.79,0,0
97208.8,57.5874,-1102.75,0,0
97469.1,58.0234,-1100.28,0,0
97729.5,57.8334,-1097.63,0,0
97989.8,57.5301,-1094.73,0,0
98250.1,57.3448,-1091.63,0,0
98510.4,57.3327,-1088.77,0,0
98770.8,57.0974,-1086.16,0,0
99031.1,56.4894,-1083.49,0,0
99291.4,55.6987,-1080.72,0,0
99551.7,54.5211,-1077.76,0,0
99812.1,53.3043,-1074.08,0,0
100072,52.6904,-1070.22,0,0
100333,52.4364,-1066.51,0,0
100593,52.221,-1063.39,0,0
100853,51.434,-1060.36,0,0
101114,50.4691,-1056.92,0,0
101374,49.3747,-1053.43,0,0
101634,48.143,-1049.4,0,0
101895,47.407,-1044.99,0,0
102155,47.1017,-1040.74,0,0
102415,46.8184,-1036.68,0,0
102676,46.5466,-1032.79,0,0
102936,45.9976,-1028.64,0,0
103196,45.6655,-1024.33,0,0
103457,45.5826,-1019.84,0,0
103717,45.8231,-1015.46,0,0
103977,46.1371,-1011.14,0,0
104238,46.6168,-1006.84,0,0
104498,47.4325,-1002.73,0,0
104758,48.2155,-998.832,0,0
105019,48.9544,-995.124,0,0
105279,49.7504,-991.539,0,0
105539,50.537,-987.857,0,0
105800,51.6114,-984.294,0,0
106060,52.6824,-981.039,0,0
106320.175,53.7975,-977.987,0,0
106580.5,54.8513,-975.163,0,0
106840.825,55.7507,-972.633,0,0
107101.15,56.5136,-970.082,0,0
107361.475,57.2756,-967.858,0,0
107621.8,57.5326,-965.885,0,0
107882.125,57.5517,-963.619,0,0
108142.45,57.3458,-961.489,0,0
108402.775,56.8547,-959.018,0,0
108663.1,56.5276,-956.424,0,0
108923.425,56.0213,-953.928,0,0
109183.75,55.3046,-951.214,0,0
109444.075,54.6269,-948.204,0,0
109704.4,54.066,-945.186,0,0
109964.725,53.4327,-942.068,0,0
110225.05,52.6581,-938.818,0,0
110485.375,52.1352,-935.198,0,0
110745.7,51.7573,-931.682,0,0
111006.025,51.4814,-928.088,0,0
111266.35,51.2158,-924.469,0,0
111526.675,51.157,-920.818,0,0
111787.0,51.1941,-917.265,0,0
112047.325,51.4412,-913.663,0,0
112307.65,51.5309,-910.324,0,0
112567.975,51.5582,-906.841,0,0
112828.3,51.6744,-903.306,0,0
113088.625,51.8516,-899.838,0,0
113348.95,52.1437,-896.245,0,0
113609.275,52.6276,-892.861,0,0
113869.6,52.9176,-889.504,0,0
114129.925,53.2354,-886.143,0,0
114390.25,53.6154,-882.695,0,0
114650.575,54.096,-879.35,0,0
114910.9,54.5613,-875.92,0,0
115171.225,55.225,-872.589,0,0
115431.55,55.8878,-869.347,0,0
115691.875,56.5151,-866.288,0,0
115952.2,57.0674,-863.117,0,0
116212.525,57.7169,-859.92,0,0
116472.85,58.4645,-856.825,0,0
116733.175,59.2018,-853.802,0,0
116993.5,59.9796,-850.801,0,0
117253.825,60.7036,-847.882,0,0
117514.15,61.5377,-844.939,0,0
117774.475,62.4421,-842.095,0,0
118034.8,63.3786,-839.478,0,0
118295.125,64.1732,-836.929,0,0
118555.45,64.8697,-834.352,0,0
118815.775,65.7208,-831.775,0,0
119076.1,66.5857,-829.423,0,0
119336.425,67.1772,-827.196,0,0
119596.75,67.8537,-824.794,0,0
119857.075,68.5701,-822.647,0,0
120117.4,69.0807,-820.583,0,0
120377.725,69.4223,-818.495,0,0
120638.05,69.7744,-816.514,0,0
120898.375,69.8294,-814.555,0,0
121158.7,69.7235,-812.388,0,0
121419.025,69.7119,-810.083,0,0
121679.35,69.647,-807.822,0,0
121939.675,69.4991,-805.467,0,0
122200.0,69.3334,-803.042,0,0
122460,69.107,-800.508,0,0
122721,68.9826,-797.844,0,0
122981,68.9314,-795.195,0,0
123241,68.8767,-792.539,0,0
123502,68.8907,-789.917,0,0
123762,68.7793,-787.343,0,0
124022,68.6632,-784.594,0,0
124283,68.5775,-781.838,0,0
124543,68.4909,-779.05,0,0
124803,68.4234,-776.188,0,0
125064,68.3375,-773.252,0,0
125324,68.4221,-770.311,0,0
125584,68.4624,-767.315,0,0
125845,68.5736,-764.342,0,0
126105,68.7404,-761.278,0,0
126365,68.9641,-758.252,0,0
126626,69.2509,-755.224,0,0
126886,69.5087,-752.181,0,0
127146,69.8833,-749.099,0,0
127406,70.3687,-745.904,0,0
127667,71.0535,-742.971,0,0
127927,71.6604,-740.06,0,0
128187,72.3457,-737.281,0,0
128448,72.9922,-734.486,0,0
128708,73.6773,-731.776,0,0
128968,74.357,-729.082,0,0
129229,75.0458,-726.485,0,0
129489,75.6349,-724.044,0,0
129749,76.1247,-721.52,0,0
130010,76.6021,-718.866,0,0
130270,77.1768,-716.273,0,0
130530,77.7888,-713.699,0,0
130791,78.4362,-711.211,0,0
131051,79.0686,-708.837,0,0
131311,79.5521,-706.61,0,0
131572,79.8814,-704.299,0,0
131832,80.19,-701.938,0,0
132092,80.4364,-699.594,0,0
132353,80.5365,-697.187,0,0
132613,80.5932,-694.605,0,0
132873,80.7647,-691.89,0,0
133134,81.0308,-689.182,0,0
133394,81.2939,-686.495,0,0
133654,81.5789,-683.8,0,0
133915,81.9088,-681.109,0,0
134175,82.1388,-678.521,0,0
134435,82.2632,-675.791,0,0
134696,82.4144,-672.972,0,0
134956,82.6042,-670.051,0,0
135216,82.8408,-667.061,0,0
135477,83.1487,-664.023,0,0
135737,83.5765,-660.932,0,0
135997,84.0716,-657.917,0,0
136258,84.5955,-654.904,0,0
136518,85.2105,-651.96,0,0
136778,85.704,-649.057,0,0
137039,86.1695,-646.059,0,0
137299,86.7062,-642.956,0,0
137559,87.363,-639.87,0,0
137819,88.0774,-636.886,0,0
138080,88.7727,-633.95,0,0
138340.125,89.3675,-631.05,0,0
138600.45,89.8778,-628.05,0,0
138860.775,90.44,-624.927,0,0
139121.1,91.0664,-621.772,0,0
139381.425,91.7393,-618.621,0,0
139641.75,92.4111,-615.484,0,0
139902.075,92.9343,-612.264,0,0
140162.4,93.5489,-608.795,0,0
140422.725,94.2463,-605.258,0,0
140683.05,95.1005,-601.604,0,0
140943.375,96.0811,-597.897,0,0
141203.7,97.2244,-594.074,0,0
141464.025,98.6412,-590.238,0,0
141724.35,100.242,-586.555,0,0
141984.675,101.925,-582.958,0,0
142245.0,103.691,-579.403,0,0
142505.325,105.612,-575.897,0,0
142765.65,107.683,-572.53,0,0
143025.975,109.749,-569.452,0,0
143286.3,111.651,-566.445,0,0
143546.625,113.508,-563.357,0,0
143806.95,115.447,-560.168,0,0
144067.275,117.491,-557.033,0,0
144327.6,119.569,-553.94,0,0
144587.925,121.661,-550.906,0,0
144848.25,123.741,-547.767,0,0
145108.575,125.985,-544.601,0,0
145368.9,128.343,-541.476,0,0
145629.225,130.834,-538.404,0,0
145889.55,133.394,-535.484,0,0
146149.875,135.926,-532.59,0,0
146410.2,138.491,-529.705,0,0
146670.525,141.115,-526.784,0,0
146930.85,143.802,-523.825,0,0
147191.175,146.614,-520.833,0,0
147451.5,149.644,-517.809,0,0
147711.825,152.879,-514.875,0,0
147972.15,156.223,-512.06,0,0
148232.475,159.659,-509.23,0,0
148492.8,163.344,-506.421,0,0
148753.125,167.205,-503.644,0,0
149013.45,171.479,-500.794,0,0
149273.775,176.349,-498.256,0,0
149534.1,181.539,-496.337,0,0
149794.425,186.784,-494.897,0,0
150054.75,192.066,-493.843,0,0
150315.075,197.556,-493.14,0,0
150575.4,203.305,-493.046,0,0
150835.725,208.944,-493.936,0,0
151096.05,213.925,-495.471,0,0
151356.375,218.447,-497.152,0,0
151616.7,222.838,-499.138,0,0
151877.025,226.892,-501.785,0,0
152137.35,230.116,-504.78,0,0
152397.675,232.666,-507.756,0,0
152658.0,234.668,-510.573,0,0
152918.325,236.365,-513.229,0,0
153178.65,237.834,-515.802,0,0
153438.975,239.065,-518.494,0,0
153699.3,239.766,-521.291,0,0
153959.625,239.853,-523.981,0,0
154219.95,239.402,-526.191,0,0
154480,238.715,-527.852,0,0
154741,237.982,-529.18,0,0
155001,237.32,-530.159,0,0
155261,236.636,-530.879,0,0
155522,236.234,-531.382,0,0
155782,235.853,-532.272,0,0
156042,235.06,-533.06,0,0
156303,233.968,-533.487,0,0
156563,232.998,-533.717,0,0
156823,231.926,-533.846,0,0
157084,230.596,-533.821,0,0
157344,229.049,-533.246,0,0
157604,227.606,-531.898,0,0
157864,226.94,-530.317,0,0
158125,226.599,-528.869,0,0
158385,226.382,-527.447,0,0
158645,226.428,-526.019,0,0
158906,226.805,-524.922,0,0
159166,227.131,-524.078,0,0
159426,227.13,-523.373,0,0
159687,227.179,-522.448,0,0
159947,227.27,-521.707,0,0
160207,227.134,-520.844,0,0
160468,227.04,-519.956,0,0
160728,226.734,-519.07,0,0
160988,226.437,-517.49,0,0
161249,226.636,-515.564,0,0
161509,227.637,-513.989,0,0
161769,228.89,-512.686,0,0
162030,230.655,-511.828,0,0
162290,232.557,-512.065,0,0
162550,233.717,-513.34,0,0
162811,234.128,-514.949,0,0
163071,233.62,-516.745,0,0
163331,231.942,-518.12,0,0
163592,229.925,-518.891,0,0
163852,227.945,-519.212,0,0
164112,225.563,-519.382,0,0
164373,222.737,-519.019,0,0
164633,219.901,-518.09,0,0
164893,217.131,-516.744,0,0
165154,214.403,-515.179,0,0
165414,211.533,-513.297,0,0
165674,208.434,-510.935,0,0
165935,205.603,-507.756,0,0
166195,203.444,-504.371,0,0
166455,201.504,-500.98,0,0
166716,199.471,-497.446,0,0
166976,197.723,-493.388,0,0
167236,196.528,-489.302,0,0
167497,195.389,-485.187,0,0
167757,194.379,-481.107,0,0
168017,193.56,-476.82,0,0
168277,192.936,-472.401,0,0
168538,192.61,-467.782,0,0
168798,192.73,-463.301,0,0
169058,193.003,-459.061,0,0
169319,193.164,-454.96,0,0
169579,193.142,-450.608,0,0
169839,193.523,-445.848,0,0
170100,194.358,-441.088,0,0
170360.075,195.495,-436.808,0,0
170620.4,196.348,-432.838,0,0
170880.725,196.866,-428.709,0,0
171141.05,197.483,-423.942,0,0
171401.375,198.661,-419.045,0,0
171661.7,200.126,-414.291,0,0
171922.025,201.79,-409.685,0,0
172182.35,203.573,-405.172,0,0
172442.675,205.202,-400.611,0,0
172703.0,207.089,-395.842,0,0
172963.325,209.35,-391.185,0,0
173223.65,211.635,-386.716,0,0
173483.975,213.824,-382.173,0,0
173744.3,216.106,-377.453,0,0
174004.625,218.786,-372.539,0,0
174264.95,221.651,-367.653,0,0
174525.275,224.768,-362.625,0,0
174785.6,228.544,-357.677,0,0
175045.925,232.604,-353.071,0,0
175306.25,236.856,-348.686,0,0
175566.575,241.25,-344.54,0,0
175826.9,245.967,-340.535,0,0
176087.225,250.839,-336.915,0,0
176347.55,255.837,-333.682,0,0
176607.875,260.806,-330.757,0,0
176868.2,265.665,-327.992,0,0
177128.525,270.508,-325.217,0,0
177388.85,275.761,-322.533,0,0
177649.175,281.305,-320.4,0,0
177909.5,286.865,-318.778,0,0
178169.825,292.244,-317.796,0,0
178430.15,297.207,-317.209,0,0
178690.475,301.899,-316.771,0,0
178950.8,306.387,-316.683,0,0
179211.125,310.527,-316.921,0,0
179471.45,314.259,-317.598,0,0
179731.775,316.82,-318.721,0,0
179992.1,318.103,-319.215,0,0
180252.425,320.367,-317.503,0,0
180512.75,321.659,-316.905,0,0
180773.075,322.528,-315.721,0,0
181033.4,323.307,-313.811,0,0
181293.725,323.851,-311.254,0,0
181554.05,324.653,-307.526,0,0
181814.375,326.397,-303.244,0,0
182074.7,328.964,-298.755,0,0
182335.025,332.321,-294.627,0,0
182595.35,335.746,-290.916,0,0
182855.675,338.863,-287.282,0,0
183116.0,341.963,-283.103,0,0
183376.325,345.587,-278.513,0,0
183636.65,349.76,-273.755,0,0
183896.975,354.317,-269.131,0,0
184157.3,359.216,-264.438,0,0
184417.625,364.464,-259.661,0,0
184677.95,370.325,-254.815,0,0
184938.275,377.145,-250.279,0,0
185198.6,384.172,-246.486,0,0
185458.925,391.265,-243.097,0,0
185719.25,398.412,-239.938,0,0
185979.575,405.759,-237.004,0,0
186239.9,413.184,-234.382,0,0
186500,420.694,-232.099,0,0
186761,428.063,-230.203,0,0
187021,434.985,-228.003,0,0
187281,442.334,-225.203,0,0
187542,450.633,-222.621,0,0
187802,459.156,-220.669,0,0
188062,467.857,-219.181,0,0
188322,476.518,-218.131,0,0
188583,485.307,-217.454,0,0
188843,493.884,-217.314,0,0
189103,501.763,-217.549,0,0
189364,509.105,-217.138,0,0
189624,516.611,-216.2,0,0
189884,524.415,-214.893,0,0
190145,532.943,-213.205,0,0
190405,542.255,-211.787,0,0
190665,551.803,-210.813,0,0
190926,561.445,-209.85,0,0
191186,571.516,-208.594,0,0
191446,582.607,-207.457,0,0
191707,594.338,-207.072,0,0
191967,606.25,-206.997,0,0
192227,618.867,-207.153,0,0
192488,632.233,-207.9,0,0
192748,646.233,-209.384,0,0
193008,660.83,-211.733,0,0
193269,676.044,-215.07,0,0
193529,691.615,-219.854,0,0
193789,707.218,-225.931,0,0
194050,722.715,-233.459,0,0
194310,737.528,-242.447,0,0
194570,751.667,-252.41,0,0
194831,764.906,-263.188,0,0
195091,777.472,-274.631,0,0
195351,789.27,-286.869,0,0
195612,799.966,-299.653,0,0
195872,809.753,-312.532,0,0
196132,818.793,-325.351,0,0
196393,827.374,-338.17,0,0
196653,835.706,-350.98,0,0
196913,843.866,-364.08,0,0
197174,851.455,-377.408,0,0
197434,858.87,-390.59,0,0
197694,866.62,-404.051,0,0
197955,874.63,-418.491,0,0
198215,882.248,-434.228,0,0
198475,888.838,-451.242,0,0
198735,893.796,-468.999,0,0
198996,897.374,-486.663,0,0
199256,899.9,-504.143,0,0
199516,901.39,-521.374,0,0
199777,902.408,-538.105,0,0
200037,903.323,-554.707,0,0
200297,903.755,-572.033,0,0
200558,903.305,-589.644,0,0
200818,901.856,-607.323,0,0
201078,899.655,-625.064,0,0
201339,896.094,-643.29,0,0
201599,890.794,-661.172,0,0
201859,884.034,-677.762,0,0
202120,877.136,-692.822,0,0
202380.025,870.554,-707.532,0,0
202640.35,863.487,-722.648,0,0
202900.675,855.273,-737.612,0,0
203161.0,845.807,-751.987,0,0
203421.325,835.322,-765.049,0,0
203681.65,824.572,-776.611,0,0
203941.975,814.138,-786.955,0,0
204202.3,804.417,-796.948,0,0
204462.625,794.587,-806.979,0,0
204722.95,784.654,-816.958,0,0
204983.275,774.231,-826.804,0,0
205243.6,763.133,-836.987,0,0
205503.925,750.436,-845.902,0,0
205764.25,736.971,-853.507,0,0
206024.575,723.795,-859.281,0,0
206284.9,711.283,-863.835,0,0
206545.225,699.226,-867.847,0,0
206805.55,687.41,-871.251,0,0
207065.875,675.885,-874.042,0,0
207326.2,664.954,-875.961,0,0
207586.525,654.511,-877.287,0,0
207846.85,644.882,-878.247,0,0
208107.175,635.985,-878.941,0,0
208367.5,627.751,-879.794,0,0
208627.825,620.208,-880.605,0,0
208888.15,613.2,-881.558,0,0
209148.475,606.904,-883.178,0,0
209408.8,600.504,-885.812,0,0
209669.125,593.705,-889.045,0,0
209929.45,585.804,-892.82,0,0
210189.775,576.913,-895.837,0,0
210450.1,567.85,-898.28,0,0
210710.425,558.846,-900.205,0,0
210970.75,549.361,-901.831,0,0
211231.075,539.699,-903.052,0,0
211491.4,529.82,-903.447,0,0
211751.725,519.942,-903.163,0,0
212012.05,510.237,-901.823,0,0
212272.375,501.231,-899.815,0,0
212532.7,493.118,-897.544,0,0
212793.025,485.431,-895.325,0,0
213053.35,477.976,-893.084,0,0
213313.675,470.698,-890.661,0,0
213574.0,463.72,-888.028,0,0
213834.325,457.043,-885.177,0,0
214094.65,450.696,-882.272,0,0
214354.975,444.694,-879.257,0,0
214615.3,438.971,-876.216,0,0
214875.625,433.666,-872.981,0,0
215135.95,428.455,-870.004,0,0
215396.275,423.39,-867.117,0,0
215656.6,418.407,-864.024,0,0
215916.925,413.681,-860.775,0,0
216177.25,409.351,-857.337,0,0
216437.575,405.145,-854.105,0,0
216697.9,401.199,-850.797,0,0
216958.225,397.449,-847.371,0,0
217218.55,394.043,-843.958,0,0
217478.875,390.955,-840.614,0,0
217739.2,388.108,-837.438,0,0
217999.525,385.383,-834.508,0,0
218259.85,382.664,-831.579,0,0
218520,379.964,-828.625,0,0
218780,377.506,-825.651,0,0
219041,375.374,-822.634,0,0
219301,373.308,-819.702,0,0
219561,371.524,-816.808,0,0
219822,369.993,-814.122,0,0
220082,368.761,-811.699,0,0
220342,367.253,-809.426,0,0
220603,365.817,-807.161,0,0
220863,364.406,-804.912,0,0
221123,363.28,-802.643,0,0
221384,362.334,-800.485,0,0
221644,361.422,-798.443,0,0
221904,360.72,-796.551,0,0
222165,360.111,-794.724,0,0
222425,359.703,-792.993,0,0
222685,359.455,-791.621,0,0
222946,359.286,-790.537,0,0
223206,359.13,-789.854,0,0
223466,358.655,-789.415,0,0
223727,357.991,-789.029,0,0
223987,357.056,-788.581,0,0
224247,356.167,-787.947,0,0
224508,355.4,-787.411,0,0
224768,354.685,-787.053,0,0
225028,353.678,-786.804,0,0
225289,352.605,-786.58,0,0
225549,351.535,-786.02,0,0
225809,350.591,-785.32,0,0
226070,349.888,-784.727,0,0
226330,349.213,-784.246,0,0
226590,348.646,-783.878,0,0
226851,348.201,-783.427,0,0
227111,347.992,-783.145,0,0
227371,347.948,-783.176,0,0
227632,347.894,-783.471,0,0
227892,347.898,-784.001,0,0
228152,347.802,-784.817,0,0
228413,347.645,-786.001,0,0
228673,347.325,-787.422,0,0
228933,346.657,-789.153,0,0
229193,345.785,-790.967,0,0
229454,344.474,-793.056,0,0
229714,342.951,-794.874,0,0
229974,341.148,-796.968,0,0
230235,339.005,-798.822,0,0
230495,336.637,-800.688,0,0
230755,334.096,-802.348,0,0
231016,331.299,-803.964,0,0
231276,328.316,-805.36,0,0
231536,325.229,-806.503,0,0
231797,322.135,-807.554,0,0
232057,319.074,-808.472,0,0
232317,315.86,-809.332,0,0
232578,312.575,-810.158,0,0
232838,309.177,-810.751,0,0
233098,305.792,-811.19,0,0
233359,302.354,-811.568,0,0
233619,298.874,-811.772,0,0
233879,295.433,-811.869,0,0
234140,291.935,-811.9,0,0
234400,288.351,-811.653,0,0
234660.3,284.854,-811.358,0,0
234920.625,281.523,-810.988,0,0
235180.95,278.12,-810.482,0,0
235441.275,274.859,-809.922,0,0
235701.6,271.637,-809.327,0,0
235961.925,268.379,-808.746,0,0
236222.25,265.128,-808.146,0,0
236482.575,261.857,-807.471,0,0
236742.9,258.535,-806.747,0,0
237003.225,255.198,-805.955,0,0
237263.55,251.796,-805.061,0,0
237523.875,248.427,-804.031,0,0
237784.2,245.004,-802.865,0,0
238044.525,241.658,-801.53,0,0
238304.85,238.385,-800.039,0,0
238565.175,235.258,-798.562,0,0
238825.5,232.165,-796.985,0,0
239085.825,229.199,-795.35,0,0
239346.15,226.178,-793.665,0,0
239606.475,223.131,-791.849,0,0
239866.8,220.345,-790.05,0,0
240127.125,217.589,-788.038,0,0
240387.45,214.992,-786.021,0,0
240647.775,212.415,-784.024,0,0
240908.1,210.113,-782.004,0,0
241168.425,207.805,-779.947,0,0
241428.75,205.601,-777.984,0,0
241689.075,203.351,-776.054,0,0
241949.4,201.189,-774.072,0,0
242209.725,199.034,-771.978,0,0
242470.05,197.093,-769.921,0,0
242730.375,195.235,-767.854,0,0
242990.7,193.515,-765.864,0,0
243251.025,191.885,-763.939,0,0
243511.35,190.337,-762.152,0,0
243771.675,188.737,-760.517,0,0
244032.0,187.146,-758.87,0,0
244292.325,185.529,-757.347,0,0
244552.65,183.895,-755.789,0,0
244812.975,182.33,-754.367,0,0
245073.3,180.468,-752.977,0,0
245333.625,178.937,-751.584,0,0
245593.95,177.12,-750.314,0,0
245854.275,175.323,-749.133,0,0
246114.6,173.405,-748.081,0,0
246374.925,171.269,-747.028,0,0
246635.25,168.858,-745.989,0,0
246895.575,166.146,-744.699,0,0
247155.9,163.41,-743.166,0,0
247416.225,160.653,-741.441,0,0
247676.55,157.864,-739.408,0,0
247936.875,155.136,-737.209,0,0
248197.2,152.5,-734.858,0,0
248457.525,150.009,-732.394,0,0
248717.85,147.592,-729.829,0,0
248978.175,145.241,-727.193,0,0
249238.5,142.963,-724.48,0,0
249498.825,140.786,-721.629,0,0
249759.15,138.655,-718.717,0,0
250019.475,136.62,-715.689,0,0
250279.8,134.71,-712.665,0,0
250540,132.851,-709.432,0,0
250800,131.158,-706.176,0,0
251061,129.522,-702.78,0,0
251321,128.049,-699.351,0,0
251581,126.785,-695.786,0,0
251842,125.688,-692.285,0,0
252102,124.818,-688.778,0,0
252362,124.102,-685.339,0,0
252623,123.528,-682,0,0
252883,123.035,-678.711,0,0
253143,122.6,-675.533,0,0
253404,122.202,-672.367,0,0
253664,121.844,-669.242,0,0
253924,121.542,-666.131,0,0
254185,121.318,-663.05,0,0
254445,121.096,-659.999,0,0
254705,120.964,-656.952,0,0
254966,120.848,-653.85,0,0
255226,120.809,-650.622,0,0
255486,120.828,-647.46,0,0
255747,121.069,-644.235,0,0
256007,121.416,-641.018,0,0
256267,121.967,-637.84,0,0
256528,122.637,-634.744,0,0
256788,123.425,-631.698,0,0
257048,124.363,-628.783,0,0
257309,125.39,-625.999,0,0
257569,126.501,-623.346,0,0
257829,127.626,-620.823,0,0
258090,128.715,-618.377,0,0
258350,129.893,-615.961,0,0
258610,131.084,-613.602,0,0
258871,132.329,-611.328,0,0
259131,133.596,-609.078,0,0
259391,134.898,-606.871,0,0
259651,136.318,-604.773,0,0
259912,137.794,-602.643,0,0
260172,139.406,-600.664,0,0
260432,141.045,-598.822,0,0
260693,142.737,-597.049,0,0
260953,144.479,-595.415,0,0
261213,146.22,-593.885,0,0
261474,147.994,-592.501,0,0
261734,149.786,-591.237,0,0
261994,151.565,-590.072,0,0
262255,153.297,-588.995,0,0
262515,155.035,-587.992,0,0
262775,156.797,-587.066,0,0
263036,158.571,-586.242,0,0
263296,160.377,-585.557,0,0
263556,162.184,-585.02,0,0
263817,163.89,-584.623,0,0
264077,165.54,-584.339,0,0
264337,167.088,-584.178,0,0
264598,168.545,-584.086,0,0
264858,169.948,-584.051,0,0
265118,171.261,-584.086,0,0
265379,172.513,-584.129,0,0
265639,173.642,-584.304,0,0
265899,174.678,-584.417,0,0
266160,175.627,-584.547,0,0
266420,176.543,-584.64,0,0
266680.25,177.469,-584.789,0,0
266940.575,178.368,-584.98,0,0
267200.9,179.19,-585.216,0,0
267461.225,179.971,-585.523,0,0
267721.55,180.654,-585.857,0,0
267981.875,181.25,-586.252,0,0
268242.2,181.702,-586.656,0,0
268502.525,181.999,-587.022,0,0
268762.85,182.204,-587.371,0,0
269023.175,182.277,-587.603,0,0
269283.5,182.251,-587.74,0,0
269543.825,182.188,-587.726,0,0
269804.15,182.114,-587.588,0,0
270064.475,182.087,-587.247,0,0
270324.8,182.081,-586.852,0,0
270585.125,182.137,-586.311,0,0
270845.45,182.293,-585.695,0,0
271105.775,182.623,-584.942,0,0
271366.1,183.07,-584.22,0,0
271626.425,183.663,-583.471,0,0
271886.75,184.364,-582.769,0,0
272147.075,185.153,-582.03,0,0
272407.4,186.07,-581.272,0,0
272667.725,187.201,-580.531,0,0
272928.05,188.5,-579.864,0,0
273188.375,190.014,-579.302,0,0
273448.7,191.692,-578.854,0,0
273709.025,193.549,-578.618,0,0
273969.35,195.492,-578.583,0,0
274229.675,197.575,-578.726,0,0
274490.0,199.835,-579.106,0,0
274750.325,202.235,-579.786,0,0
275010.65,204.68,-580.943,0,0
275270.975,207.131,-582.452,0,0
275531.3,209.53,-584.376,0,0
275791.625,211.734,-586.857,0,0
276051.95,213.641,-589.757,0,0
276312.275,215.088,-593.034,0,0
276572.6,216.017,-596.623,0,0
276832.925,216.365,-600.334,0,0
277093.25,216.12,-603.984,0,0
277353.575,215.426,-607.477,0,0
277613.9,214.336,-610.752,0,0
277874.225,212.967,-613.815,0,0
278134.55,211.353,-616.639,0,0
278394.875,209.534,-619.267,0,0
278655.2,207.559,-621.662,0,0
278915.525,205.468,-623.826,0,0
279175.85,203.279,-625.846,0,0
279436.175,201.017,-627.649,0,0
279696.5,198.703,-629.341,0,0
279956.825,196.273,-630.995,0,0
280217.15,193.672,-632.39,0,0
280477.475,190.964,-633.584,0,0
280737.8,188.219,-634.544,0,0
280998.125,185.556,-635.24,0,0
281258.45,183.011,-635.85,0,0
281518.775,180.49,-636.421,0,0
281779.1,177.943,-636.999,0,0
282039.425,175.271,-637.509,0,0
282299.75,172.475,-637.963,0,0
282560,169.506,-638.252,0,0
282820,166.368,-638.255,0,0
283081,163.182,-637.916,0,0
283341,160.058,-637.159,0,0
283601,157.195,-636.079,0,0
283862,154.666,-634.783,0,0
284122,152.579,-633.488,0,0
284382,150.746,-632.381,0,0
284643,148.957,-631.597,0,0
284903,147.079,-631.053,0,0
285163,144.876,-630.622,0,0
285424,142.4,-630.076,0,0
285684,139.666,-629.279,0,0
285944,136.828,-628.233,0,0
286205,133.942,-626.869,0,0
286465,130.983,-625.166,0,0
286725,128.062,-623.103,0,0
286986,125.323,-620.635,0,0
287246,122.864,-617.873,0,0
287506,120.665,-614.864,0,0
287767,118.756,-611.683,0,0
288027,117.135,-608.351,0,0
288287,115.771,-604.9,0,0
288548,114.681,-601.312,0,0
288808,113.909,-597.53,0,0
289068,113.575,-593.596,0,0
289329,113.753,-589.639,0,0
289589,114.433,-585.732,0,0
289849,115.648,-582.072,0,0
290109,117.255,-578.685,0,0
290370,119.179,-575.645,0,0
290630,121.33,-572.898,0,0
290890,123.775,-570.395,0,0
291151,126.555,-568.301,0,0
291411,129.572,-566.699,0,0
291671,132.753,-565.626,0,0
291932,135.965,-565.141,0,0
292192,139.124,-565.217,0,0
292452,142.126,-565.922,0,0
292713,144.803,-567.244,0,0
292973,146.928,-569.049,0,0
293233,148.371,-571.152,0,0
293494,149.155,-573.255,0,0
293754,149.374,-575.185,0,0
294014,149.147,-576.856,0,0
294275,148.621,-578.158,0,0
294535,147.933,-579.077,0,0
294795,147.231,-579.621,0,0
295056,146.692,-579.842,0,0
295316,146.347,-579.801,0,0
295576,146.285,-579.665,0,0
295837,146.587,-579.471,0,0
296097,147.303,-579.445,0,0
296357,148.419,-579.844,0,0
296618,149.687,-580.917,0,0
296878,150.686,-582.679,0,0
297138,151.118,-584.939,0,0
297399,150.881,-587.41,0,0
297659,150.014,-589.787,0,0
297919,148.66,-591.932,0,0
298180,146.937,-593.751,0,0
298440,144.983,-595.227,0,0
298700.2,142.886,-596.355,0,0
298960.525,140.772,-597.167,0,0
299220.85,138.717,-597.734,0,0
299481.175,136.692,-598.14,0,0
299741.5,134.665,-598.401,0,0
300001.825,132.613,-598.522,0,0
300262.15,130.54,-598.48,0,0
300522.475,128.47,-598.199,0,0
300782.8,126.52,-597.696,0,0
301043.125,124.717,-596.996,0,0
301303.45,123.125,-596.166,0,0
301563.775,121.759,-595.267,0,0
301824.1,120.601,-594.382,0,0
302084.425,119.611,-593.584,0,0
302344.75,118.768,-592.866,0,0
302605.075,118.053,-592.284,0,0
302865.4,117.403,-591.841,0,0
303125.725,116.742,-591.587,0,0
303386.05,116.041,-591.459,0,0
303646.375,115.208,-591.476,0,0
303906.7,114.268,-591.555,0,0
304167.025,113.205,-591.66,0,0
304427.35,112.009,-591.768,0,0
304687.675,110.687,-591.845,0,0
304948.0,109.266,-591.894,0,0
305208.325,107.708,-591.861,0,0
305468.65,106.062,-591.741,0,0
305728.975,104.353,-591.485,0,0
305989.3,102.604,-591.127,0,0
306249.625,100.83,-590.633,0,0
306509.95,99.0737,-590.002,0,0
306770.275,97.3392,-589.286,0,0
307030.6,95.6464,-588.473,0,0
307290.925,93.9865,-587.573,0,0
307551.25,92.3695,-586.571,0,0
307811.575,90.8193,-585.528,0,0
308071.9,89.325,-584.417,0,0
308332.225,87.8768,-583.255,0,0
308592.55,86.5085,-582.037,0,0
308852.875,85.1938,-580.791,0,0
309113.2,83.9799,-579.512,0,0
309373.525,82.8223,-578.218,0,0
309633.85,81.7389,-576.938,0,0
309894.175,80.7221,-575.662,0,0
310154.5,79.7157,-574.428,0,0
310414.825,78.7438,-573.193,0,0
310675.15,77.7671,-571.96,0,0
310935.475,76.8253,-570.729,0,0
311195.8,75.9073,-569.489,0,0
311456.125,75.0086,-568.24,0,0
311716.45,74.1183,-566.988,0,0
311976.775,73.2743,-565.743,0,0
312237.1,72.4126,-564.467,0,0
312497.425,71.5733,-563.157,0,0
312757.75,70.7793,-561.836,0,0
313018.075,70.0384,-560.49,0,0
313278.4,69.3476,-559.149,0,0
313538.725,68.6884,-557.844,0,0
313799.05,68.0559,-556.539,0,0
314059.375,67.4449,-555.227,0,0
314319.7,66.8311,-553.951,0,0
314580,66.2447,-552.768,0,0
314840,65.7196,-551.402,0,0
315101,65.1027,-550.12,0,0
315361,64.5605,-548.745,0,0
315621,64.1045,-547.519,0,0
315882,63.6352,-546.209,0,0
316142,63.1206,-544.977,0,0
316402,62.6956,-543.7,0,0
316663,62.2328,-542.327,0,0
316923,61.8552,-541.105,0,0
317183,61.4936,-539.808,0,0
317444,61.1507,-538.446,0,0
317704,60.8332,-537.162,0,0
317964,60.5815,-535.941,0,0
318225,60.3457,-534.636,0,0
318485,60.1112,-533.402,0,0
318745,59.9278,-532.242,0,0
319006,59.7171,-531.024,0,0
319266,59.5629,-529.906,0,0
319526,59.3354,-528.773,0,0
319787,59.1453,-527.657,0,0
320047,58.8973,-526.535,0,0
320307,58.757,-525.435,0,0
320567,58.5432,-524.339,0,0
320828,58.3658,-523.226,0,0
321088,58.0885,-522.077,0,0
321348,57.8887,-521,0,0
321609,57.6928,-519.924,0,0
321869,57.4716,-518.774,0,0
322129,57.3026,-517.596,0,0
322390,57.1479,-516.461,0,0
322650,56.9594,-515.317,0,0
322910,56.7807,-514.097,0,0
323171,56.6136,-512.918,0,0
323431,56.505,-511.736,0,0
323691,56.3758,-510.5,0,0
323952,56.2802,-509.245,0,0
324212,56.1767,-507.906,0,0
324472,56.1641,-506.575,0,0
324733,56.274,-505.221,0,0
324993,56.466,-503.882,0,0
325253,56.6047,-502.467,0,0
325514,56.962,-501.164,0,0
325774,57.3949,-499.805,0,0
326034,57.9643,-498.55,0,0
326295,58.5517,-497.434,0,0
326555,59.1504,-496.383,0,0
326815,59.8747,-495.458,0,0
327076,60.5729,-494.634,0,0
327336,61.2217,-493.916,0,0
327596,61.9083,-493.356,0,0
327857,62.4257,-492.803,0,0
328117,62.9735,-492.309,0,0
328377,63.4296,-491.901,0,0
328638,63.8981,-491.513,0,0
328898,64.1902,-491.056,0,0
329158,64.5474,-490.66,0,0
329419,64.9519,-490.274,0,0
329679,65.3078,-489.907,0,0
329939,65.6225,-489.542,0,0
330200,65.9156,-489.29,0,0
330460,66.2299,-489.056,0,0
330720.15,66.4869,-488.869,0,0
330980.475,66.6811,-488.747,0,0
331240.8,66.778,-488.62,0,0
331501.125,66.9466,-488.558,0,0
331761.45,66.9781,-488.497,0,0
332021.775,66.9486,-488.469,0,0
332282.1,66.8246,-488.492,0,0
332542.425,66.5921,-488.474,0,0
332802.75,66.2989,-488.404,0,0
333063.075,65.9376,-488.366,0,0
333323.4,65.55,-488.195,0,0
333583.725,65.0532,-487.991,0,0
333844.05,64.518,-487.788,0,0
334104.375,64.002,-487.433,0,0
334364.7,63.4269,-486.951,0,0
334625.025,62.8884,-486.484,0,0
334885.35,62.3867,-485.921,0,0
335145.675,61.8726,-485.357,0,0
335406.0,61.454,-484.774,0,0
335666.325,61.0274,-484.111,0,0
335926.65,60.5984,-483.448,0,0
336186.975,60.168,-482.859,0,0
336447.3,59.7657,-482.153,0,0
336707.625,59.3986,-481.444,0,0
336967.95,59.0051,-480.755,0,0
337228.275,58.5914,-480.014,0,0
337488.6,58.2038,-479.224,0,0
337748.925,57.9293,-478.442,0,0
338009.25,57.6249,-477.644,0,0
338269.575,57.329,-476.938,0,0
338529.9,57.0546,-476.157,0,0
338790.225,56.7791,-475.293,0,0
339050.55,56.5398,-474.514,0,0
339310.875,56.2746,-473.728,0,0
339571.2,56.0326,-472.931,0,0
339831.525,55.8029,-472.146,0,0
340091.85,55.5767,-471.279,0,0
340352.175,55.3747,-470.361,0,0
340612.5,55.1396,-469.586,0,0
340872.825,55.0032,-468.656,0,0
341133.15,54.8378,-467.742,0,0
341393.475,54.7065,-466.886,0,0
341653.8,54.6248,-466.021,0,0
341914.125,54.5224,-465.123,0,0
342174.45,54.4294,-464.224,0,0
342434.775,54.4421,-463.338,0,0
342695.1,54.3599,-462.499,0,0
342955.425,54.2902,-461.643,0,0
343215.75,54.3207,-460.734,0,0
343476.075,54.3295,-459.826,0,0
343736.4,54.2998,-458.999,0,0
343996.725,54.3134,-458.103,0,0
344257.05,54.4059,-457.186,0,0
344517.375,54.452,-456.326,0,0
344777.7,54.6017,-455.424,0,0
345038.025,54.7088,-454.54,0,0
345298.35,54.8305,-453.719,0,0
345558.675,54.9871,-452.808,0,0
345819.0,55.1762,-451.998,0,0
346079.325,55.3621,-451.155,0,0
346339.65,55.6061,-450.388,0,0
346599.975,55.8715,-449.589,0,0
346860,56.1106,-448.823,0,0
347121,56.2753,-448.035,0,0
347381,56.591,-447.359,0,0
347641,56.8813,-446.627,0,0
347902,57.1106,-445.907,0,0
348162,57.3795,-445.176,0,0
348422,57.7068,-444.536,0,0
348683,58.04,-443.844,0,0
348943,58.3269,-443.179,0,0
349203,58.6434,-442.581,0,0
349464,58.9955,-441.912,0,0
349724,59.3474,-441.386,0,0
349984,59.7139,-440.776,0,0
350245,60.0408,-440.294,0,0
350505,60.3909,-439.727,0,0
350765,60.7528,-439.244,0,0
351025,61.0571,-438.801,0,0
351286,61.3667,-438.367,0,0
351546,61.6522,-437.922,0,0
351806,61.9333,-437.506,0,0
352067,62.2037,-437.158,0,0
352327,62.4848,-436.727,0,0
352587,62.7203,-436.343,0,0
352848,62.9226,-435.937,0,0
353108,63.1371,-435.539,0,0
353368,63.3147,-435.118,0,0
353629,63.492,-434.701,0,0
353889,63.7549,-434.257,0,0
354149,64.0075,-433.825,0,0
354410,64.2104,-433.388,0,0
354670,64.4294,-432.96,0,0
354930,64.7268,-432.504,0,0
355191,64.9367,-432.113,0,0
355451,65.2597,-431.68,0,0
355711,65.5068,-431.324,0,0
355972,65.7646,-430.898,0,0
356232,66.0506,-430.539,0,0
356492,66.3471,-430.189,0,0
356753,66.6211,-429.819,0,0
357013,66.9297,-429.456,0,0
357273,67.2643,-429.12,0,0
357534,67.601,-428.808,0,0
357794,67.9886,-428.482,0,0
358054,68.3603,-428.27,0,0
358315,68.7126,-427.999,0,0
358575,69.1215,-427.874,0,0
358835,69.4619,-427.699,0,0
359096,69.8281,-427.619,0,0
359356,70.1591,-427.508,0,0
359616,70.4596,-427.459,0,0
359877,70.7105,-427.453,0,0
360137,70.9734,-427.441,0,0
360397,71.1525,-427.49,0,0
360658,71.3524,-427.54,0,0
360918,71.4608,-427.597,0,0
361178,71.579,-427.671,0,0
361438,71.6433,-427.696,0,0
361699,71.6746,-427.755,0,0
361959,71.6953,-427.834,0,0
362219,71.6296,-427.871,0,0
362480,71.5886,-427.917,0,0
362740.1,71.4627,-427.939,0,0
363000.425,71.395,-427.891,0,0
363260.75,71.2688,-427.844,0,0
363521.075,71.1258,-427.846,0,0
363781.4,70.9533,-427.767,0,0
364041.725,70.8092,-427.779,0,0
364302.05,70.6166,-427.618,0,0
364562.375,70.4703,-427.506,0,0
364822.7,70.3051,-427.413,0,0
365083.025,70.1035,-427.314,0,0
365343.35,69.9155,-427.149,0,0
365603.675,69.7194,-426.979,0,0
365864.0,69.4277,-426.83,0,0
366124.325,69.2427,-426.616,0,0
366384.65,69.0165,-426.417,0,0
366644.975,68.8128,-426.14,0,0
366905.3,68.643,-425.914,0,0
367165.625,68.4643,-425.6,0,0
367425.95,68.3018,-425.246,0,0
367686.275,68.1615,-424.928,0,0
367946.6,68.0712,-424.57,0,0
368206.925,68.0535,-424.283,0,0
368467.25,68.048,-423.961,0,0
368727.575,68.0815,-423.761,0,0
368987.9,68.1348,-423.564,0,0
369248.225,68.1839,-423.404,0,0
369508.55,68.1217,-423.362,0,0
369768.875,68.1885,-423.265,0,0
370029.2,68.0792,-423.252,0,0
370289.525,67.9588,-423.292,0,0
370549.85,67.7735,-423.261,0,0
370810.175,67.4726,-423.226,0,0
371070.5,67.1473,-423.177,0,0
371330.825,66.8842,-423.04,0,0
371591.15,66.5753,-422.87,0,0
371851.475,66.3112,-422.666,0,0
372111.8,65.9857,-422.433,0,0
372372.125,65.7619,-422.219,0,0
372632.45,65.5563,-421.974,0,0
372892.775,65.3366,-421.77,0,0
373153.1,65.0864,-421.551,0,0
373413.425,64.8426,-421.375,0,0
373673.75,64.5615,-421.159,0,0
373934.075,64.3565,-420.955,0,0
374194.4,64.0742,-420.732,0,0
374454.725,63.8501,-420.541,0,0
374715.05,63.5963,-420.338,0,0
374975.375,63.3195,-420.176,0,0
375235.7,63.0388,-419.955,0,0
375496.025,62.7229,-419.789,0,0
375756.35,62.418,-419.564,0,0
376016.675,62.1123,-419.362,0,0
376277.0,61.7356,-419.088,0,0
376537.325,61.4219,-418.866,0,0
376797.65,61.1064,-418.568,0,0
377057.975,60.7819,-418.325,0,0
377318.3,60.4834,-418.051,0,0
377578.625,60.1655,-417.8,0,0
377838.95,59.8556,-417.52,0,0
378099.275,59.5821,-417.389,0,0
378359.6,59.1848,-417.154,0,0
378619.925,58.8068,-417.017,0,0
378880,58.2928,-416.88,0,0
379141,57.7111,-416.64,0,0
379401,57.0981,-416.379,0,0
379661,56.3996,-415.979,0,0
379922,55.7245,-415.48,0,0
380182,55.042,-414.79,0,0
380442,54.5326,-414.098,0,0
380703,54.0676,-413.25,0,0
380963,53.8234,-412.422,0,0
381223,53.6488,-411.599,0,0
381483,53.6063,-410.847,0,0
381744,53.6721,-410.234,0,0
382004,53.761,-409.775,0,0
382264,53.7579,-409.411,0,0
382525,53.7462,-409.087,0,0
382785,53.6076,-408.894,0,0
383045,53.4536,-408.674,0,0
383306,53.2103,-408.429,0,0
383566,52.9365,-408.203,0,0
383826,52.5367,-407.921,0,0
384087,52.1357,-407.678,0,0
384347,51.7065,-407.325,0,0
384607,51.2267,-406.967,0,0
384868,50.8015,-406.511,0,0
385128,50.3103,-406.098,0,0
385388,49.8664,-405.595,0,0
385649,49.378,-405.03,0,0
385909,48.967,-404.446,0,0
386169,48.5624,-403.809,0,0
386430,48.1597,-403.137,0,0
386690,47.7984,-402.517,0,0
386950,47.4424,-401.794,0,0
387211,47.1782,-401.071,0,0
387471,46.8639,-400.428,0,0
387731,46.6184,-399.691,0,0
387992,46.4242,-399.033,0,0
388252,46.2031,-398.32,0,0
388512,46.0316,-397.629,0,0
388773,45.8377,-396.933,0,0
389033,45.6665,-396.237,0,0
389293,45.5629,-395.543,0,0
389554,45.436,-394.841,0,0
389814,45.3989,-394.126,0,0
390074,45.3092,-393.474,0,0
390335,45.3568,-392.837,0,0
390595,45.3474,-392.21,0,0
390855,45.3562,-391.635,0,0
391116,45.3857,-391.095,0,0
391376,45.3942,-390.619,0,0
391636,45.4159,-390.177,0,0
391896,45.3988,-389.799,0,0
392157,45.3111,-389.43,0,0
392417,45.1937,-389.094,0,0
392677,45.0219,-388.721,0,0
392938,44.7424,-388.345,0,0
393198,44.4184,-387.955,0,0
393458,44.1141,-387.486,0,0
393719,43.7605,-386.948,0,0
393979,43.4175,-386.415,0,0
394239,43.0912,-385.825,0,0
394500,42.7153,-385.199,0,0
394760.05,42.3761,-384.474,0,0
395020.375,42.1081,-383.773,0,0
395280.7,41.8244,-382.974,0,0
395541.025,41.5885,-382.205,0,0
395801.35,41.3135,-381.378,0,0
396061.675,41.1533,-380.56,0,0
396322.0,41.0411,-379.733,0,0
396582.325,40.9416,-378.921,0,0
396842.65,40.8581,-378.11,0,0
397102.975,40.816,-377.252,0,0
397363.3,40.7871,-376.471,0,0
397623.625,40.8051,-375.637,0,0
397883.95,40.835,-374.821,0,0
398144.275,40.8705,-374.033,0,0
398404.6,40.9533,-373.247,0,0
398664.925,41.0633,-372.463,0,0
398925.25,41.1811,-371.705,0,0
399185.575,41.2812,-371.017,0,0
399445.9,41.3977,-370.272,0,0
399706.225,41.5714,-369.582,0,0
399966.55,41.7237,-368.873,0,0
400006.6,41.723,-368.771,0,0