File: Accelerated corrosion test data/2025-10-17_06-53-44/sample_8.csv
Frequency (Hz),Impedance (ohms),Phase (Radians),Temperature (C),Humidity (%)
10000.0,309.593,-10979.3,0,0
10260.325,301.768,-10704,0,0
10520.65,294.522,-10442.3,0,0
10780.975,287.019,-10193.3,0,0
11041.3,280.796,-9955.37,0,0
11301.625,274.402,-9729.6,0,0
11561.95,268.782,-9512.42,0,0
11822.275,262.523,-9305.29,0,0
12082.6,260.36,-9105.5,0,0
12342.925,256.893,-8918.88,0,0
12603.25,252.06,-8737.41,0,0
12863.575,248.651,-8566.79,0,0
13123.9,240.545,-8401.5,0,0
13384.225,235.044,-8239.73,0,0
13644.55,231.827,-8085.41,0,0
13904.875,223.882,-7935.65,0,0
14165.2,218.969,-7791.5,0,0
14425.525,215.519,-7650.82,0,0
14685.8,211.062,-7517.34,0,0
14946.175,207.126,-7387.01,0,0
15206.5,203.638,-7262.1,0,0
15466.825,200.632,-7140.81,0,0
15727.15,197.142,-7024.02,0,0
15987.5,193.971,-6910.64,0,0
16247.8,191.061,-6800.99,0,0
16508.125,188.004,-6694.72,0,0
16768.45,184.915,-6591.63,0,0
17028.775,181.959,-6491.47,0,0
17289.1,179.3,-6394.39,0,0
17549.425,176.627,-6300.04,0,0
17809.75,174.566,-6207.65,0,0
18070.075,172.338,-6119.74,0,0
18330.4,169.448,-6032.57,0,0
18590.725,167.789,-5947.5,0,0
18851.05,168.528,-5864.2,0,0
19111.375,166.786,-5785.01,0,0
19371.7,168.238,-5709.3,0,0
19632.025,165.983,-5636.57,0,0
19892.35,162.271,-5566.02,0,0
20152.675,159.591,-5493.1,0,0
20413.0,159.74,-5423.15,0,0
20673.3,160.211,-5355.92,0,0
20933.65,156.748,-5293.31,0,0
21193.975,152.899,-5229.47,0,0
21454.3,150.824,-5165.34,0,0
21714.625,149.165,-5102.82,0,0
21974.9,148.341,-5043.05,0,0
22235.275,148.497,-4984.85,0,0
22495.6,147.139,-4928.11,0,0
22755.925,145.602,-4874.12,0,0
23016.25,144.106,-4820.14,0,0
23276.6,139.268,-4767.59,0,0
23536.9,136.971,-4714.31,0,0
23797.225,135.252,-4662.53,0,0
24057.55,133.513,-4612.1,0,0
24317.875,131.949,-4562.9,0,0
24578.2,130.037,-4514.28,0,0
24838.525,129.008,-4466.57,0,0
25098.85,127.225,-4419.67,0,0
25359.175,125.563,-4374.89,0,0
25619.5,124.746,-4329.9,0,0
25879.8,123.825,-4285.47,0,0
26140.1,123.177,-4243.44,0,0
26400.5,121.735,-4201.51,0,0
26660.8,120.07,-4159.99,0,0
26921.1,119.81,-4118.58,0,0
27181.4,119.649,-4079.8,0,0
27441.8,119.001,-4040.93,0,0
27702.1,117.897,-4003.44,0,0
27962.4,115.885,-3965.87,0,0
28222.7,116.761,-3928.8,0,0
28483.1,115.246,-3892.69,0,0
28743.4,115.484,-3857.56,0,0
29003.7,114.241,-3823.57,0,0
29264,114.314,-3789.39,0,0
29524.4,113.368,-3755.81,0,0
29784.7,112.861,-3723.1,0,0
30045,112.036,-3690.96,0,0
30305.3,111.855,-3660.07,0,0
30565.7,110.015,-3628.84,0,0
30826,109.146,-3598.04,0,0
31086.3,107.833,-3567.65,0,0
31346.6,107.181,-3537.15,0,0
31607,106.437,-3507.83,0,0
31867.3,105.752,-3478.72,0,0
32127.6,105.23,-3450.13,0,0
32387.9,104.756,-3421.45,0,0
32648.3,104.633,-3393.36,0,0
32908.6,105.114,-3366.38,0,0
33168.9,104.501,-3339.4,0,0
33429.2,105.035,-3313.03,0,0
33689.6,105.286,-3287.35,0,0
33949.9,105.614,-3262.02,0,0
34210.2,105.639,-3237.34,0,0
34470.5,105.707,-3212.65,0,0
34730.9,105.945,-3188.28,0,0
34991.2,107.206,-3164.55,0,0
35251.5,107.82,-3141.78,0,0
35511.8,108.385,-3119.74,0,0
35772.2,108.82,-3098.32,0,0
36032.5,109.089,-3077.66,0,0
36292.8,108.726,-3056.63,0,0
36553.1,108.601,-3036.88,0,0
36813.5,107.105,-3016.93,0,0
37073.8,106.95,-2996.96,0,0
37334.1,105.646,-2977.85,0,0
37594.4,103.816,-2958.82,0,0
37854.8,101.854,-2939.27,0,0
38115.1,99.8635,-2920.16,0,0
38375.4,97.7996,-2900.56,0,0
38635.7,95.9511,-2881.08,0,0
38896.1,93.9456,-2861.75,0,0
39156.4,91.9967,-2842.06,0,0
39416.7,90.6943,-2822.56,0,0
39677,89.3683,-2803.59,0,0
39937.4,87.7101,-2784.4,0,0
40197.7,87.1258,-2765.1,0,0
40458,87.1929,-2746.53,0,0
40718.3,86.7084,-2729.1,0,0
40978.7,85.8221,-2711.41,0,0
41239,85.3173,-2693.69,0,0
41499.3,84.4935,-2676.35,0,0
41759.6,84.2606,-2659.46,0,0
42020,83.1845,-2642.42,0,0
42280.275,82.4134,-2625.54,0,0
42540.6,81.9746,-2608.98,0,0
42800.925,81.8259,-2592.05,0,0
43061.25,81.9399,-2575.91,0,0
43321.575,82.1432,-2560.63,0,0
43581.9,81.9087,-2545.72,0,0
43842.225,81.3812,-2530.82,0,0
44102.55,80.2703,-2516.06,0,0
44362.875,79.4322,-2500.89,0,0
44623.2,78.6887,-2486.01,0,0
44883.525,77.9941,-2471.22,0,0
45143.85,77.3855,-2456.39,0,0
45404.175,76.6393,-2442.02,0,0
45664.5,76.3084,-2427.51,0,0
45924.825,75.6303,-2413.45,0,0
46185.15,75.0135,-2399.26,0,0
46445.475,74.404,-2385.37,0,0
46705.8,74.0122,-2371.38,0,0
46966.125,73.6142,-2357.83,0,0
47226.45,73.2537,-2344.32,0,0
47486.775,73.0026,-2331.07,0,0
47747.1,72.7265,-2317.93,0,0
48007.425,72.3326,-2304.95,0,0
48267.75,71.9987,-2292.09,0,0
48528.075,71.6911,-2279.51,0,0
48788.4,71.1609,-2267.05,0,0
49048.725,70.6123,-2254.6,0,0
49309.05,70.1726,-2242.12,0,0
49569.375,69.7996,-2229.83,0,0
49829.7,69.2782,-2217.64,0,0
50090.025,69.0099,-2205.5,0,0
50350.35,68.7782,-2193.57,0,0
50610.675,68.3385,-2181.61,0,0
50871.0,68.2377,-2169.95,0,0
51131.325,68.0095,-2158.19,0,0
51391.65,67.7944,-2146.72,0,0
51651.975,67.7062,-2135.38,0,0
51912.3,67.6159,-2124.26,0,0
52172.625,67.4331,-2113.26,0,0
52432.95,67.2391,-2102.33,0,0
52693.275,67.215,-2091.34,0,0
52953.6,67.1896,-2080.63,0,0
53213.925,67.4034,-2070.21,0,0
53474.25,67.4392,-2059.81,0,0
53734.575,67.6304,-2050.01,0,0
53994.9,67.0705,-2040.63,0,0
54255.225,66.2666,-2030.64,0,0
54515.55,65.7193,-2020.71,0,0
54775.875,65.2158,-2010.61,0,0
55036.2,64.7609,-2000.96,0,0
55296.525,63.93,-1991.16,0,0
55556.85,63.2525,-1981.25,0,0
55817.175,62.6731,-1971.29,0,0
56077.5,62.1039,-1961.51,0,0
56337.825,61.7344,-1951.67,0,0
56598.15,61.3363,-1941.88,0,0
56858.475,61.0967,-1932.35,0,0
57118.8,60.7871,-1922.84,0,0
57379.125,60.6647,-1913.32,0,0
57639.45,60.4932,-1904.07,0,0
57899.775,60.2199,-1894.89,0,0
58160.1,60.0527,-1885.71,0,0
58420.4,60.0343,-1876.73,0,0
58680.7,59.9449,-1867.69,0,0
58941.1,59.9005,-1858.92,0,0
59201.4,59.7984,-1850.36,0,0
59461.7,59.4682,-1841.81,0,0
59722,59.2,-1833.2,0,0
59982.4,58.8972,-1824.65,0,0
60242.7,58.5122,-1816.13,0,0
60503,58.213,-1807.54,0,0
60763.3,58.1594,-1799.07,0,0
61023.7,57.9817,-1790.7,0,0
61284,57.9591,-1782.32,0,0
61544.3,58.0484,-1774.13,0,0
61804.6,57.9717,-1766.05,0,0
62065,57.8166,-1758.13,0,0
62325.3,57.5851,-1750.08,0,0
62585.6,57.5106,-1741.96,0,0
62845.9,57.6689,-1733.97,0,0
63106.3,57.7669,-1726.16,0,0
63366.6,57.9881,-1718.41,0,0
63626.9,58.1598,-1710.95,0,0
63887.2,58.1179,-1703.44,0,0
64147.6,58.4993,-1695.93,0,0
64407.9,58.6281,-1688.94,0,0
64668.2,58.5873,-1681.93,0,0
64928.5,58.5972,-1674.97,0,0
65188.9,58.4606,-1667.96,0,0
65449.2,58.116,-1661.12,0,0
65709.5,57.8088,-1653.98,0,0
65969.8,57.8254,-1647.16,0,0
66230.2,57.4663,-1640.53,0,0
66490.5,56.9855,-1633.77,0,0
66750.8,56.4151,-1626.79,0,0
67011.1,55.9626,-1619.6,0,0
67271.5,55.7216,-1612.64,0,0
67531.8,55.6366,-1605.56,0,0
67792.1,55.4779,-1598.85,0,0
68052.4,55.2845,-1592.1,0,0
68312.8,55.0668,-1585.4,0,0
68573.1,54.9386,-1578.56,0,0
68833.4,54.6683,-1571.85,0,0
69093.7,54.6408,-1565.16,0,0
69354.1,54.4662,-1558.49,0,0
69614.4,54.5838,-1551.93,0,0
69874.7,54.5729,-1545.44,0,0
70135,54.6422,-1539.14,0,0
70395.4,54.5922,-1532.74,0,0
70655.7,54.5629,-1526.41,0,0
70916,54.5031,-1520.12,0,0
71176.3,54.5529,-1513.91,0,0
71436.7,54.5867,-1507.69,0,0
71697,54.8538,-1501.53,0,0
71957.3,54.934,-1495.76,0,0
72217.6,54.8139,-1489.96,0,0
72478,54.7317,-1484.1,0,0
72738.3,54.6204,-1478.36,0,0
72998.6,54.3885,-1472.61,0,0
73258.9,54.0768,-1466.64,0,0
73519.3,54.0958,-1460.74,0,0
73779.6,54.0076,-1455.04,0,0
74039.9,53.923,-1449.27,0,0
74300.225,53.7978,-1443.67,0,0
74560.55,53.4983,-1438.01,0,0
74820.875,53.3312,-1432.24,0,0
75081.2,53.1828,-1426.46,0,0
75341.525,53.1694,-1420.77,0,0
75601.85,53.0435,-1415.2,0,0
75862.175,53.0162,-1409.6,0,0
76122.5,52.8754,-1404,0,0
76382.825,52.9376,-1398.49,0,0
76643.15,52.9376,-1393.07,0,0
76903.475,52.8802,-1387.72,0,0
77163.8,52.8099,-1382.38,0,0
77424.125,52.6703,-1377.05,0,0
77684.45,52.6134,-1371.72,0,0
77944.775,52.4886,-1366.38,0,0
78205.1,52.3943,-1361.16,0,0
78465.425,52.2394,-1355.96,0,0
78725.75,52.017,-1350.64,0,0
78986.075,52.02,-1345.32,0,0
79246.4,51.8605,-1340.18,0,0
79506.725,51.7149,-1334.9,0,0
79767.05,51.6381,-1329.65,0,0
80027.375,51.5988,-1324.42,0,0
80287.7,51.5564,-1319.23,0,0
80548.025,51.4952,-1314.07,0,0
80808.35,51.4533,-1308.94,0,0
81068.675,51.4452,-1303.75,0,0
81329.0,51.4885,-1298.56,0,0
81589.325,51.6034,-1293.42,0,0
81849.65,51.7104,-1288.33,0,0
82109.975,51.9002,-1283.24,0,0
82370.3,52.1464,-1278.36,0,0
82630.625,52.2734,-1273.42,0,0
82890.95,52.4666,-1268.52,0,0
83151.275,52.7211,-1263.71,0,0
83411.6,52.7801,-1258.9,0,0
83671.925,53.0565,-1253.97,0,0
83932.25,53.4156,-1249.25,0,0
84192.575,53.7076,-1244.61,0,0
84452.9,53.9617,-1239.93,0,0
84713.225,54.4464,-1235.4,0,0
84973.55,54.8845,-1231.18,0,0
85233.875,54.907,-1227.23,0,0
85494.2,54.6016,-1222.99,0,0
85754.525,54.3982,-1218.47,0,0
86014.85,54.1514,-1213.87,0,0
86275.175,54.0787,-1209.27,0,0
86535.5,53.9555,-1204.61,0,0
86795.825,54.0574,-1199.85,0,0
87056.15,54.2844,-1195.16,0,0
87316.475,54.5526,-1190.71,0,0
87576.8,54.5964,-1186.29,0,0
87837.125,54.6896,-1181.79,0,0
88097.45,54.9001,-1177.2,0,0
88357.775,55.0121,-1172.81,0,0
88618.1,55.1607,-1168.38,0,0
88878.425,55.3249,-1163.96,0,0
89138.75,55.4302,-1159.52,0,0
89399.075,55.547,-1154.96,0,0
89659.4,55.7687,-1150.39,0,0
89919.725,56.1147,-1145.76,0,0
90180,56.5712,-1141.22,0,0
90440.4,56.9328,-1136.91,0,0
90700.7,57.4302,-1132.29,0,0
90961,58.0245,-1127.73,0,0
91221.3,58.7839,-1123.16,0,0
91481.7,59.8858,-1118.98,0,0
91742,60.8691,-1115.03,0,0
92002.3,61.6329,-1111.19,0,0
92262.6,62.4537,-1107.38,0,0
92523,63.2028,-1103.72,0,0
92783.3,63.8494,-1100.02,0,0
93043.6,64.7039,-1096.42,0,0
93303.9,65.3973,-1093.36,0,0
93564.3,65.6125,-1090.16,0,0
93824.6,65.5521,-1086.89,0,0
94084.9,65.2597,-1083.17,0,0
94345.2,65.4141,-1079.35,0,0
94605.6,65.3277,-1075.39,0,0
94865.9,65.7591,-1071.29,0,0
95126.2,65.9851,-1067.47,0,0
95386.5,66.2863,-1063.38,0,0
95646.9,66.8772,-1059.52,0,0
95907.2,67.23,-1055.64,0,0
96167.5,67.7874,-1051.71,0,0
96427.8,68.2529,-1047.61,0,0
96688.2,69.1947,-1043.61,0,0
96948.5,70.0787,-1039.94,0,0
97208.8,70.8956,-1036.23,0,0
97469.1,71.779,-1032.58,0,0
97729.5,72.7413,-1028.94,0,0
97989.8,73.777,-1025.43,0,0
98250.1,74.822,-1022.06,0,0
98510.4,75.9078,-1018.7,0,0
98770.8,77.0751,-1015.45,0,0
99031.1,78.3631,-1012.57,0,0
99291.4,79.3624,-1009.9,0,0
99551.7,80.1103,-1007.24,0,0
99812.1,80.7508,-1004.32,0,0
100072,81.5972,-1001.46,0,0
100333,82.4833,-998.65,0,0
100593,83.3217,-996.028,0,0
100853,84.1938,-993.451,0,0
101114,84.9633,-991.128,0,0
101374,85.5477,-988.769,0,0
101634,86.1778,-986.458,0,0
101895,86.6064,-984.289,0,0
102155,86.884,-982.089,0,0
102415,87.1047,-979.881,0,0
102676,87.3194,-977.708,0,0
102936,87.3211,-975.62,0,0
103196,87.0588,-973.47,0,0
103457,86.6299,-971.094,0,0
103717,86.2352,-968.414,0,0
103977,86.0556,-965.643,0,0
104238,85.9841,-962.894,0,0
104498,85.9544,-960.325,0,0
104758,85.8028,-957.823,0,0
105019,85.4803,-955.213,0,0
105279,85.0956,-952.448,0,0
105539,84.873,-949.525,0,0
105800,84.6766,-946.624,0,0
106060,84.5743,-943.68,0,0
106320.175,84.5532,-940.74,0,0
106580.5,84.5683,-937.858,0,0
106840.825,84.6564,-935.018,0,0
107101.15,84.819,-932.252,0,0
107361.475,84.8824,-929.624,0,0
107621.8,84.7967,-927.058,0,0
107882.125,84.5568,-924.377,0,0
108142.45,84.3527,-921.52,0,0
108402.775,84.218,-918.583,0,0
108663.1,84.1959,-915.584,0,0
108923.425,84.252,-912.694,0,0
109183.75,84.3503,-909.717,0,0
109444.075,84.6457,-906.766,0,0
109704.4,84.8384,-904.006,0,0
109964.725,85.1636,-901.205,0,0
110225.05,85.4249,-898.623,0,0
110485.375,85.6767,-895.99,0,0
110745.7,85.8582,-893.486,0,0
111006.025,85.9247,-890.961,0,0
111266.35,85.9588,-888.422,0,0
111526.675,86.2026,-885.638,0,0
111787.0,86.4101,-883.114,0,0
112047.325,86.585,-880.714,0,0
112307.65,86.7121,-878.356,0,0
112567.975,86.7452,-875.89,0,0
112828.3,86.7811,-873.452,0,0
113088.625,86.895,-871.03,0,0
113348.95,86.9454,-868.651,0,0
113609.275,86.9712,-866.321,0,0
113869.6,86.8973,-863.998,0,0
114129.925,86.6897,-861.671,0,0
114390.25,86.5373,-859.165,0,0
114650.575,86.4783,-856.685,0,0
114910.9,86.401,-854.165,0,0
115171.225,86.3608,-851.675,0,0
115431.55,86.4487,-849.39,0,0
115691.875,86.3102,-847.232,0,0
115952.2,85.9015,-845,0,0
116212.525,85.4835,-842.561,0,0
116472.85,85.0528,-840.059,0,0
116733.175,84.6088,-837.344,0,0
116993.5,84.3125,-834.516,0,0
117253.825,84.2263,-831.672,0,0
117514.15,84.2745,-828.991,0,0
117774.475,84.3336,-826.444,0,0
118034.8,84.2744,-823.955,0,0
118295.125,84.1679,-821.523,0,0
118555.45,83.9807,-818.974,0,0
118815.775,83.8498,-816.381,0,0
119076.1,83.8122,-813.874,0,0
119336.425,83.7479,-811.497,0,0
119596.75,83.4681,-809.043,0,0
119857.075,83.1896,-806.523,0,0
120117.4,82.908,-803.909,0,0
120377.725,82.6547,-801.343,0,0
120638.05,82.3905,-798.648,0,0
120898.375,82.1882,-795.91,0,0
121158.7,82.1419,-793.27,0,0
121419.025,82.0061,-790.624,0,0
121679.35,81.83,-787.968,0,0
121939.675,81.692,-785.307,0,0
122200.0,81.5573,-782.599,0,0
122460,81.5286,-779.926,0,0
122721,81.4396,-777.378,0,0
122981,81.2496,-774.759,0,0
123241,81.057,-772.071,0,0
123502,80.8942,-769.338,0,0
123762,80.7762,-766.598,0,0
124022,80.651,-763.829,0,0
124283,80.5934,-761.019,0,0
124543,80.5663,-758.246,0,0
124803,80.5731,-755.483,0,0
125064,80.5655,-752.755,0,0
125324,80.5558,-750.032,0,0
125584,80.5082,-747.277,0,0
125845,80.4884,-744.499,0,0
126105,80.4868,-741.684,0,0
126365,80.554,-738.791,0,0
126626,80.6449,-735.93,0,0
126886,80.8704,-733.108,0,0
127146,81.0709,-730.378,0,0
127406,81.2061,-727.683,0,0
127667,81.3258,-724.919,0,0
127927,81.5368,-722.148,0,0
128187,81.76,-719.433,0,0
128448,81.9805,-716.709,0,0
128708,82.2188,-713.986,0,0
128968,82.5224,-711.307,0,0
129229,82.7971,-708.643,0,0
129489,83.0205,-706.095,0,0
129749,83.1726,-703.537,0,0
130010,83.24,-700.881,0,0
130270,83.327,-698.1,0,0
130530,83.5566,-695.246,0,0
130791,83.9369,-692.45,0,0
131051,84.3453,-689.764,0,0
131311,84.7548,-687.11,0,0
131572,85.1945,-684.631,0,0
131832,85.4402,-682.227,0,0
132092,85.5837,-679.714,0,0
132353,85.7533,-677.163,0,0
132613,85.9279,-674.582,0,0
132873,86.1097,-672.028,0,0
133134,86.242,-669.449,0,0
133394,86.3094,-666.788,0,0
133654,86.3825,-664.037,0,0
133915,86.5163,-661.239,0,0
134175,86.7419,-658.374,0,0
134435,87.0423,-655.568,0,0
134696,87.2889,-652.753,0,0
134956,87.6105,-649.806,0,0
135216,88.1718,-646.902,0,0
135477,88.7395,-644.177,0,0
135737,89.3059,-641.436,0,0
135997,90.0447,-638.831,0,0
136258,90.7195,-636.496,0,0
136518,91.1819,-634.222,0,0
136778,91.536,-632.057,0,0
137039,91.6017,-629.941,0,0
137299,91.4807,-627.595,0,0
137559,91.292,-625.106,0,0
137819,91.0487,-622.483,0,0
138080,90.6876,-619.676,0,0
138340.125,90.3832,-616.568,0,0
138600.45,90.3131,-613.265,0,0
138860.775,90.4461,-609.908,0,0
139121.1,90.7472,-606.552,0,0
139381.425,91.2123,-603.37,0,0
139641.75,91.5717,-600.217,0,0
139902.075,91.9708,-596.967,0,0
140162.4,92.5253,-593.729,0,0
140422.725,93.094,-590.579,0,0
140683.05,93.6013,-587.449,0,0
140943.375,94.1332,-584.196,0,0
141203.7,94.7998,-581.049,0,0
141464.025,95.3886,-577.943,0,0
141724.35,95.8921,-574.791,0,0
141984.675,96.3835,-571.525,0,0
142245.0,96.9608,-568.128,0,0
142505.325,97.6141,-564.704,0,0
142765.65,98.3297,-561.253,0,0
143025.975,99.1066,-557.751,0,0
143286.3,99.9225,-554.183,0,0
143546.625,100.966,-550.604,0,0
143806.95,102.08,-547.166,0,0
144067.275,103.075,-543.739,0,0
144327.6,104.074,-540.173,0,0
144587.925,105.136,-536.528,0,0
144848.25,106.361,-532.714,0,0
145108.575,107.872,-528.93,0,0
145368.9,109.462,-525.238,0,0
145629.225,111.23,-521.551,0,0
145889.55,113.09,-518.096,0,0
146149.875,114.864,-514.669,0,0
146410.2,116.66,-511.167,0,0
146670.525,118.661,-507.66,0,0
146930.85,120.769,-504.248,0,0
147191.175,122.95,-500.998,0,0
147451.5,125.107,-497.902,0,0
147711.825,127.087,-494.944,0,0
147972.15,128.809,-491.813,0,0
148232.475,130.545,-488.308,0,0
148492.8,132.505,-484.522,0,0
148753.125,134.867,-480.582,0,0
149013.45,137.569,-476.717,0,0
149273.775,140.52,-472.82,0,0
149534.1,143.761,-469.204,0,0
149794.425,147.223,-465.543,0,0
150054.75,150.98,-462.037,0,0
150315.075,155.02,-458.801,0,0
150575.4,159.299,-455.694,0,0
150835.725,163.93,-452.857,0,0
151096.05,168.968,-450.407,0,0
151356.375,174.427,-448.737,0,0
151616.7,179.762,-448.043,0,0
151877.025,184.612,-447.872,0,0
152137.35,189.186,-448.172,0,0
152397.675,193.177,-449.02,0,0
152658.0,196.365,-449.737,0,0
152918.325,199.224,-450.368,0,0
153178.65,202.033,-451.091,0,0
153438.975,204.481,-452.088,0,0
153699.3,206.159,-452.903,0,0
153959.625,207.594,-453.389,0,0
154219.95,208.929,-453.678,0,0
154480,209.706,-453.918,0,0
154741,210.097,-453.171,0,0
155001,211.165,-451.227,0,0
155261,213.583,-449.485,0,0
155522,216.555,-448.263,0,0
155782,220.297,-448.132,0,0
156042,223.415,-449.143,0,0
156303,226.16,-450.85,0,0
156563,227.834,-453.477,0,0
156823,227.813,-456.18,0,0
157084,226.292,-457.891,0,0
157344,224.195,-458.176,0,0
157604,222.224,-457.124,0,0
157864,220.752,-454.97,0,0
158125,220.079,-452.051,0,0
158385,220.582,-448.966,0,0
158645,221.818,-446.05,0,0
158906,223.715,-443.551,0,0
159166,226.262,-441.568,0,0
159426,229.048,-440.696,0,0
159687,231.359,-440.861,0,0
159947,232.894,-441.468,0,0
160207,233.155,-442.018,0,0
160468,232.738,-442.127,0,0
160728,231.538,-441.387,0,0
160988,230.415,-439.393,0,0
161249,229.919,-436.634,0,0
161509,230.136,-433.423,0,0
161769,231.237,-430.104,0,0
162030,233.147,-427.055,0,0
162290,235.338,-424.384,0,0
162550,237.79,-422.159,0,0
162811,240.548,-420.32,0,0
163071,243.194,-418.978,0,0
163331,245.979,-418.008,0,0
163592,248.398,-417.673,0,0
163852,250.272,-417.276,0,0
164112,252.155,-416.912,0,0
164373,253.901,-416.434,0,0
164633,255.841,-415.995,0,0
164893,257.862,-416.039,0,0
165154,259.798,-416.446,0,0
165414,261.492,-417.454,0,0
165674,262.46,-418.892,0,0
165935,262.463,-420.651,0,0
166195,261.468,-421.897,0,0
166455,260.02,-422.716,0,0
166716,257.802,-422.852,0,0
166976,255.137,-422.164,0,0
167236,252.499,-420.135,0,0
167497,250.7,-417.266,0,0
167757,249.616,-414.369,0,0
168017,248.768,-411.426,0,0
168277,248.28,-408.59,0,0
168538,247.795,-405.815,0,0
168798,247.143,-402.904,0,0
169058,246.424,-399.504,0,0
169319,246.131,-395.672,0,0
169579,246.487,-391.765,0,0
169839,247.122,-388.171,0,0
170100,247.716,-384.841,0,0
170360.075,248.252,-381.355,0,0
170620.4,248.916,-377.845,0,0
170880.725,249.588,-374.465,0,0
171141.05,249.904,-371.029,0,0
171401.375,249.856,-366.903,0,0
171661.7,250.159,-361.82,0,0
171922.025,251.629,-356.254,0,0
172182.35,254.14,-351.081,0,0
172442.675,257.045,-346.463,0,0
172703.0,260.131,-342.484,0,0
172963.325,263.101,-338.636,0,0
173223.65,266.383,-334.977,0,0
173483.975,269.688,-331.741,0,0
173744.3,273.043,-328.919,0,0
174004.625,276.101,-326.567,0,0
174264.95,278.814,-324.568,0,0
174525.275,281.063,-322.799,0,0
174785.6,282.158,-320.778,0,0
175045.925,282.864,-318.061,0,0
175306.25,283.547,-314.51,0,0
175566.575,284.214,-310.416,0,0
175826.9,285.021,-305.298,0,0
176087.225,286.753,-299.455,0,0
176347.55,289.496,-293.451,0,0
176607.875,292.944,-287.655,0,0
176868.2,296.986,-282.198,0,0
177128.525,301.157,-277.391,0,0
177388.85,305.043,-272.767,0,0
177649.175,308.765,-267.622,0,0
177909.5,312.999,-262.083,0,0
178169.825,317.936,-256.426,0,0
178430.15,323.416,-251.102,0,0
178690.475,329.054,-245.969,0,0
178950.8,334.965,-240.836,0,0
179211.125,341.269,-235.533,0,0
179471.45,348.5,-230.57,0,0
179731.775,355.697,-225.944,0,0
179992.1,363.469,-221.051,0,0
180252.425,372.394,-216.732,0,0
180512.75,381.561,-213.572,0,0
180773.075,390.814,-210.765,0,0
181033.4,400.171,-208.748,0,0
181293.725,409.456,-207.543,0,0
181554.05,418.441,-206.496,0,0
181814.375,427.737,-205.674,0,0
182074.7,437.294,-205.575,0,0
182335.025,446.62,-206.593,0,0
182595.35,455.397,-208.313,0,0
182855.675,463.581,-210.328,0,0
183116.0,471.239,-212.591,0,0
183376.325,478.307,-215.334,0,0
183636.65,484.42,-218.069,0,0
183896.975,489.869,-220.421,0,0
184157.3,494.736,-221.94,0,0
184417.625,500.015,-222.852,0,0
184677.95,505.425,-223.785,0,0
184938.275,510.716,-224.264,0,0
185198.6,516.87,-224.254,0,0
185458.925,523.262,-224.845,0,0
185719.25,529.455,-225.798,0,0
185979.575,535.365,-226.383,0,0
186239.9,541.976,-226.48,0,0
186500,549.114,-227.503,0,0
186761,555.62,-228.927,0,0
187021,561.912,-230.084,0,0
187281,568.297,-231.123,0,0
187542,574.696,-232.001,0,0
187802,581.367,-232.567,0,0
188062,588.741,-233.029,0,0
188322,596.887,-233.972,0,0
188583,605.251,-235.91,0,0
188843,613.315,-238.705,0,0
189103,620.589,-242.143,0,0
189364,626.932,-245.278,0,0
189624,632.943,-247.727,0,0
189884,639.158,-249.628,0,0
190145,645.507,-251.313,0,0
190405,652.067,-252.393,0,0
190665,659.267,-252.822,0,0
190926,668.044,-252.916,0,0
191186,678.43,-254.161,0,0
191446,689.036,-257.14,0,0
191707,698.961,-261.211,0,0
191967,708.219,-265.832,0,0
192227,716.811,-270.464,0,0
192488,724.847,-274.933,0,0
192748,732.08,-278.553,0,0
193008,740.144,-280.12,0,0
193269,750.591,-281.284,0,0
193529,762.874,-283.428,0,0
193789,776.385,-286.689,0,0
194050,791.001,-291.385,0,0
194310,806.4,-297.698,0,0
194570,822.144,-306.057,0,0
194831,837.605,-316.899,0,0
195091,851.741,-329.125,0,0
195351,865.084,-342.283,0,0
195612,878.13,-356.154,0,0
195872,891.205,-371.295,0,0
196132,903.376,-388.508,0,0
196393,913.962,-406.901,0,0
196653,923.223,-426.143,0,0
196913,931.161,-446.138,0,0
197174,937.63,-466.604,0,0
197434,943.085,-487.559,0,0
197694,947.103,-509.742,0,0
197955,948.776,-532.373,0,0
198215,948.259,-554.593,0,0
198475,946.252,-575.945,0,0
198735,943.077,-596.479,0,0
198996,939.336,-616.916,0,0
199256,934.676,-636.636,0,0
199516,929.475,-656.338,0,0
199777,922.962,-676.53,0,0
200037,914.101,-696.414,0,0
200297,903.42,-715.033,0,0
200558,891.564,-731.932,0,0
200818,879.135,-746.963,0,0
201078,866.983,-760.293,0,0
201339,855.515,-773.329,0,0
201599,843.813,-786.745,0,0
201859,830.969,-800.311,0,0
202120,816.446,-813.563,0,0
202380.025,799.292,-825.767,0,0
202640.35,780.633,-834.758,0,0
202900.675,762.009,-840.154,0,0
203161.0,745.196,-843.137,0,0
203421.325,729.774,-844.979,0,0
203681.65,715.938,-845.871,0,0
203941.975,703.342,-846.636,0,0
204202.3,691.323,-847.405,0,0
204462.625,679.992,-847.824,0,0
204722.95,669.125,-848.336,0,0
204983.275,658.28,-848.848,0,0
205243.6,647.188,-849.228,0,0
205503.925,635.887,-848.898,0,0
205764.25,624.33,-848,0,0
206024.575,612.759,-845.726,0,0
206284.9,601.454,-841.732,0,0
206545.225,591.591,-836.255,0,0
206805.55,583.65,-829.585,0,0
207065.875,577.92,-822.933,0,0
207326.2,573.883,-816.826,0,0
207586.525,570.929,-811.787,0,0
207846.85,568.95,-807.402,0,0
208107.175,567.735,-804.167,0,0
208367.5,566.772,-802.187,0,0
208627.825,565.401,-801.256,0,0
208888.15,563.3,-800.718,0,0
209148.475,560.812,-800.021,0,0
209408.8,558.289,-798.908,0,0
209669.125,555.978,-797.54,0,0
209929.45,554.298,-796.198,0,0
210189.775,553.218,-795.252,0,0
210450.1,552.263,-794.88,0,0
210710.425,551.301,-794.867,0,0
210970.75,550.271,-795.102,0,0
211231.075,549.264,-795.504,0,0
211491.4,548.2,-795.9,0,0
211751.725,547.466,-796.545,0,0
212012.05,546.858,-797.575,0,0
212272.375,546.183,-799.049,0,0
212532.7,545.456,-800.719,0,0
212793.025,544.621,-802.74,0,0
213053.35,543.564,-805.27,0,0
213313.675,542.306,-807.89,0,0
213574.0,540.835,-810.588,0,0
213834.325,539.133,-813.67,0,0
214094.65,537.11,-816.867,0,0
214354.975,534.626,-820.059,0,0
214615.3,532.041,-823.05,0,0
214875.625,529.374,-826.194,0,0
215135.95,526.307,-829.496,0,0
215396.275,523.072,-832.821,0,0
215656.6,519.386,-836.049,0,0
215916.925,515.433,-839.161,0,0
216177.25,511.022,-842.044,0,0
216437.575,506.559,-844.609,0,0
216697.9,501.944,-846.823,0,0
216958.225,497.365,-848.819,0,0
217218.55,492.861,-850.7,0,0
217478.875,488.369,-852.456,0,0
217739.2,483.875,-854.182,0,0
217999.525,479.23,-855.95,0,0
218259.85,474.419,-857.625,0,0
218520,469.445,-859.066,0,0
218780,464.309,-860.351,0,0
219041,459.179,-861.309,0,0
219301,454.112,-862.097,0,0
219561,449.027,-862.734,0,0
219822,443.891,-863.257,0,0
220082,438.683,-863.587,0,0
220342,433.36,-863.821,0,0
220603,427.805,-863.627,0,0
220863,422.332,-863.032,0,0
221123,416.955,-861.946,0,0
221384,411.76,-860.42,0,0
221644,407.029,-858.467,0,0
221904,402.836,-856.242,0,0
222165,399.169,-854.193,0,0
222425,395.767,-852.132,0,0
222685,392.633,-850.236,0,0
222946,389.724,-848.382,0,0
223206,386.969,-846.44,0,0
223466,384.604,-844.55,0,0
223727,382.616,-842.724,0,0
223987,380.918,-841.228,0,0
224247,379.434,-839.952,0,0
224508,378.085,-838.982,0,0
224768,376.919,-838.208,0,0
225028,375.989,-837.796,0,0
225289,375.238,-837.962,0,0
225549,374.281,-838.662,0,0
225809,372.95,-839.78,0,0
226070,371.205,-841.268,0,0
226330,369.112,-842.732,0,0
226590,366.598,-844.215,0,0
226851,363.889,-845.807,0,0
227111,360.797,-847.282,0,0
227371,357.427,-848.756,0,0
227632,353.741,-850.138,0,0
227892,349.706,-851.163,0,0
228152,345.603,-851.856,0,0
228413,341.511,-852.279,0,0
228673,337.501,-852.486,0,0
228933,333.556,-852.628,0,0
229193,329.792,-852.776,0,0
229454,325.937,-852.952,0,0
229714,322.03,-853.132,0,0
229974,317.997,-853.422,0,0
230235,313.822,-853.678,0,0
230495,309.313,-853.956,0,0
230755,304.491,-853.869,0,0
231016,299.71,-853.352,0,0
231276,294.917,-852.678,0,0
231536,290.162,-851.812,0,0
231797,285.439,-850.696,0,0
232057,280.784,-849.424,0,0
232317,276.223,-848.109,0,0
232578,271.635,-846.558,0,0
232838,267.087,-844.889,0,0
233098,262.574,-843.099,0,0
233359,258.074,-841.296,0,0
233619,253.501,-839.157,0,0
233879,248.994,-836.88,0,0
234140,244.605,-834.423,0,0
234400,240.258,-831.778,0,0
234660.3,235.87,-828.939,0,0
234920.625,231.715,-825.616,0,0
235180.95,227.82,-822.151,0,0
235441.275,224.188,-818.621,0,0
235701.6,220.806,-814.867,0,0
235961.925,217.707,-811.1,0,0
236222.25,214.812,-807.224,0,0
236482.575,212.217,-803.399,0,0
236742.9,209.858,-799.63,0,0
237003.225,207.702,-795.89,0,0
237263.55,205.7,-792.215,0,0
237523.875,203.866,-788.548,0,0
237784.2,202.177,-784.913,0,0
238044.525,200.627,-781.269,0,0
238304.85,199.286,-777.682,0,0
238565.175,198.098,-774.168,0,0
238825.5,197.289,-770.526,0,0
239085.825,196.734,-767.139,0,0
239346.15,196.438,-764.028,0,0
239606.475,196.307,-761.436,0,0
239866.8,196.111,-759,0,0
240127.125,195.899,-756.818,0,0
240387.45,195.494,-754.897,0,0
240647.775,195.033,-753.045,0,0
240908.1,194.523,-751.36,0,0
241168.425,193.875,-749.886,0,0
241428.75,192.911,-748.472,0,0
241689.075,191.798,-747.058,0,0
241949.4,190.496,-745.52,0,0
242209.725,189.092,-743.938,0,0
242470.05,187.544,-742.246,0,0
242730.375,185.878,-740.376,0,0
242990.7,184.305,-738.214,0,0
243251.025,182.875,-735.979,0,0
243511.35,181.522,-733.666,0,0
243771.675,180.228,-731.29,0,0
244032.0,179.059,-728.859,0,0
244292.325,178.072,-726.376,0,0
244552.65,177.217,-723.864,0,0
244812.975,176.6,-721.547,0,0
245073.3,175.86,-719.402,0,0
245333.625,175.124,-717.303,0,0
245593.95,174.28,-715.095,0,0
245854.275,173.483,-712.788,0,0
246114.6,172.887,-710.538,0,0
246374.925,172.359,-708.298,0,0
246635.25,171.97,-706.174,0,0
246895.575,171.619,-704.149,0,0
247155.9,171.18,-702.274,0,0
247416.225,170.616,-700.505,0,0
247676.55,169.947,-698.644,0,0
247936.875,169.242,-696.746,0,0
248197.2,168.496,-694.795,0,0
248457.525,167.715,-692.781,0,0
248717.85,167.036,-690.675,0,0
248978.175,166.377,-688.463,0,0
249238.5,165.757,-686.184,0,0
249498.825,165.241,-683.886,0,0
249759.15,164.79,-681.519,0,0
250019.475,164.363,-679.158,0,0
250279.8,164.077,-676.654,0,0
250540,163.881,-674.097,0,0
250800,163.865,-671.531,0,0
251061,164.091,-668.928,0,0
251321,164.54,-666.373,0,0
251581,165.211,-663.967,0,0
251842,166.063,-661.751,0,0
252102,167.087,-659.764,0,0
252362,168.098,-657.994,0,0
252623,169.229,-656.422,0,0
252883,170.331,-655.232,0,0
253143,171.233,-654.333,0,0
253404,171.906,-653.615,0,0
253664,172.347,-652.943,0,0
253924,172.559,-652.278,0,0
254185,172.622,-651.528,0,0
254445,172.545,-650.724,0,0
254705,172.426,-649.832,0,0
254966,172.283,-648.869,0,0
255226,172.097,-647.902,0,0
255486,171.705,-646.917,0,0
255747,171.304,-645.728,0,0
256007,170.895,-644.382,0,0
256267,170.585,-642.949,0,0
256528,170.261,-641.497,0,0
256788,169.918,-639.951,0,0
257048,169.625,-638.191,0,0
257309,169.519,-636.318,0,0
257569,169.529,-634.418,0,0
257829,169.693,-632.483,0,0
258090,169.999,-630.548,0,0
258350,170.452,-628.645,0,0
258610,171.013,-626.832,0,0
258871,171.611,-625.001,0,0
259131,172.382,-623.243,0,0
259391,173.26,-621.484,0,0
259651,174.26,-619.812,0,0
259912,175.409,-618.229,0,0
260172,176.611,-616.927,0,0
260432,177.792,-615.81,0,0
260693,178.857,-614.713,0,0
260953,179.864,-613.547,0,0
261213,181.014,-612.532,0,0
261474,182.122,-611.574,0,0
261734,183.307,-610.642,0,0
261994,184.608,-609.842,0,0
262255,185.856,-609.309,0,0
262515,186.926,-608.891,0,0
262775,187.737,-608.479,0,0
263036,188.506,-607.961,0,0
263296,189.282,-607.45,0,0
263556,189.971,-606.907,0,0
263817,190.509,-606.333,0,0
264077,191.01,-605.587,0,0
264337,191.51,-604.654,0,0
264598,192.109,-603.517,0,0
264858,192.905,-602.261,0,0
265118,193.805,-600.934,0,0
265379,194.982,-599.448,0,0
265639,196.316,-597.946,0,0
265899,197.938,-596.37,0,0
266160,199.879,-594.785,0,0
266420,202.202,-593.259,0,0
266680.25,204.973,-591.937,0,0
266940.575,207.966,-590.794,0,0
267200.9,211.345,-590.002,0,0
267461.225,215.051,-589.549,0,0
267721.55,218.981,-589.576,0,0
267981.875,223.137,-590.11,0,0
268242.2,227.387,-591.259,0,0
268502.525,231.584,-593.033,0,0
268762.85,235.624,-595.418,0,0
269023.175,239.398,-598.332,0,0
269283.5,242.824,-601.692,0,0
269543.825,245.905,-605.412,0,0
269804.15,248.657,-609.432,0,0
270064.475,251.066,-613.837,0,0
270324.8,253.189,-618.574,0,0
270585.125,254.838,-623.658,0,0
270845.45,255.961,-629.071,0,0
271105.775,256.585,-634.589,0,0
271366.1,256.533,-640.36,0,0
271626.425,255.905,-646.145,0,0
271886.75,254.692,-651.924,0,0
272147.075,252.858,-657.577,0,0
272407.4,250.466,-663.152,0,0
272667.725,247.485,-668.502,0,0
272928.05,244,-673.576,0,0
273188.375,239.9,-678.417,0,0
273448.7,235.212,-682.774,0,0
273709.025,230.148,-686.597,0,0
273969.35,224.667,-689.839,0,0
274229.675,218.965,-692.482,0,0
274490.0,213.007,-694.452,0,0
274750.325,207.057,-695.734,0,0
275010.65,201.084,-696.397,0,0
275270.975,195.394,-696.321,0,0
275531.3,189.894,-695.741,0,0
275791.625,184.837,-694.752,0,0
276051.95,180.108,-693.441,0,0
276312.275,175.814,-691.888,0,0
276572.6,171.814,-690.249,0,0
276832.925,168.078,-688.517,0,0
277093.25,164.545,-686.679,0,0
277353.575,161.241,-684.764,0,0
277613.9,158.185,-682.774,0,0
277874.225,155.331,-680.783,0,0
278134.55,152.636,-678.838,0,0
278394.875,150.006,-676.853,0,0
278655.2,147.442,-674.804,0,0
278915.525,144.967,-672.636,0,0
279175.85,142.632,-670.326,0,0
279436.175,140.563,-667.834,0,0
279696.5,138.682,-665.299,0,0
279956.825,137.15,-662.837,0,0
280217.15,135.816,-660.306,0,0
280477.475,134.682,-657.875,0,0
280737.8,133.79,-655.527,0,0
280998.125,133.033,-653.328,0,0
281258.45,132.474,-651.227,0,0
281518.775,132.041,-649.262,0,0
281779.1,131.697,-647.465,0,0
282039.425,131.441,-645.839,0,0
282299.75,131.214,-644.376,0,0
282560,131.059,-643.079,0,0
282820,130.799,-641.989,0,0
283081,130.45,-641.008,0,0
283341,129.943,-640.11,0,0
283601,129.327,-639.202,0,0
283862,128.639,-638.219,0,0
284122,127.911,-637.137,0,0
284382,127.199,-635.97,0,0
284643,126.57,-634.746,0,0
284903,125.935,-633.379,0,0
285163,125.488,-632.018,0,0
285424,125.192,-630.54,0,0
285684,125.116,-629.072,0,0
285944,125.286,-627.743,0,0
286205,125.645,-626.546,0,0
286465,126.176,-625.598,0,0
286725,126.816,-624.865,0,0
286986,127.505,-624.418,0,0
287246,128.258,-624.299,0,0
287506,128.953,-624.537,0,0
287767,129.489,-625.173,0,0
288027,129.707,-626.164,0,0
288287,129.487,-627.327,0,0
288548,128.793,-628.523,0,0
288808,127.795,-629.637,0,0
289068,126.505,-630.668,0,0
289329,124.976,-631.53,0,0
289589,123.191,-632.311,0,0
289849,121.146,-632.836,0,0
290109,118.961,-633.085,0,0
290370,116.707,-632.99,0,0
290630,114.501,-632.662,0,0
290890,112.372,-632.118,0,0
291151,110.341,-631.468,0,0
291411,108.383,-630.708,0,0
291671,106.481,-629.876,0,0
291932,104.617,-628.985,0,0
292192,102.773,-628.035,0,0
292452,100.933,-626.995,0,0
292713,99.1235,-625.861,0,0
292973,97.4342,-624.6,0,0
293233,95.785,-623.334,0,0
293494,94.2118,-621.981,0,0
293754,92.6986,-620.615,0,0
294014,91.211,-619.226,0,0
294275,89.7055,-617.778,0,0
294535,88.2984,-616.217,0,0
294795,86.9258,-614.642,0,0
295056,85.6687,-612.991,0,0
295316,84.4924,-611.329,0,0
295576,83.4236,-609.595,0,0
295837,82.4381,-607.917,0,0
296097,81.5148,-606.255,0,0
296357,80.6876,-604.607,0,0
296618,79.8924,-603.018,0,0
296878,79.1086,-601.457,0,0
297138,78.3192,-599.887,0,0
297399,77.5612,-598.328,0,0
297659,76.8142,-596.722,0,0
297919,76.0975,-595.125,0,0
298180,75.4353,-593.499,0,0
298440,74.8144,-591.856,0,0
298700.2,74.2459,-590.223,0,0
298960.525,73.6979,-588.574,0,0
299220.85,73.2061,-586.927,0,0
299481.175,72.7622,-585.288,0,0
299741.5,72.339,-583.608,0,0
300001.825,71.9933,-581.918,0,0
300262.15,71.6853,-580.26,0,0
300522.475,71.4684,-578.553,0,0
300782.8,71.3358,-576.882,0,0
301043.125,71.2754,-575.248,0,0
301303.45,71.291,-573.642,0,0
301563.775,71.367,-572.087,0,0
301824.1,71.4872,-570.591,0,0
302084.425,71.6649,-569.178,0,0
302344.75,71.8597,-567.814,0,0
302605.075,72.0854,-566.503,0,0
302865.4,72.3277,-565.257,0,0
303125.725,72.5909,-564.054,0,0
303386.05,72.8643,-562.892,0,0
303646.375,73.1506,-561.812,0,0
303906.7,73.4574,-560.777,0,0
304167.025,73.763,-559.804,0,0
304427.35,74.0463,-558.871,0,0
304687.675,74.3379,-557.99,0,0
304948.0,74.6152,-557.14,0,0
305208.325,74.8666,-556.326,0,0
305468.65,75.1588,-555.55,0,0
305728.975,75.4399,-554.795,0,0
305989.3,75.6998,-554.139,0,0
306249.625,75.9597,-553.509,0,0
306509.95,76.1715,-552.935,0,0
306770.275,76.3679,-552.391,0,0
307030.6,76.5312,-551.87,0,0
307290.925,76.6682,-551.379,0,0
307551.25,76.7978,-550.888,0,0
307811.575,76.9354,-550.439,0,0
308071.9,77.0605,-550.03,0,0
308332.225,77.1621,-549.703,0,0
308592.55,77.221,-549.459,0,0
308852.875,77.1987,-549.258,0,0
309113.2,77.047,-549.087,0,0
309373.525,76.7935,-548.891,0,0
309633.85,76.4713,-548.658,0,0
309894.175,76.1056,-548.37,0,0
310154.5,75.7088,-548.013,0,0
310414.825,75.3112,-547.604,0,0
310675.15,74.9111,-547.164,0,0
310935.475,74.5059,-546.728,0,0
311195.8,74.1027,-546.233,0,0
311456.125,73.7057,-545.734,0,0
311716.45,73.3272,-545.24,0,0
311976.775,72.9516,-544.747,0,0
312237.1,72.5576,-544.24,0,0
312497.425,72.1525,-543.748,0,0
312757.75,71.7426,-543.255,0,0
313018.075,71.2951,-542.774,0,0
313278.4,70.8152,-542.275,0,0
313538.725,70.3231,-541.765,0,0
313799.05,69.8034,-541.21,0,0
314059.375,69.26,-540.62,0,0
314319.7,68.7103,-540.021,0,0
314580,68.1157,-539.345,0,0
314840,67.643,-538.673,0,0
315101,67.1585,-537.941,0,0
315361,66.6021,-537.183,0,0
315621,66.104,-536.442,0,0
315882,65.6218,-535.65,0,0
316142,65.1296,-534.817,0,0
316402,64.7414,-534.004,0,0
316663,64.3957,-533.162,0,0
316923,64.0442,-532.261,0,0
317183,63.7632,-531.338,0,0
317444,63.4734,-530.523,0,0
317704,63.2582,-529.73,0,0
317964,62.9627,-528.91,0,0
318225,62.777,-528.165,0,0
318485,62.5138,-527.399,0,0
318745,62.3831,-526.589,0,0
319006,62.1983,-525.764,0,0
319266,62.0688,-525.023,0,0
319526,61.961,-524.241,0,0
319787,61.8659,-523.604,0,0
320047,61.8303,-523.033,0,0
320307,61.7729,-522.493,0,0
320567,61.6216,-521.945,0,0
320828,61.5028,-521.415,0,0
321088,61.2748,-520.966,0,0
321348,61.0529,-520.523,0,0
321609,60.7699,-520.003,0,0
321869,60.5364,-519.56,0,0
322129,60.2281,-519.139,0,0
322390,59.8732,-518.618,0,0
322650,59.5595,-518.131,0,0
322910,59.1603,-517.652,0,0
323171,58.7579,-517.223,0,0
323431,58.4004,-516.712,0,0
323691,57.9487,-516.27,0,0
323952,57.5213,-515.738,0,0
324212,57.0042,-515.248,0,0
324472,56.4677,-514.653,0,0
324733,55.8744,-514.12,0,0
324993,55.3811,-513.472,0,0
325253,54.7774,-512.796,0,0
325514,54.2154,-512.115,0,0
325774,53.6883,-511.423,0,0
326034,53.165,-510.65,0,0
326295,52.6309,-509.787,0,0
326555,52.2141,-508.995,0,0
326815,51.7413,-508.165,0,0
327076,51.2487,-507.284,0,0
327336,50.8747,-506.498,0,0
327596,50.5021,-505.67,0,0
327857,50.0721,-504.816,0,0
328117,49.7393,-503.972,0,0
328377,49.3517,-503.133,0,0
328638,49.0012,-502.278,0,0
328898,48.6896,-501.502,0,0
329158,48.3109,-500.63,0,0
329419,48.0557,-499.77,0,0
329679,47.7067,-498.887,0,0
329939,47.4397,-498.031,0,0
330200,47.0831,-497.105,0,0
330460,46.8492,-496.219,0,0
330720.15,46.5277,-495.345,0,0
330980.475,46.2987,-494.51,0,0
331240.8,46.0375,-493.643,0,0
331501.125,45.8228,-492.817,0,0
331761.45,45.6271,-491.878,0,0
332021.775,45.3294,-490.977,0,0
332282.1,45.1454,-490.123,0,0
332542.425,44.958,-489.229,0,0
332802.75,44.755,-488.33,0,0
333063.075,44.5984,-487.438,0,0
333323.4,44.4726,-486.522,0,0
333583.725,44.3204,-485.611,0,0
333844.05,44.2471,-484.765,0,0
334104.375,44.1612,-483.809,0,0
334364.7,44.1124,-483.028,0,0
334625.025,44.0248,-482.159,0,0
334885.35,44.0201,-481.338,0,0
335145.675,44.0138,-480.514,0,0
335406.0,43.9319,-479.746,0,0
335666.325,43.964,-478.984,0,0
335926.65,43.9728,-478.299,0,0
336186.975,43.9383,-477.529,0,0
336447.3,43.9011,-476.825,0,0
336707.625,43.8975,-476.101,0,0
336967.95,43.8229,-475.415,0,0
337228.275,43.7379,-474.691,0,0
337488.6,43.7753,-474.052,0,0
337748.925,43.739,-473.407,0,0
338009.25,43.6317,-472.746,0,0
338269.575,43.6596,-472.106,0,0
338529.9,43.5648,-471.448,0,0
338790.225,43.4318,-470.791,0,0
339050.55,43.3645,-470.177,0,0
339310.875,43.271,-469.576,0,0
339571.2,43.1173,-468.905,0,0
339831.525,43.023,-468.302,0,0
340091.85,42.8731,-467.677,0,0
340352.175,42.7418,-467.056,0,0
340612.5,42.6107,-466.419,0,0
340872.825,42.4163,-465.819,0,0
341133.15,42.2066,-465.117,0,0
341393.475,41.9827,-464.524,0,0
341653.8,41.801,-463.751,0,0
341914.125,41.633,-462.996,0,0
342174.45,41.4008,-462.304,0,0
342434.775,41.2269,-461.594,0,0
342695.1,41.0791,-460.768,0,0
342955.425,40.9384,-460.054,0,0
343215.75,40.8417,-459.333,0,0
343476.075,40.7423,-458.532,0,0
343736.4,40.5811,-457.808,0,0
343996.725,40.4024,-456.997,0,0
344257.05,40.3287,-456.216,0,0
344517.375,40.2681,-455.413,0,0
344777.7,40.1542,-454.684,0,0
345038.025,40.0506,-453.839,0,0
345298.35,39.9826,-453.079,0,0
345558.675,39.8766,-452.236,0,0
345819.0,39.8295,-451.422,0,0
346079.325,39.8296,-450.638,0,0
346339.65,39.7876,-449.821,0,0
346599.975,39.7867,-449.01,0,0
346860,39.7955,-448.191,0,0
347121,39.8512,-447.366,0,0
347381,39.8948,-446.618,0,0
347641,39.9515,-445.787,0,0
347902,40.0189,-445.029,0,0
348162,40.1235,-444.312,0,0
348422,40.2038,-443.531,0,0
348683,40.2869,-442.799,0,0
348943,40.3477,-442.08,0,0
349203,40.4874,-441.369,0,0
349464,40.5896,-440.616,0,0
349724,40.6907,-439.919,0,0
349984,40.8011,-439.196,0,0
350245,40.9651,-438.451,0,0
350505,41.1241,-437.785,0,0
350765,41.3006,-437.139,0,0
351025,41.4226,-436.491,0,0
351286,41.6003,-435.811,0,0
351546,41.7777,-435.187,0,0
351806,41.9724,-434.565,0,0
352067,42.0953,-434.006,0,0
352327,42.2811,-433.394,0,0
352587,42.469,-432.822,0,0
352848,42.6333,-432.268,0,0
353108,42.7541,-431.749,0,0
353368,42.9242,-431.202,0,0
353629,43.0808,-430.663,0,0
353889,43.2097,-430.193,0,0
354149,43.3288,-429.669,0,0
354410,43.4101,-429.163,0,0
354670,43.5268,-428.633,0,0
354930,43.6138,-428.151,0,0
355191,43.7301,-427.642,0,0
355451,43.8237,-427.133,0,0
355711,43.9182,-426.676,0,0
355972,44.0262,-426.127,0,0
356232,44.166,-425.701,0,0
356492,44.2126,-425.207,0,0
356753,44.2669,-424.724,0,0
357013,44.3081,-424.339,0,0
357273,44.3876,-423.804,0,0
357534,44.4282,-423.345,0,0
357794,44.4516,-422.865,0,0
358054,44.4659,-422.371,0,0
358315,44.512,-421.845,0,0
358575,44.5571,-421.349,0,0
358835,44.5969,-420.846,0,0
359096,44.6587,-420.311,0,0
359356,44.6927,-419.842,0,0
359616,44.7523,-419.331,0,0
359877,44.8077,-418.846,0,0
360137,44.8397,-418.352,0,0
360397,44.9289,-417.863,0,0
360658,44.9805,-417.348,0,0
360918,45.0164,-416.856,0,0
361178,45.0681,-416.426,0,0
361438,45.1157,-415.927,0,0
361699,45.2097,-415.433,0,0
361959,45.1997,-414.94,0,0
362219,45.2817,-414.472,0,0
362480,45.3371,-413.997,0,0
362740.1,45.3611,-413.494,0,0
363000.425,45.4671,-412.999,0,0
363260.75,45.5223,-412.53,0,0
363521.075,45.5897,-412.044,0,0
363781.4,45.6375,-411.555,0,0
364041.725,45.7133,-411.072,0,0
364302.05,45.7696,-410.627,0,0
364562.375,45.7752,-410.124,0,0
364822.7,45.8292,-409.646,0,0
365083.025,45.9201,-409.149,0,0
365343.35,45.9737,-408.618,0,0
365603.675,46.1073,-408.189,0,0
365864.0,46.179,-407.735,0,0
366124.325,46.2848,-407.264,0,0
366384.65,46.3533,-406.809,0,0
366644.975,46.4149,-406.383,0,0
366905.3,46.4333,-405.888,0,0
367165.625,46.5205,-405.492,0,0
367425.95,46.6029,-405.023,0,0
367686.275,46.6694,-404.554,0,0
367946.6,46.6631,-404.111,0,0
368206.925,46.7522,-403.63,0,0
368467.25,46.8089,-403.139,0,0
368727.575,46.8725,-402.636,0,0
368987.9,46.9491,-402.133,0,0
369248.225,47.1109,-401.614,0,0
369508.55,47.2437,-401.104,0,0
369768.875,47.4019,-400.632,0,0
370029.2,47.6304,-400.178,0,0
370289.525,47.851,-399.761,0,0
370549.85,48.0439,-399.333,0,0
370810.175,48.2723,-399.019,0,0
371070.5,48.5359,-398.666,0,0
371330.825,48.6948,-398.361,0,0
371591.15,48.8958,-398.094,0,0
371851.475,49.0192,-397.884,0,0
372111.8,49.12,-397.625,0,0
372372.125,49.23,-397.386,0,0
372632.45,49.3163,-397.19,0,0
372892.775,49.3637,-396.957,0,0
373153.1,49.3582,-396.753,0,0
373413.425,49.3694,-396.506,0,0
373673.75,49.3274,-396.29,0,0
373934.075,49.3114,-396.041,0,0
374194.4,49.2474,-395.794,0,0
374454.725,49.1708,-395.48,0,0
374715.05,49.0638,-395.175,0,0
374975.375,48.9799,-394.882,0,0
375235.7,48.8893,-394.53,0,0
375496.025,48.7816,-394.165,0,0
375756.35,48.7017,-393.745,0,0
376016.675,48.6207,-393.32,0,0
376277.0,48.6156,-392.909,0,0
376537.325,48.6172,-392.511,0,0
376797.65,48.6618,-392.073,0,0
377057.975,48.7021,-391.7,0,0
377318.3,48.7643,-391.37,0,0
377578.625,48.8583,-391.061,0,0
377838.95,48.8579,-390.778,0,0
378099.275,48.8903,-390.53,0,0
378359.6,48.8287,-390.283,0,0
378619.925,48.7326,-390.082,0,0
378880,48.6258,-389.826,0,0
379141,48.4551,-389.528,0,0
379401,48.2587,-389.166,0,0
379661,48.1213,-388.763,0,0
379922,47.9475,-388.312,0,0
380182,47.8438,-387.812,0,0
380442,47.8094,-387.326,0,0
380703,47.8474,-386.8,0,0
380963,47.9488,-386.358,0,0
381223,48.0567,-385.964,0,0
381483,48.1924,-385.663,0,0
381744,48.2941,-385.437,0,0
382004,48.3375,-385.24,0,0
382264,48.3772,-385.121,0,0
382525,48.2994,-384.94,0,0
382785,48.1943,-384.727,0,0
383045,48.0005,-384.602,0,0
383306,47.8037,-384.405,0,0
383566,47.5849,-384.152,0,0
383826,47.3619,-383.9,0,0
384087,47.0597,-383.609,0,0
384347,46.7533,-383.286,0,0
384607,46.506,-382.936,0,0
384868,46.1948,-382.549,0,0
385128,45.8642,-382.164,0,0
385388,45.561,-381.731,0,0
385649,45.3362,-381.249,0,0
385909,45.0562,-380.772,0,0
386169,44.7793,-380.246,0,0
386430,44.568,-379.698,0,0
386690,44.3111,-379.173,0,0
386950,44.0723,-378.617,0,0
387211,43.9119,-378.032,0,0
387471,43.7029,-377.453,0,0
387731,43.5395,-376.822,0,0
387992,43.3838,-376.186,0,0
388252,43.2641,-375.605,0,0
388512,43.1389,-374.964,0,0
388773,43.0652,-374.306,0,0
389033,43.0073,-373.703,0,0
389293,42.9512,-373.071,0,0
389554,42.9568,-372.483,0,0
389814,42.9746,-371.852,0,0
390074,42.9805,-371.306,0,0
390335,42.9564,-370.769,0,0
390595,42.9668,-370.226,0,0
390855,42.9948,-369.713,0,0
391116,42.9803,-369.187,0,0
391376,42.9791,-368.663,0,0
391636,42.9588,-368.162,0,0
391896,42.9811,-367.646,0,0
392157,42.9487,-367.136,0,0
392417,42.9203,-366.606,0,0
392677,42.9126,-366.118,0,0
392938,42.8667,-365.601,0,0
393198,42.8119,-365.038,0,0
393458,42.8034,-364.536,0,0
393719,42.7768,-363.984,0,0
393979,42.7563,-363.454,0,0
394239,42.727,-362.873,0,0
394500,42.6945,-362.347,0,0
394760.05,42.7069,-361.73,0,0
395020.375,42.7094,-361.148,0,0
395280.7,42.7313,-360.588,0,0
395541.025,42.7488,-360.014,0,0
395801.35,42.7739,-359.431,0,0
396061.675,42.8531,-358.861,0,0
396322.0,42.925,-358.287,0,0
396582.325,43.0064,-357.749,0,0
396842.65,43.0856,-357.223,0,0
397102.975,43.1584,-356.704,0,0
397363.3,43.2324,-356.161,0,0
397623.625,43.3153,-355.658,0,0
397883.95,43.3614,-355.135,0,0
398144.275,43.4442,-354.631,0,0
398404.6,43.5109,-354.106,0,0
398664.925,43.5709,-353.629,0,0
398925.25,43.6755,-353.132,0,0
399185.575,43.7212,-352.635,0,0
399445.9,43.7929,-352.139,0,0
399706.225,43.8555,-351.621,0,0
399966.55,43.9146,-351.141,0,0
400006.6,43.941,-351.056,0,0