File: Accelerated corrosion test data/2025-10-17_06-53-44/sample_1.csv
Frequency (Hz),Impedance (ohms),Phase (Radians),Temperature (C),Humidity (%)
10000.0,240.437,-12216.7,0,0
10260.325,239.86,-11901.6,0,0
10520.65,230.072,-11622.3,0,0
10780.975,226.551,-11337.6,0,0
11041.3,219.728,-11077.6,0,0
11301.625,214.1,-10820.3,0,0
11561.95,210.967,-10576.2,0,0
11822.275,208.039,-10337.3,0,0
12082.6,227.288,-10106.8,0,0
12342.925,211.362,-9932.7,0,0
12603.25,194.951,-9719.2,0,0
12863.575,191.182,-9517.11,0,0
13123.9,201.397,-9324.09,0,0
13384.225,185.211,-9154.33,0,0
13644.55,180.733,-8972.31,0,0
13904.875,181.736,-8794.78,0,0
14165.2,192.776,-8660.28,0,0
14425.525,211.008,-8488.88,0,0
14685.8,201.009,-8325.68,0,0
14946.175,177.625,-8225.74,0,0
15206.5,185.64,-8060.5,0,0
15466.825,174.52,-7948.05,0,0
15727.15,172.341,-7813.16,0,0
15987.5,160.436,-7685.9,0,0
16247.8,157.382,-7559.26,0,0
16508.125,155.563,-7436.23,0,0
16768.45,158.886,-7318.36,0,0
17028.775,163.299,-7210.27,0,0
17289.1,154.642,-7107.77,0,0
17549.425,152.395,-7005.1,0,0
17809.75,146.706,-6900.05,0,0
18070.075,149.435,-6799.83,0,0
18330.4,142.557,-6703.83,0,0
18590.725,137.7,-6610.1,0,0
18851.05,138.843,-6511.48,0,0
19111.375,135.65,-6430.87,0,0
19371.7,133.165,-6338.44,0,0
19632.025,132.043,-6249.51,0,0
19892.35,136.974,-6162.79,0,0
20152.675,135.353,-6076.48,0,0
20413.0,155.323,-5987.08,0,0
20673.3,167.78,-5945.89,0,0
20933.65,149.449,-5877.65,0,0
21193.975,162.382,-5814.32,0,0
21454.3,140.952,-5742.74,0,0
21714.625,136.157,-5669.42,0,0
21974.9,139.479,-5588.37,0,0
22235.275,173.346,-5543.33,0,0
22495.6,141.951,-5504.62,0,0
22755.925,127.088,-5434.59,0,0
23016.25,122.637,-5367.24,0,0
23276.6,119.063,-5305.73,0,0
23536.9,115.86,-5244.84,0,0
23797.225,112.458,-5183.87,0,0
24057.55,114.914,-5123.15,0,0
24317.875,112.534,-5075.15,0,0
24578.2,110.934,-5014.92,0,0
24838.525,110.988,-4964.33,0,0
25098.85,110.468,-4910.68,0,0
25359.175,106.047,-4861.29,0,0
25619.5,104.939,-4809.57,0,0
25879.8,103.669,-4758.83,0,0
26140.1,103.514,-4709.18,0,0
26400.5,102.834,-4659.42,0,0
26660.8,105.005,-4609.04,0,0
26921.1,114.555,-4560.82,0,0
27181.4,121.934,-4528.98,0,0
27441.8,111.149,-4494.51,0,0
27702.1,103.72,-4445.5,0,0
27962.4,110.388,-4395.09,0,0
28222.7,110.438,-4356.88,0,0
28483.1,120.875,-4314.01,0,0
28743.4,130.366,-4295.17,0,0
29003.7,117.76,-4257.94,0,0
29264,119.282,-4224.39,0,0
29524.4,107.983,-4191.35,0,0
29784.7,105.438,-4148.81,0,0
30045,102.322,-4116.58,0,0
30305.3,99.9887,-4077.93,0,0
30565.7,97.4852,-4039.41,0,0
30826,100.617,-4003.52,0,0
31086.3,104.115,-3975.28,0,0
31346.6,100.593,-3946.05,0,0
31607,94.111,-3909.04,0,0
31867.3,98.2722,-3876.29,0,0
32127.6,97.8889,-3845.5,0,0
32387.9,98.1454,-3818.51,0,0
32648.3,93.6934,-3787.02,0,0
32908.6,95.9251,-3758.53,0,0
33168.9,90.979,-3730.58,0,0
33429.2,89.1081,-3701.51,0,0
33689.6,86.2888,-3671.97,0,0
33949.9,85.3826,-3640.78,0,0
34210.2,86.7804,-3614.24,0,0
34470.5,83.617,-3587.52,0,0
34730.9,82.055,-3559.51,0,0
34991.2,81.5338,-3532.55,0,0
35251.5,80.34,-3505.72,0,0
35511.8,79.7068,-3479.2,0,0
35772.2,79.335,-3453.71,0,0
36032.5,77.9101,-3428.26,0,0
36292.8,77.2629,-3402.87,0,0
36553.1,76.6445,-3378.05,0,0
36813.5,76.1892,-3353.28,0,0
37073.8,76.1884,-3329.48,0,0
37334.1,75.6062,-3305.87,0,0
37594.4,75.2357,-3282.38,0,0
37854.8,74.4759,-3260.03,0,0
38115.1,73.4789,-3236.89,0,0
38375.4,73.3627,-3213.97,0,0
38635.7,73.3131,-3192.08,0,0
38896.1,72.3237,-3170.19,0,0
39156.4,72.5216,-3148.05,0,0
39416.7,72.3299,-3127.69,0,0
39677,71.4498,-3106.63,0,0
39937.4,71.2823,-3085.29,0,0
40197.7,71.4133,-3064.76,0,0
40458,71.029,-3044.66,0,0
40718.3,70.9895,-3023.79,0,0
40978.7,72.5113,-3004.41,0,0
41239,72.3174,-2986.28,0,0
41499.3,71.6815,-2968.32,0,0
41759.6,71.2197,-2949.3,0,0
42020,70.6117,-2930.54,0,0
42280.275,70.1903,-2912.29,0,0
42540.6,70.7799,-2894.18,0,0
42800.925,69.9129,-2877.17,0,0
43061.25,69.5255,-2859.12,0,0
43321.575,69.2304,-2841.94,0,0
43581.9,68.683,-2824.49,0,0
43842.225,67.8164,-2807.31,0,0
44102.55,68.0842,-2789.52,0,0
44362.875,69.2954,-2772.54,0,0
44623.2,69.5188,-2757.27,0,0
44883.525,68.6337,-2741.63,0,0
45143.85,68.1406,-2725.52,0,0
45404.175,68.8701,-2709.64,0,0
45664.5,67.6837,-2695.17,0,0
45924.825,66.8089,-2679.57,0,0
46185.15,66.3996,-2664.18,0,0
46445.475,65.4705,-2648.99,0,0
46705.8,65.2921,-2633.54,0,0
46966.125,64.9774,-2618.91,0,0
47226.45,64.5778,-2603.87,0,0
47486.775,64.5099,-2589.38,0,0
47747.1,64.0582,-2575.35,0,0
48007.425,63.5057,-2560.97,0,0
48267.75,63.5433,-2546.9,0,0
48528.075,62.4589,-2533.71,0,0
48788.4,61.6471,-2519.07,0,0
49048.725,61.6741,-2504.96,0,0
49309.05,61.6415,-2491.26,0,0
49569.375,61.3575,-2478.08,0,0
49829.7,60.967,-2465.08,0,0
50090.025,60.1482,-2451.82,0,0
50350.35,59.6124,-2438.48,0,0
50610.675,59.4097,-2425.14,0,0
50871.0,59.4692,-2412.3,0,0
51131.325,59.3742,-2399.48,0,0
51391.65,59.3649,-2387.24,0,0
51651.975,58.7107,-2374.79,0,0
51912.3,58.5194,-2362.14,0,0
52172.625,58.2448,-2349.99,0,0
52432.95,58.1108,-2337.86,0,0
52693.275,57.8839,-2325.82,0,0
52953.6,57.7659,-2313.73,0,0
53213.925,57.7349,-2302.13,0,0
53474.25,57.4679,-2290.77,0,0
53734.575,57.3326,-2279.09,0,0
53994.9,57.2495,-2267.89,0,0
54255.225,56.8039,-2256.74,0,0
54515.55,56.3074,-2245.42,0,0
54775.875,56.0192,-2234.17,0,0
55036.2,55.8819,-2222.92,0,0
55296.525,55.9986,-2211.97,0,0
55556.85,55.7922,-2201.42,0,0
55817.175,55.6093,-2190.79,0,0
56077.5,55.1377,-2180.01,0,0
56337.825,54.8575,-2169.27,0,0
56598.15,54.832,-2158.57,0,0
56858.475,54.8448,-2148.17,0,0
57118.8,54.806,-2138.02,0,0
57379.125,54.5806,-2127.75,0,0
57639.45,54.7189,-2117.49,0,0
57899.775,54.5401,-2107.56,0,0
58160.1,54.6633,-2097.59,0,0
58420.4,54.5349,-2087.89,0,0
58680.7,54.3741,-2078.13,0,0
58941.1,54.2576,-2068.26,0,0
59201.4,54.5498,-2058.71,0,0
59461.7,54.5047,-2049.62,0,0
59722,54.2161,-2040.26,0,0
59982.4,54.1908,-2030.81,0,0
60242.7,54.0989,-2021.55,0,0
60503,54.2516,-2012.36,0,0
60763.3,54.6133,-2003.67,0,0
61023.7,54.0764,-1995.21,0,0
61284,53.5747,-1986.23,0,0
61544.3,53.2567,-1977.21,0,0
61804.6,53.3927,-1968.2,0,0
62065,53.2092,-1959.86,0,0
62325.3,52.7991,-1950.91,0,0
62585.6,52.5049,-1942.08,0,0
62845.9,52.4942,-1933.37,0,0
63106.3,52.5639,-1924.68,0,0
63366.6,52.5027,-1916.22,0,0
63626.9,52.5177,-1907.63,0,0
63887.2,52.4882,-1899.2,0,0
64147.6,52.5484,-1890.82,0,0
64407.9,52.7301,-1882.37,0,0
64668.2,52.9731,-1874.13,0,0
64928.5,53.5221,-1865.85,0,0
65188.9,54.0096,-1857.98,0,0
65449.2,54.6814,-1850.29,0,0
65709.5,55.2738,-1843.26,0,0
65969.8,55.1671,-1836.31,0,0
66230.2,54.9735,-1828.95,0,0
66490.5,54.8473,-1821.53,0,0
66750.8,54.789,-1814.43,0,0
67011.1,54.2429,-1807.31,0,0
67271.5,53.71,-1799.62,0,0
67531.8,53.8824,-1792.11,0,0
67792.1,54.6307,-1784.93,0,0
68052.4,54.3793,-1778.72,0,0
68312.8,53.2532,-1771.39,0,0
68573.1,53.2893,-1763.98,0,0
68833.4,53.4834,-1756.84,0,0
69093.7,53.2616,-1750.3,0,0
69354.1,52.9656,-1743.46,0,0
69614.4,52.8278,-1736.79,0,0
69874.7,52.1732,-1729.9,0,0
70135,51.8488,-1723.12,0,0
70395.4,51.227,-1716.4,0,0
70655.7,50.8421,-1709.14,0,0
70916,50.5542,-1702.29,0,0
71176.3,50.4024,-1695.49,0,0
71436.7,50.244,-1688.74,0,0
71697,49.8407,-1682.26,0,0
71957.3,49.3799,-1675.43,0,0
72217.6,48.7875,-1668.64,0,0
72478,48.5487,-1661.69,0,0
72738.3,48.4075,-1654.75,0,0
72998.6,48.4476,-1647.9,0,0
73258.9,48.4946,-1641.42,0,0
73519.3,48.403,-1635,0,0
73779.6,48.1421,-1628.13,0,0
74039.9,48.1302,-1621.5,0,0
74300.225,48.1812,-1615.07,0,0
74560.55,48.1734,-1608.55,0,0
74820.875,48.3954,-1602.05,0,0
75081.2,48.5823,-1595.84,0,0
75341.525,48.6076,-1589.67,0,0
75601.85,48.6417,-1583.46,0,0
75862.175,48.667,-1577.06,0,0
76122.5,48.9777,-1570.92,0,0
76382.825,49.2666,-1564.78,0,0
76643.15,49.5335,-1558.93,0,0
76903.475,49.6884,-1552.91,0,0
77163.8,49.8894,-1547.04,0,0
77424.125,50.0929,-1541.26,0,0
77684.45,50.3137,-1535.41,0,0
77944.775,50.4831,-1529.57,0,0
78205.1,50.7907,-1523.75,0,0
78465.425,51.4193,-1518.12,0,0
78725.75,51.8585,-1512.97,0,0
78986.075,51.9494,-1507.84,0,0
79246.4,52.054,-1502.71,0,0
79506.725,51.751,-1497.56,0,0
79767.05,51.4259,-1492.15,0,0
80027.375,51.3668,-1486.65,0,0
80287.7,51.211,-1481.4,0,0
80548.025,50.7898,-1475.93,0,0
80808.35,50.6393,-1470.32,0,0
81068.675,50.4685,-1464.71,0,0
81329.0,50.4834,-1458.97,0,0
81589.325,50.5924,-1453.48,0,0
81849.65,50.8047,-1447.99,0,0
82109.975,50.9587,-1442.67,0,0
82370.3,51.1457,-1437.31,0,0
82630.625,51.217,-1432.1,0,0
82890.95,51.2611,-1426.65,0,0
83151.275,51.587,-1421.25,0,0
83411.6,51.8663,-1416.07,0,0
83671.925,52.0187,-1410.85,0,0
83932.25,52.2684,-1405.62,0,0
84192.575,52.6174,-1400.47,0,0
84452.9,53.0471,-1395.35,0,0
84713.225,53.3934,-1390.28,0,0
84973.55,53.8159,-1385.27,0,0
85233.875,54.3969,-1380.33,0,0
85494.2,54.921,-1375.69,0,0
85754.525,55.2464,-1371.06,0,0
86014.85,55.4564,-1366.47,0,0
86275.175,55.659,-1361.89,0,0
86535.5,55.7839,-1357.17,0,0
86795.825,55.8876,-1352.69,0,0
87056.15,55.963,-1347.83,0,0
87316.475,56.5078,-1342.94,0,0
87576.8,56.4096,-1338.76,0,0
87837.125,56.3983,-1334.16,0,0
88097.45,56.2292,-1329.33,0,0
88357.775,56.2085,-1324.22,0,0
88618.1,56.6432,-1319,0,0
88878.425,57.1531,-1314.32,0,0
89138.75,57.4374,-1309.41,0,0
89399.075,58.0564,-1304.37,0,0
89659.4,58.6893,-1299.66,0,0
89919.725,59.4605,-1295.08,0,0
90180,60.312,-1290.64,0,0
90440.4,60.9216,-1286.01,0,0
90700.7,61.4819,-1281.24,0,0
90961,62.4137,-1276.46,0,0
91221.3,63.8017,-1272.01,0,0
91481.7,65.3639,-1267.91,0,0
91742,66.6448,-1263.78,0,0
92002.3,67.6143,-1260.16,0,0
92262.6,68.8135,-1256.25,0,0
92523,70.0711,-1252.36,0,0
92783.3,72.0114,-1248.7,0,0
93043.6,73.8119,-1245.97,0,0
93303.9,74.9454,-1243.32,0,0
93564.3,76.6054,-1240.51,0,0
93824.6,78.9538,-1239.22,0,0
94084.9,79.3045,-1239.95,0,0
94345.2,76.7326,-1239.64,0,0
94605.6,73.9288,-1236.44,0,0
94865.9,72.7449,-1233.1,0,0
95126.2,70.9,-1229.82,0,0
95386.5,69.633,-1225.8,0,0
95646.9,68.342,-1221.98,0,0
95907.2,67.1062,-1217.64,0,0
96167.5,66.4011,-1213.03,0,0
96427.8,66.4836,-1208.62,0,0
96688.2,66.2876,-1205.05,0,0
96948.5,65.6243,-1201.27,0,0
97208.8,64.9603,-1197.06,0,0
97469.1,64.5298,-1192.95,0,0
97729.5,64.2062,-1188.78,0,0
97989.8,64.0727,-1184.72,0,0
98250.1,64.126,-1180.45,0,0
98510.4,64.2958,-1176.62,0,0
98770.8,64.2336,-1172.89,0,0
99031.1,63.9517,-1169.11,0,0
99291.4,63.7995,-1165.12,0,0
99551.7,63.5534,-1161.19,0,0
99812.1,63.3829,-1157.05,0,0
100072,63.3571,-1153,0,0
100333,63.2971,-1148.97,0,0
100593,63.2783,-1144.79,0,0
100853,63.3663,-1140.81,0,0
101114,63.3841,-1136.79,0,0
101374,63.3803,-1132.85,0,0
101634,63.2366,-1128.71,0,0
101895,63.1763,-1124.42,0,0
102155,63.1936,-1119.83,0,0
102415,63.5836,-1115.17,0,0
102676,64.1865,-1110.48,0,0
102936,65.2885,-1105.98,0,0
103196,66.2542,-1101.89,0,0
103457,67.3238,-1097.76,0,0
103717,68.3551,-1093.75,0,0
103977,69.4761,-1089.54,0,0
104238,71.1982,-1085.52,0,0
104498,73.0151,-1082.36,0,0
104758,74.3314,-1079.35,0,0
105019,75.3064,-1076.45,0,0
105279,76.0699,-1073.07,0,0
105539,77.134,-1069.54,0,0
105800,78.5232,-1066.2,0,0
106060,79.9063,-1063.04,0,0
106320.175,81.497,-1060.02,0,0
106580.5,82.9905,-1057.35,0,0
106840.825,84.3168,-1054.95,0,0
107101.15,85.4108,-1052.43,0,0
107361.475,86.6687,-1049.82,0,0
107621.8,87.9916,-1047.7,0,0
107882.125,88.9061,-1045.64,0,0
108142.45,89.724,-1043.46,0,0
108402.775,90.5378,-1041.26,0,0
108663.1,91.3955,-1039.12,0,0
108923.425,92.1921,-1037,0,0
109183.75,92.9526,-1035.06,0,0
109444.075,93.7955,-1033.33,0,0
109704.4,94.3049,-1031.77,0,0
109964.725,94.3874,-1030.27,0,0
110225.05,94.1743,-1028.54,0,0
110485.375,93.5984,-1026.63,0,0
110745.7,93.2182,-1023.94,0,0
111006.025,93.3659,-1021.18,0,0
111266.35,93.6611,-1018.42,0,0
111526.675,94.2445,-1015.84,0,0
111787.0,94.8575,-1013.88,0,0
112047.325,95.4246,-1011.82,0,0
112307.65,95.8175,-1009.92,0,0
112567.975,96.2012,-1008.12,0,0
112828.3,96.4838,-1006.39,0,0
113088.625,96.5979,-1004.87,0,0
113348.95,96.6351,-1003.31,0,0
113609.275,96.3882,-1001.84,0,0
113869.6,95.9008,-1000.3,0,0
114129.925,95.2894,-998.617,0,0
114390.25,94.6281,-996.757,0,0
114650.575,93.9977,-994.6,0,0
114910.9,93.538,-992.616,0,0
115171.225,92.8135,-990.963,0,0
115431.55,91.9294,-988.855,0,0
115691.875,90.8891,-986.814,0,0
115952.2,89.8094,-984.419,0,0
116212.525,88.9341,-981.883,0,0
116472.85,88.0617,-979.294,0,0
116733.175,87.3679,-976.748,0,0
116993.5,86.4821,-974.301,0,0
117253.825,85.4766,-971.609,0,0
117514.15,84.5358,-968.66,0,0
117774.475,83.743,-965.637,0,0
118034.8,83.071,-962.54,0,0
118295.125,82.5928,-959.406,0,0
118555.45,82.136,-956.374,0,0
118815.775,81.6973,-953.221,0,0
119076.1,81.3891,-950.059,0,0
119336.425,81.3365,-946.905,0,0
119596.75,81.2518,-943.895,0,0
119857.075,81.244,-940.853,0,0
120117.4,81.39,-937.96,0,0
120377.725,81.4843,-935.246,0,0
120638.05,81.5464,-932.54,0,0
120898.375,81.6565,-930.041,0,0
121158.7,81.4831,-927.638,0,0
121419.025,81.2043,-925.084,0,0
121679.35,80.8901,-922.529,0,0
121939.675,80.4503,-919.825,0,0
122200.0,80.0581,-917.001,0,0
122460,79.7483,-914.109,0,0
122721,79.4883,-911.18,0,0
122981,79.3459,-908.242,0,0
123241,79.1031,-905.364,0,0
123502,78.9202,-902.336,0,0
123762,78.8417,-899.302,0,0
124022,78.8243,-896.282,0,0
124283,78.8924,-893.243,0,0
124543,78.9522,-890.295,0,0
124803,79.0702,-887.314,0,0
125064,79.1662,-884.38,0,0
125324,79.2535,-881.434,0,0
125584,79.401,-878.41,0,0
125845,79.7524,-875.469,0,0
126105,79.9898,-872.651,0,0
126365,80.2381,-869.738,0,0
126626,80.4894,-866.89,0,0
126886,80.7541,-864.029,0,0
127146,81.0422,-861.13,0,0
127406,81.4208,-858.303,0,0
127667,81.702,-855.484,0,0
127927,82.1041,-852.519,0,0
128187,82.5689,-849.522,0,0
128448,83.0998,-846.642,0,0
128708,83.7272,-843.953,0,0
128968,84.2242,-841.312,0,0
129229,84.5853,-838.563,0,0
129489,85.0576,-835.687,0,0
129749,85.5753,-832.725,0,0
130010,86.3568,-829.759,0,0
130270,87.3636,-826.893,0,0
130530,88.3877,-824.292,0,0
130791,89.3929,-821.795,0,0
131051,90.3921,-819.356,0,0
131311,91.387,-817.025,0,0
131572,92.4614,-814.865,0,0
131832,93.3328,-812.859,0,0
132092,94.1226,-810.831,0,0
132353,94.7542,-808.908,0,0
132613,95.2542,-806.913,0,0
132873,95.7459,-804.679,0,0
133134,96.4116,-802.563,0,0
133394,96.9553,-800.533,0,0
133654,97.4872,-798.41,0,0
133915,97.9209,-796.266,0,0
134175,98.4932,-794.025,0,0
134435,99.123,-791.899,0,0
134696,99.7238,-789.829,0,0
134956,100.292,-787.832,0,0
135216,100.862,-785.681,0,0
135477,101.424,-783.552,0,0
135737,101.957,-781.469,0,0
135997,102.515,-779.267,0,0
136258,103.124,-777.036,0,0
136518,103.825,-774.751,0,0
136778,104.898,-772.519,0,0
137039,106.019,-770.606,0,0
137299,107.044,-768.855,0,0
137559,108.152,-767.262,0,0
137819,109.136,-765.971,0,0
138080,109.795,-764.968,0,0
138340.125,110.061,-763.886,0,0
138600.45,110.183,-762.527,0,0
138860.775,110.316,-761.171,0,0
139121.1,110.208,-759.683,0,0
139381.425,110.07,-758.007,0,0
139641.75,110.01,-756.275,0,0
139902.075,110.054,-754.548,0,0
140162.4,109.98,-752.808,0,0
140422.725,109.86,-750.933,0,0
140683.05,109.685,-748.996,0,0
140943.375,109.568,-746.903,0,0
141203.7,109.511,-744.713,0,0
141464.025,109.633,-742.593,0,0
141724.35,109.757,-740.573,0,0
141984.675,109.668,-738.508,0,0
142245.0,109.611,-736.178,0,0
142505.325,109.859,-733.794,0,0
142765.65,110.155,-731.602,0,0
143025.975,110.272,-729.389,0,0
143286.3,110.463,-727.123,0,0
143546.625,110.704,-724.751,0,0
143806.95,111.141,-722.365,0,0
144067.275,111.637,-720.117,0,0
144327.6,112.12,-717.983,0,0
144587.925,112.369,-715.832,0,0
144848.25,112.714,-713.343,0,0
145108.575,113.42,-711.034,0,0
145368.9,114.068,-708.896,0,0
145629.225,114.68,-706.809,0,0
145889.55,115.295,-704.647,0,0
146149.875,116.025,-702.567,0,0
146410.2,116.698,-700.736,0,0
146670.525,117.172,-698.765,0,0
146930.85,117.862,-696.728,0,0
147191.175,118.635,-694.985,0,0
147451.5,119.142,-693.361,0,0
147711.825,119.551,-691.739,0,0
147972.15,119.725,-690.121,0,0
148232.475,119.631,-688.231,0,0
148492.8,119.761,-686.017,0,0
148753.125,120.023,-683.809,0,0
149013.45,120.39,-681.519,0,0
149273.775,120.945,-679.198,0,0
149534.1,121.835,-677.076,0,0
149794.425,122.629,-675.451,0,0
150054.75,123.099,-673.945,0,0
150315.075,123.284,-672.381,0,0
150575.4,123.328,-670.786,0,0
150835.725,123.133,-669.162,0,0
151096.05,122.684,-667.233,0,0
151356.375,122.234,-664.928,0,0
151616.7,121.971,-662.368,0,0
151877.025,121.889,-659.785,0,0
152137.35,121.744,-657.231,0,0
152397.675,121.504,-654.525,0,0
152658.0,121.254,-651.521,0,0
152918.325,121.231,-648.184,0,0
153178.65,121.573,-644.736,0,0
153438.975,122.159,-641.319,0,0
153699.3,122.875,-637.96,0,0
153959.625,123.749,-634.681,0,0
154219.95,124.646,-631.294,0,0
154480,125.71,-627.784,0,0
154741,127.104,-624.37,0,0
155001,128.619,-621.168,0,0
155261,130.065,-618.06,0,0
155522,131.493,-614.802,0,0
155782,133.166,-611.365,0,0
156042,135.252,-607.913,0,0
156303,137.675,-604.729,0,0
156563,140.224,-601.933,0,0
156823,142.608,-599.272,0,0
157084,145.207,-596.567,0,0
157344,148.102,-594.087,0,0
157604,151.07,-592.171,0,0
157864,153.622,-590.625,0,0
158125,155.806,-588.997,0,0
158385,158.022,-587.294,0,0
158645,160.183,-585.757,0,0
158906,161.806,-584.222,0,0
159166,163.243,-582.032,0,0
159426,165.075,-579.31,0,0
159687,167.375,-576.378,0,0
159947,170.334,-573.393,0,0
160207,173.805,-570.766,0,0
160468,177.632,-568.704,0,0
160728,181.484,-567.005,0,0
160988,185.512,-565.563,0,0
161249,189.632,-564.63,0,0
161509,193.607,-564.095,0,0
161769,197.508,-563.789,0,0
162030,201.475,-563.903,0,0
162290,205.068,-564.746,0,0
162550,208.041,-565.664,0,0
162811,210.708,-566.595,0,0
163071,212.903,-567.519,0,0
163331,214.776,-568.096,0,0
163592,216.733,-568.282,0,0
163852,218.936,-568.377,0,0
164112,221.301,-568.61,0,0
164373,223.77,-568.986,0,0
164633,226.158,-569.678,0,0
164893,228.323,-570.273,0,0
165154,230.811,-570.888,0,0
165414,233.252,-571.906,0,0
165674,235.603,-572.914,0,0
165935,238.198,-574.273,0,0
166195,240.633,-576.217,0,0
166455,242.526,-578.602,0,0
166716,243.781,-581.001,0,0
166976,244.665,-583.117,0,0
167236,245.622,-585.038,0,0
167497,246.564,-587.262,0,0
167757,247.06,-589.697,0,0
168017,247.198,-592.084,0,0
168277,247.008,-594.425,0,0
168538,246.522,-596.647,0,0
168798,245.761,-598.803,0,0
169058,244.728,-600.95,0,0
169319,243.144,-602.897,0,0
169579,241.176,-604.428,0,0
169839,238.966,-605.49,0,0
170100,236.75,-605.932,0,0
170360.075,234.424,-605.931,0,0
170620.4,232.619,-605.46,0,0
170880.725,231.101,-605.018,0,0
171141.05,229.371,-604.539,0,0
171401.375,227.726,-603.563,0,0
171661.7,226.595,-602.27,0,0
171922.025,225.752,-601.203,0,0
172182.35,224.936,-600.104,0,0
172442.675,224.39,-598.946,0,0
172703.0,224.113,-598.016,0,0
172963.325,223.768,-597.408,0,0
173223.65,223.166,-596.871,0,0
173483.975,222.379,-596.208,0,0
173744.3,221.559,-595.337,0,0
174004.625,220.752,-594.171,0,0
174264.95,220.237,-592.857,0,0
174525.275,220.01,-591.603,0,0
174785.6,219.861,-590.594,0,0
175045.925,219.633,-589.684,0,0
175306.25,219.419,-588.615,0,0
175566.575,219.447,-587.52,0,0
175826.9,219.68,-586.669,0,0
176087.225,219.802,-586.237,0,0
176347.55,219.544,-585.93,0,0
176607.875,219.073,-585.443,0,0
176868.2,218.594,-584.705,0,0
177128.525,218.293,-583.879,0,0
177388.85,218.098,-583.087,0,0
177649.175,218.049,-582.48,0,0
177909.5,217.934,-582.192,0,0
178169.825,217.525,-582.116,0,0
178430.15,216.765,-581.927,0,0
178690.475,215.865,-581.601,0,0
178950.8,214.871,-581.188,0,0
179211.125,213.744,-580.675,0,0
179471.45,212.552,-579.847,0,0
179731.775,211.607,-579.123,0,0
179992.1,210.366,-578.658,0,0
180252.425,208.736,-577.98,0,0
180512.75,206.913,-576.779,0,0
180773.075,205.314,-575.324,0,0
181033.4,203.871,-573.79,0,0
181293.725,202.322,-572.108,0,0
181554.05,200.98,-570.24,0,0
181814.375,199.786,-568.372,0,0
182074.7,198.534,-566.573,0,0
182335.025,197.124,-564.6,0,0
182595.35,195.782,-562.41,0,0
182855.675,194.595,-560.055,0,0
183116.0,193.546,-557.728,0,0
183376.325,192.485,-555.387,0,0
183636.65,191.368,-552.912,0,0
183896.975,190.253,-550.249,0,0
184157.3,189.242,-547.445,0,0
184417.625,188.355,-544.559,0,0
184677.95,187.501,-541.564,0,0
184938.275,186.681,-538.257,0,0
185198.6,186.204,-534.678,0,0
185458.925,186.248,-531.147,0,0
185719.25,186.508,-527.907,0,0
185979.575,186.762,-524.8,0,0
186239.9,187.075,-521.748,0,0
186500,187.359,-518.826,0,0
186761,187.557,-515.931,0,0
187021,187.774,-512.846,0,0
187281,188.081,-509.514,0,0
187542,188.737,-506.047,0,0
187802,189.725,-502.914,0,0
188062,190.713,-500.077,0,0
188322,191.545,-497.34,0,0
188583,192.315,-494.511,0,0
188843,192.956,-491.673,0,0
189103,193.781,-488.786,0,0
189364,194.715,-485.887,0,0
189624,195.585,-483.164,0,0
189884,196.412,-480.392,0,0
190145,197.203,-477.53,0,0
190405,197.932,-474.461,0,0
190665,198.902,-471.345,0,0
190926,199.838,-468.321,0,0
191186,200.802,-465.26,0,0
191446,201.779,-462.124,0,0
191707,202.724,-458.796,0,0
191967,203.934,-455.358,0,0
192227,205.231,-451.798,0,0
192488,206.712,-448.354,0,0
192748,208.406,-444.844,0,0
193008,210.055,-441.379,0,0
193269,211.998,-437.917,0,0
193529,213.917,-434.639,0,0
193789,215.912,-431.29,0,0
194050,217.907,-427.856,0,0
194310,220.097,-424.587,0,0
194570,222.235,-421.21,0,0
194831,224.407,-417.741,0,0
195091,226.715,-414.31,0,0
195351,229.048,-410.64,0,0
195612,231.807,-407.025,0,0
195872,234.662,-403.531,0,0
196132,237.522,-400.162,0,0
196393,240.501,-396.716,0,0
196653,243.481,-393.213,0,0
196913,246.73,-389.802,0,0
197174,250.015,-386.359,0,0
197434,253.384,-382.96,0,0
197694,256.975,-379.416,0,0
197955,260.86,-375.943,0,0
198215,264.979,-372.691,0,0
198475,269.077,-369.631,0,0
198735,273.175,-366.531,0,0
198996,277.471,-363.584,0,0
199256,281.718,-360.685,0,0
199516,285.896,-357.759,0,0
199777,290.151,-354.67,0,0
200037,294.535,-351.326,0,0
200297,299.299,-347.952,0,0
200558,304.446,-344.677,0,0
200818,309.726,-341.449,0,0
201078,315.322,-338.207,0,0
201339,321.115,-335.148,0,0
201599,327.131,-332.007,0,0
201859,333.502,-328.8,0,0
202120,340.39,-325.666,0,0
202380.025,347.839,-322.735,0,0
202640.35,355.899,-320.238,0,0
202900.675,364.257,-318.328,0,0
203161.0,372.595,-317.044,0,0
203421.325,380.949,-315.891,0,0
203681.65,389.564,-314.866,0,0
203941.975,398.627,-313.971,0,0
204202.3,408.295,-313.635,0,0
204462.625,418.657,-314.025,0,0
204722.95,429.073,-315.366,0,0
204983.275,439.728,-317.824,0,0
205243.6,450.186,-321.122,0,0
205503.925,460.143,-325.401,0,0
205764.25,469.671,-330.447,0,0
206024.575,478.847,-336.041,0,0
206284.9,487.437,-342.199,0,0
206545.225,495.59,-348.885,0,0
206805.55,503.169,-356.331,0,0
207065.875,509.756,-364.357,0,0
207326.2,515.219,-372.368,0,0
207586.525,520.099,-380.101,0,0
207846.85,524.675,-387.783,0,0
208107.175,528.888,-395.715,0,0
208367.5,532.291,-403.916,0,0
208627.825,535.046,-411.882,0,0
208888.15,537.36,-419.701,0,0
209148.475,539.174,-427.473,0,0
209408.8,540.519,-435.133,0,0
209669.125,541.48,-442.796,0,0
209929.45,541.716,-450.651,0,0
210189.775,540.775,-458.331,0,0
210450.1,538.796,-465.141,0,0
210710.425,536.209,-470.737,0,0
210970.75,533.562,-475.215,0,0
211231.075,531.141,-478.867,0,0
211491.4,529.072,-481.801,0,0
211751.725,527.136,-484.224,0,0
212012.05,525.363,-486.061,0,0
212272.375,523.882,-487.143,0,0
212532.7,523.087,-487.555,0,0
212793.025,523.302,-487.502,0,0
213053.35,524.564,-487.573,0,0
213313.675,526.406,-488.045,0,0
213574.0,528.771,-488.925,0,0
213834.325,531.487,-490.327,0,0
214094.65,534.262,-492.358,0,0
214354.975,536.935,-494.733,0,0
214615.3,539.428,-497.337,0,0
214875.625,541.942,-499.993,0,0
215135.95,544.256,-502.875,0,0
215396.275,546.723,-505.652,0,0
215656.6,549.355,-508.632,0,0
215916.925,551.814,-512.213,0,0
216177.25,553.779,-515.876,0,0
216437.575,555.449,-519.192,0,0
216697.9,557.169,-522.222,0,0
216958.225,559.058,-525.076,0,0
217218.55,561.185,-527.849,0,0
217478.875,563.653,-530.796,0,0
217739.2,566.27,-534.017,0,0
217999.525,568.793,-537.45,0,0
218259.85,571.191,-540.995,0,0
218520,573.514,-544.431,0,0
218780,576.04,-547.742,0,0
219041,578.861,-551.013,0,0
219301,582.075,-554.499,0,0
219561,585.631,-558.206,0,0
219822,589.341,-562.311,0,0
220082,593.211,-566.9,0,0
220342,597.198,-572.003,0,0
220603,601.103,-577.663,0,0
220863,604.87,-583.537,0,0
221123,608.744,-589.844,0,0
221384,612.63,-596.754,0,0
221644,616.33,-604.267,0,0
221904,619.766,-612.343,0,0
222165,622.786,-621.212,0,0
222425,625.147,-630.491,0,0
222685,626.777,-640.262,0,0
222946,627.75,-650.172,0,0
223206,628.152,-660.393,0,0
223466,627.732,-670.58,0,0
223727,626.639,-680.741,0,0
223987,625.015,-690.598,0,0
224247,622.823,-700.401,0,0
224508,620.492,-709.884,0,0
224768,617.802,-719.392,0,0
225028,614.584,-729.174,0,0
225289,610.912,-738.8,0,0
225549,606.598,-748.141,0,0
225809,601.84,-757.03,0,0
226070,596.704,-765.97,0,0
226330,591.25,-774.536,0,0
226590,585.548,-782.989,0,0
226851,579.35,-791.155,0,0
227111,572.611,-799.183,0,0
227371,565.645,-806.775,0,0
227632,558.397,-814.297,0,0
227892,550.451,-821.477,0,0
228152,542.145,-827.945,0,0
228413,533.289,-834.157,0,0
228673,524.146,-839.534,0,0
228933,514.876,-844.179,0,0
229193,505.65,-848.156,0,0
229454,496.475,-851.578,0,0
229714,487.396,-854.69,0,0
229974,478.238,-857.361,0,0
230235,469.146,-859.381,0,0
230495,460.013,-860.872,0,0
230755,451.235,-861.903,0,0
231016,442.56,-862.323,0,0
231276,434.275,-862.411,0,0
231536,426.344,-862.162,0,0
231797,418.723,-861.663,0,0
232057,411.327,-860.909,0,0
232317,404.289,-859.921,0,0
232578,397.586,-858.62,0,0
232838,391.392,-857.297,0,0
233098,385.552,-855.844,0,0
233359,380.071,-854.575,0,0
233619,374.775,-853.417,0,0
233879,369.542,-852.323,0,0
234140,364.493,-851.299,0,0
234400,359.524,-850.147,0,0
234660.3,354.853,-849.177,0,0
234920.625,350.398,-848.345,0,0
235180.95,345.681,-847.777,0,0
235441.275,340.79,-847.233,0,0
235701.6,335.73,-846.599,0,0
235961.925,330.637,-845.747,0,0
236222.25,325.565,-844.681,0,0
236482.575,320.681,-843.592,0,0
236742.9,315.78,-842.315,0,0
237003.225,311.087,-841.034,0,0
237263.55,306.336,-839.635,0,0
237523.875,301.593,-838.217,0,0
237784.2,297.005,-836.553,0,0
238044.525,292.397,-834.921,0,0
238304.85,287.78,-833.164,0,0
238565.175,283.284,-831.3,0,0
238825.5,278.993,-829.21,0,0
239085.825,274.839,-827.159,0,0
239346.15,270.725,-824.955,0,0
239606.475,266.892,-822.724,0,0
239866.8,263.023,-820.581,0,0
240127.125,259.208,-818.475,0,0
240387.45,255.69,-816.106,0,0
240647.775,252.236,-813.74,0,0
240908.1,248.818,-811.551,0,0
241168.425,245.467,-809.27,0,0
241428.75,242.154,-807.092,0,0
241689.075,238.814,-804.792,0,0
241949.4,235.58,-802.416,0,0
242209.725,232.483,-799.933,0,0
242470.05,229.414,-797.367,0,0
242730.375,226.591,-794.84,0,0
242990.7,223.954,-792.308,0,0
243251.025,221.371,-789.877,0,0
243511.35,218.86,-787.442,0,0
243771.675,216.452,-785.123,0,0
244032.0,214.104,-782.913,0,0
244292.325,211.703,-780.695,0,0
244552.65,209.521,-778.536,0,0
244812.975,207.077,-776.507,0,0
245073.3,204.777,-774.403,0,0
245333.625,202.333,-772.303,0,0
245593.95,199.925,-770.112,0,0
245854.275,197.661,-767.803,0,0
246114.6,195.22,-765.657,0,0
246374.925,192.905,-763.457,0,0
246635.25,190.562,-761.161,0,0
246895.575,188.154,-758.75,0,0
247155.9,185.955,-756.301,0,0
247416.225,183.806,-753.796,0,0
247676.55,181.742,-751.248,0,0
247936.875,179.718,-748.667,0,0
248197.2,177.797,-746.057,0,0
248457.525,176.003,-743.4,0,0
248717.85,174.305,-740.909,0,0
248978.175,172.681,-738.379,0,0
249238.5,171.08,-735.827,0,0
249498.825,169.502,-733.345,0,0
249759.15,168.072,-730.841,0,0
250019.475,166.577,-728.348,0,0
250279.8,165.278,-725.992,0,0
250540,163.878,-723.566,0,0
250800,162.406,-721.148,0,0
251061,161.115,-718.782,0,0
251321,159.768,-716.309,0,0
251581,158.54,-713.931,0,0
251842,157.217,-711.489,0,0
252102,156.027,-709.017,0,0
252362,154.852,-706.636,0,0
252623,153.743,-704.162,0,0
252883,152.602,-701.735,0,0
253143,151.493,-699.265,0,0
253404,150.393,-696.711,0,0
253664,149.392,-694.127,0,0
253924,148.514,-691.503,0,0
254185,147.689,-688.921,0,0
254445,146.956,-686.275,0,0
254705,146.384,-683.737,0,0
254966,145.807,-681.154,0,0
255226,145.336,-678.573,0,0
255486,144.96,-676.099,0,0
255747,144.615,-673.747,0,0
256007,144.283,-671.447,0,0
256267,143.895,-669.14,0,0
256528,143.513,-666.842,0,0
256788,143.213,-664.399,0,0
257048,142.929,-662.106,0,0
257309,142.732,-659.807,0,0
257569,142.541,-657.528,0,0
257829,142.415,-655.237,0,0
258090,142.265,-652.905,0,0
258350,142.197,-650.543,0,0
258610,142.207,-648.172,0,0
258871,142.237,-645.793,0,0
259131,142.441,-643.377,0,0
259391,142.792,-640.963,0,0
259651,143.247,-638.572,0,0
259912,143.865,-636.263,0,0
260172,144.55,-634.057,0,0
260432,145.359,-631.974,0,0
260693,146.297,-629.995,0,0
260953,147.215,-628.147,0,0
261213,148.142,-626.439,0,0
261474,149.077,-624.8,0,0
261734,150.061,-623.222,0,0
261994,151.063,-621.72,0,0
262255,152.036,-620.309,0,0
262515,153.095,-618.954,0,0
262775,154.178,-617.687,0,0
263036,155.317,-616.538,0,0
263296,156.472,-615.456,0,0
263556,157.627,-614.507,0,0
263817,158.769,-613.647,0,0
264077,159.896,-612.823,0,0
264337,161.055,-612.14,0,0
264598,162.226,-611.535,0,0
264858,163.36,-610.918,0,0
265118,164.61,-610.51,0,0
265379,165.801,-610.142,0,0
265639,167.152,-609.981,0,0
265899,168.559,-610.055,0,0
266160,169.88,-610.366,0,0
266420,171.064,-610.884,0,0
266680.25,172.185,-611.74,0,0
266940.575,173.089,-612.785,0,0
267200.9,173.739,-614.037,0,0
267461.225,174.005,-615.456,0,0
267721.55,173.995,-616.918,0,0
267981.875,173.653,-618.359,0,0
268242.2,173.042,-619.72,0,0
268502.525,172.209,-621.015,0,0
268762.85,171.063,-622.274,0,0
269023.175,169.641,-623.376,0,0
269283.5,167.98,-624.293,0,0
269543.825,166.097,-625.009,0,0
269804.15,164.074,-625.401,0,0
270064.475,161.882,-625.563,0,0
270324.8,159.778,-625.407,0,0
270585.125,157.485,-625.002,0,0
270845.45,155.359,-624.316,0,0
271105.775,153.19,-623.394,0,0
271366.1,151.192,-622.174,0,0
271626.425,149.381,-620.767,0,0
271886.75,147.673,-619.189,0,0
272147.075,146.145,-617.585,0,0
272407.4,144.785,-615.778,0,0
272667.725,143.625,-613.979,0,0
272928.05,142.622,-612.044,0,0
273188.375,141.809,-610.158,0,0
273448.7,141.167,-608.222,0,0
273709.025,140.673,-606.385,0,0
273969.35,140.324,-604.584,0,0
274229.675,140.018,-602.819,0,0
274490.0,139.868,-601.124,0,0
274750.325,139.816,-599.451,0,0
275010.65,139.723,-597.85,0,0
275270.975,139.821,-596.382,0,0
275531.3,139.971,-594.998,0,0
275791.625,140.066,-593.676,0,0
276051.95,140.149,-592.413,0,0
276312.275,140.268,-591.093,0,0
276572.6,140.473,-589.813,0,0
276832.925,140.734,-588.584,0,0
277093.25,141.032,-587.409,0,0
277353.575,141.402,-586.297,0,0
277613.9,141.803,-585.265,0,0
277874.225,142.271,-584.298,0,0
278134.55,142.717,-583.541,0,0
278394.875,143.149,-582.798,0,0
278655.2,143.573,-582.151,0,0
278915.525,143.945,-581.595,0,0
279175.85,144.28,-581.115,0,0
279436.175,144.601,-580.64,0,0
279696.5,144.841,-580.268,0,0
279956.825,145.029,-579.921,0,0
280217.15,145.164,-579.651,0,0
280477.475,145.261,-579.391,0,0
280737.8,145.263,-579.162,0,0
280998.125,145.252,-578.918,0,0
281258.45,145.168,-578.751,0,0
281518.775,145.069,-578.632,0,0
281779.1,144.843,-578.586,0,0
282039.425,144.439,-578.534,0,0
282299.75,143.908,-578.391,0,0
282560,143.274,-578.19,0,0
282820,142.567,-577.826,0,0
283081,141.834,-577.402,0,0
283341,141.058,-576.862,0,0
283601,140.339,-576.165,0,0
283862,139.68,-575.342,0,0
284122,139.105,-574.573,0,0
284382,138.616,-573.743,0,0
284643,138.12,-572.95,0,0
284903,137.654,-572.183,0,0
285163,137.252,-571.393,0,0
285424,136.774,-570.637,0,0
285684,136.33,-569.887,0,0
285944,135.831,-569.178,0,0
286205,135.266,-568.461,0,0
286465,134.628,-567.736,0,0
286725,133.878,-566.944,0,0
286986,133.013,-566.001,0,0
287246,132.135,-564.882,0,0
287506,131.272,-563.566,0,0
287767,130.508,-562.066,0,0
288027,129.957,-560.399,0,0
288287,129.532,-558.618,0,0
288548,129.329,-556.747,0,0
288808,129.42,-554.882,0,0
289068,129.74,-553.122,0,0
289329,130.227,-551.5,0,0
289589,130.787,-549.987,0,0
289849,131.489,-548.606,0,0
290109,132.292,-547.457,0,0
290370,133.142,-546.49,0,0
290630,133.846,-545.823,0,0
290890,134.434,-545.22,0,0
291151,134.953,-544.649,0,0
291411,135.388,-544.12,0,0
291671,135.755,-543.582,0,0
291932,136.13,-543.168,0,0
292192,136.402,-542.791,0,0
292452,136.525,-542.464,0,0
292713,136.479,-542.116,0,0
292973,136.339,-541.722,0,0
293233,136.073,-541.177,0,0
293494,135.794,-540.552,0,0
293754,135.451,-539.803,0,0
294014,135.095,-538.914,0,0
294275,134.768,-537.861,0,0
294535,134.464,-536.716,0,0
294795,134.275,-535.395,0,0
295056,134.229,-533.942,0,0
295316,134.291,-532.448,0,0
295576,134.591,-530.879,0,0
295837,135.057,-529.347,0,0
296097,135.677,-527.846,0,0
296357,136.471,-526.444,0,0
296618,137.383,-525.139,0,0
296878,138.406,-523.968,0,0
297138,139.461,-522.956,0,0
297399,140.527,-522.086,0,0
297659,141.566,-521.298,0,0
297919,142.572,-520.616,0,0
298180,143.507,-519.933,0,0
298440,144.466,-519.252,0,0
298700.2,145.428,-518.598,0,0
298960.525,146.509,-518.047,0,0
299220.85,147.45,-517.513,0,0
299481.175,148.407,-517.098,0,0
299741.5,149.413,-516.565,0,0
300001.825,150.391,-516.114,0,0
300262.15,151.468,-515.609,0,0
300522.475,152.53,-515.211,0,0
300782.8,153.653,-514.75,0,0
301043.125,154.823,-514.307,0,0
301303.45,156.147,-513.923,0,0
301563.775,157.475,-513.56,0,0
301824.1,158.993,-513.384,0,0
302084.425,160.568,-513.371,0,0
302344.75,162.188,-513.608,0,0
302605.075,163.663,-514.049,0,0
302865.4,165.142,-514.612,0,0
303125.725,166.443,-515.328,0,0
303386.05,167.542,-516.09,0,0
303646.375,168.616,-516.837,0,0
303906.7,169.469,-517.671,0,0
304167.025,170.414,-518.437,0,0
304427.35,171.273,-519.258,0,0
304687.675,172.114,-520.035,0,0
304948.0,172.871,-520.995,0,0
305208.325,173.603,-521.893,0,0
305468.65,174.343,-522.764,0,0
305728.975,175.122,-523.702,0,0
305989.3,175.758,-524.768,0,0
306249.625,176.519,-525.804,0,0
306509.95,177.132,-526.96,0,0
306770.275,177.76,-528.325,0,0
307030.6,178.264,-529.77,0,0
307290.925,178.589,-531.225,0,0
307551.25,178.742,-532.77,0,0
307811.575,178.795,-534.266,0,0
308071.9,178.674,-535.83,0,0
308332.225,178.473,-537.283,0,0
308592.55,178.025,-538.618,0,0
308852.875,177.548,-539.956,0,0
309113.2,177.053,-541.062,0,0
309373.525,176.654,-542.147,0,0
309633.85,176.117,-543.128,0,0
309894.175,175.787,-544.19,0,0
310154.5,175.548,-545.207,0,0
310414.825,175.156,-546.336,0,0
310675.15,174.83,-547.673,0,0
310935.475,174.366,-548.892,0,0
311195.8,173.879,-550.301,0,0
311456.125,173.093,-551.695,0,0
311716.45,172.391,-553.061,0,0
311976.775,171.439,-554.604,0,0
312237.1,170.333,-556.046,0,0
312497.425,169.099,-557.336,0,0
312757.75,167.753,-558.663,0,0
313018.075,166.261,-559.772,0,0
313278.4,164.645,-560.839,0,0
313538.725,162.993,-561.651,0,0
313799.05,161.371,-562.469,0,0
314059.375,159.646,-563.118,0,0
314319.7,157.923,-563.651,0,0
314580,156.276,-564.014,0,0
314840,154.703,-564.358,0,0
315101,153.188,-564.678,0,0
315361,151.658,-564.838,0,0
315621,150.113,-565.125,0,0
315882,148.637,-565.371,0,0
316142,147.059,-565.643,0,0
316402,145.511,-565.789,0,0
316663,143.842,-565.953,0,0
316923,142.191,-565.908,0,0
317183,140.501,-565.88,0,0
317444,138.96,-565.814,0,0
317704,137.32,-565.636,0,0
317964,135.724,-565.386,0,0
318225,134.121,-565.138,0,0
318485,132.522,-564.794,0,0
318745,131.074,-564.419,0,0
319006,129.438,-564.043,0,0
319266,127.915,-563.594,0,0
319526,126.415,-563.181,0,0
319787,124.846,-562.622,0,0
320047,123.373,-562.03,0,0
320307,121.921,-561.328,0,0
320567,120.433,-560.585,0,0
320828,118.981,-559.86,0,0
321088,117.641,-558.989,0,0
321348,116.311,-558.119,0,0
321609,115.063,-557.282,0,0
321869,113.858,-556.308,0,0
322129,112.715,-555.363,0,0
322390,111.567,-554.34,0,0
322650,110.406,-553.299,0,0
322910,109.362,-552.214,0,0
323171,108.334,-551.163,0,0
323431,107.42,-550.005,0,0
323691,106.689,-548.787,0,0
323952,105.859,-547.62,0,0
324212,105.231,-546.464,0,0
324472,104.655,-545.369,0,0
324733,104.093,-544.237,0,0
324993,103.582,-543.269,0,0
325253,103.192,-542.211,0,0
325514,102.748,-541.245,0,0
325774,102.385,-540.355,0,0
326034,102.071,-539.413,0,0
326295,101.74,-538.53,0,0
326555,101.522,-537.626,0,0
326815,101.245,-536.88,0,0
327076,100.994,-536.174,0,0
327336,100.873,-535.452,0,0
327596,100.589,-534.77,0,0
327857,100.361,-534.26,0,0
328117,100.167,-533.702,0,0
328377,99.9354,-533.269,0,0
328638,99.7073,-532.786,0,0
328898,99.3758,-532.33,0,0
329158,99.0635,-531.934,0,0
329419,98.7741,-531.584,0,0
329679,98.3071,-531.206,0,0
329939,98.0355,-530.877,0,0
330200,97.5723,-530.584,0,0
330460,97.0684,-530.289,0,0
330720.15,96.6453,-529.923,0,0
330980.475,96.108,-529.682,0,0
331240.8,95.5013,-529.3,0,0
331501.125,94.9394,-528.975,0,0
331761.45,94.4174,-528.646,0,0
332021.775,93.7383,-528.329,0,0
332282.1,93.1197,-527.993,0,0
332542.425,92.4602,-527.575,0,0
332802.75,91.7177,-527.167,0,0
333063.075,90.9743,-526.812,0,0
333323.4,90.2269,-526.323,0,0
333583.725,89.507,-525.931,0,0
333844.05,88.747,-525.447,0,0
334104.375,87.9447,-524.899,0,0
334364.7,87.2618,-524.34,0,0
334625.025,86.4614,-523.887,0,0
334885.35,85.6807,-523.203,0,0
335145.675,84.8765,-522.654,0,0
335406.0,84.1494,-521.968,0,0
335666.325,83.3765,-521.289,0,0
335926.65,82.7016,-520.609,0,0
336186.975,81.9523,-519.932,0,0
336447.3,81.2857,-519.178,0,0
336707.625,80.5399,-518.421,0,0
336967.95,79.9233,-517.732,0,0
337228.275,79.2729,-516.938,0,0
337488.6,78.5586,-516.19,0,0
337748.925,77.9735,-515.371,0,0
338009.25,77.2952,-514.505,0,0
338269.575,76.7725,-513.795,0,0
338529.9,76.1279,-512.972,0,0
338790.225,75.5158,-512.165,0,0
339050.55,74.9816,-511.322,0,0
339310.875,74.4309,-510.559,0,0
339571.2,73.9009,-509.684,0,0
339831.525,73.3656,-508.855,0,0
340091.85,72.8681,-508.01,0,0
340352.175,72.3629,-507.177,0,0
340612.5,71.8947,-506.329,0,0
340872.825,71.4726,-505.489,0,0
341133.15,71.0433,-504.697,0,0
341393.475,70.6285,-503.905,0,0
341653.8,70.1274,-503.08,0,0
341914.125,69.7239,-502.276,0,0
342174.45,69.272,-501.451,0,0
342434.775,68.8462,-500.696,0,0
342695.1,68.409,-499.925,0,0
342955.425,67.9546,-499.145,0,0
343215.75,67.5653,-498.295,0,0
343476.075,67.0845,-497.481,0,0
343736.4,66.624,-496.731,0,0
343996.725,66.2507,-495.884,0,0
344257.05,65.7945,-495.073,0,0
344517.375,65.3566,-494.275,0,0
344777.7,64.9237,-493.426,0,0
345038.025,64.5397,-492.585,0,0
345298.35,64.1242,-491.743,0,0
345558.675,63.6934,-490.865,0,0
345819.0,63.2534,-489.959,0,0
346079.325,62.8803,-489.095,0,0
346339.65,62.5003,-488.22,0,0
346599.975,62.1257,-487.342,0,0
346860,61.7247,-486.389,0,0
347121,61.441,-485.513,0,0
347381,61.1047,-484.485,0,0
347641,60.7588,-483.555,0,0
347902,60.4816,-482.632,0,0
348162,60.1619,-481.668,0,0
348422,59.9689,-480.683,0,0
348683,59.7101,-479.749,0,0
348943,59.5384,-478.791,0,0
349203,59.384,-477.94,0,0
349464,59.1985,-476.954,0,0
349724,59.0331,-476.067,0,0
349984,58.8689,-475.156,0,0
350245,58.702,-474.283,0,0
350505,58.5486,-473.423,0,0
350765,58.3919,-472.532,0,0
351025,58.2351,-471.702,0,0
351286,58.1134,-470.774,0,0
351546,58.0168,-469.883,0,0
351806,57.8974,-468.972,0,0
352067,57.744,-468.146,0,0
352327,57.7301,-467.267,0,0
352587,57.6668,-466.414,0,0
352848,57.5566,-465.628,0,0
353108,57.4621,-464.776,0,0
353368,57.4273,-463.928,0,0
353629,57.3949,-463.132,0,0
353889,57.3068,-462.347,0,0
354149,57.2265,-461.549,0,0
354410,57.192,-460.736,0,0
354670,57.1257,-459.92,0,0
354930,57.0581,-459.102,0,0
355191,57.0241,-458.334,0,0
355451,56.9454,-457.484,0,0
355711,56.9512,-456.701,0,0
355972,56.9307,-455.887,0,0
356232,56.9519,-455.115,0,0
356492,56.9475,-454.339,0,0
356753,56.9252,-453.495,0,0
357013,56.9308,-452.777,0,0
357273,56.8999,-451.989,0,0
357534,56.9248,-451.305,0,0
357794,56.932,-450.521,0,0
358054,56.933,-449.748,0,0
358315,56.8745,-449.006,0,0
358575,56.8965,-448.223,0,0
358835,56.908,-447.471,0,0
359096,56.9073,-446.72,0,0
359356,56.9521,-445.9,0,0
359616,56.9896,-445.154,0,0
359877,57.0405,-444.453,0,0
360137,57.0529,-443.662,0,0
360397,57.1852,-442.858,0,0
360658,57.1883,-442.159,0,0
360918,57.3005,-441.492,0,0
361178,57.3972,-440.732,0,0
361438,57.4611,-440.065,0,0
361699,57.5697,-439.382,0,0
361959,57.5753,-438.658,0,0
362219,57.6355,-437.941,0,0
362480,57.7202,-437.314,0,0
362740.1,57.7866,-436.6,0,0
363000.425,57.8351,-435.891,0,0
363260.75,57.8855,-435.182,0,0
363521.075,57.94,-434.49,0,0
363781.4,57.9846,-433.741,0,0
364041.725,58.0817,-432.995,0,0
364302.05,58.1648,-432.314,0,0
364562.375,58.2365,-431.578,0,0
364822.7,58.4048,-430.916,0,0
365083.025,58.5017,-430.18,0,0
365343.35,58.6053,-429.504,0,0
365603.675,58.735,-428.836,0,0
365864.0,58.8831,-428.177,0,0
366124.325,58.9949,-427.539,0,0
366384.65,59.1001,-426.895,0,0
366644.975,59.1727,-426.278,0,0
366905.3,59.2281,-425.611,0,0
367165.625,59.2546,-424.968,0,0
367425.95,59.2546,-424.236,0,0
367686.275,59.2932,-423.488,0,0
367946.6,59.3228,-422.677,0,0
368206.925,59.3752,-421.866,0,0
368467.25,59.4666,-420.974,0,0
368727.575,59.5983,-420.094,0,0
368987.9,59.8026,-419.188,0,0
369248.225,60.0418,-418.25,0,0
369508.55,60.3143,-417.346,0,0
369768.875,60.6483,-416.456,0,0
370029.2,61.0416,-415.542,0,0
370289.525,61.4668,-414.667,0,0
370549.85,61.9319,-413.858,0,0
370810.175,62.426,-412.955,0,0
371070.5,62.9752,-412.221,0,0
371330.825,63.5721,-411.418,0,0
371591.15,64.1993,-410.712,0,0
371851.475,64.8396,-409.969,0,0
372111.8,65.5825,-409.375,0,0
372372.125,66.255,-408.773,0,0
372632.45,66.985,-408.262,0,0
372892.775,67.6795,-407.821,0,0
373153.1,68.4027,-407.385,0,0
373413.425,69.092,-407.03,0,0
373673.75,69.827,-406.74,0,0
373934.075,70.5196,-406.442,0,0
374194.4,71.1924,-406.245,0,0
374454.725,71.8567,-406.06,0,0
374715.05,72.4796,-405.951,0,0
374975.375,73.0239,-405.835,0,0
375235.7,73.5824,-405.767,0,0
375496.025,74.0346,-405.72,0,0
375756.35,74.4752,-405.685,0,0
376016.675,74.9308,-405.604,0,0
376277.0,75.3512,-405.54,0,0
376537.325,75.7441,-405.473,0,0
376797.65,76.1038,-405.431,0,0
377057.975,76.485,-405.347,0,0
377318.3,76.8989,-405.286,0,0
377578.625,77.2632,-405.253,0,0
377838.95,77.6288,-405.215,0,0
378099.275,78.0093,-405.189,0,0
378359.6,78.3825,-405.218,0,0
378619.925,78.7183,-405.267,0,0
378880,79.0423,-405.318,0,0
379141,79.3195,-405.425,0,0
379401,79.5797,-405.509,0,0
379661,79.7689,-405.553,0,0
379922,79.9357,-405.572,0,0
380182,80.1981,-405.534,0,0
380442,80.4384,-405.535,0,0
380703,80.7147,-405.53,0,0
380963,81.0694,-405.504,0,0
381223,81.4904,-405.651,0,0
381483,81.8062,-405.816,0,0
381744,82.1828,-406.118,0,0
382004,82.4953,-406.45,0,0
382264,82.6823,-406.841,0,0
382525,82.8855,-407.276,0,0
382785,82.9526,-407.724,0,0
383045,82.8909,-408.177,0,0
383306,82.8967,-408.577,0,0
383566,82.7162,-409.045,0,0
383826,82.5642,-409.463,0,0
384087,82.2913,-409.886,0,0
384347,81.9607,-410.321,0,0
384607,81.5872,-410.612,0,0
384868,81.1372,-410.985,0,0
385128,80.705,-411.247,0,0
385388,80.189,-411.444,0,0
385649,79.6569,-411.602,0,0
385909,79.101,-411.749,0,0
386169,78.5775,-411.855,0,0
386430,77.9309,-411.908,0,0
386690,77.2854,-411.876,0,0
386950,76.6576,-411.815,0,0
387211,76.0241,-411.668,0,0
387471,75.4082,-411.514,0,0
387731,74.8135,-411.316,0,0
387992,74.2073,-410.994,0,0
388252,73.6176,-410.68,0,0
388512,73.1259,-410.295,0,0
388773,72.6554,-409.898,0,0
389033,72.1856,-409.455,0,0
389293,71.78,-409.053,0,0
389554,71.4097,-408.594,0,0
389814,71.11,-408.216,0,0
390074,70.7764,-407.793,0,0
390335,70.5368,-407.402,0,0
390595,70.2548,-407.041,0,0
390855,69.9461,-406.678,0,0
391116,69.7104,-406.376,0,0
391376,69.4187,-406.024,0,0
391636,69.1728,-405.714,0,0
391896,68.9096,-405.407,0,0
392157,68.5905,-405.148,0,0
392417,68.3433,-404.868,0,0
392677,67.9997,-404.617,0,0
392938,67.622,-404.351,0,0
393198,67.2259,-404.044,0,0
393458,66.7938,-403.835,0,0
393719,66.3604,-403.475,0,0
393979,65.9177,-403.155,0,0
394239,65.411,-402.799,0,0
394500,64.9572,-402.419,0,0
394760.05,64.4289,-401.964,0,0
395020.375,63.9247,-401.463,0,0
395280.7,63.4493,-400.91,0,0
395541.025,62.945,-400.388,0,0
395801.35,62.4992,-399.815,0,0
396061.675,62.1144,-399.176,0,0
396322.0,61.6801,-398.57,0,0
396582.325,61.3062,-397.905,0,0
396842.65,60.9339,-397.234,0,0
397102.975,60.6208,-396.579,0,0
397363.3,60.3134,-395.881,0,0
397623.625,60.0022,-395.215,0,0
397883.95,59.727,-394.504,0,0
398144.275,59.4825,-393.823,0,0
398404.6,59.2487,-393.13,0,0
398664.925,59.0159,-392.428,0,0
398925.25,58.8313,-391.699,0,0
399185.575,58.6315,-390.998,0,0
399445.9,58.4375,-390.298,0,0
399706.225,58.2873,-389.532,0,0
399966.55,58.1507,-388.836,0,0
400006.6,58.0952,-388.735,0,0