File: Accelerated corrosion test data/2025-10-17_06-53-44/sample_2.csv
Frequency (Hz),Impedance (ohms),Phase (Radians),Temperature (C),Humidity (%)
10000.0,227.308,-11450.5,0,0
10260.325,222.041,-11162.8,0,0
10520.65,216.841,-10888.7,0,0
10780.975,211.964,-10627.3,0,0
11041.3,206.622,-10379.4,0,0
11301.625,202.2,-10141.1,0,0
11561.95,198.475,-9913.67,0,0
11822.275,197.808,-9704.93,0,0
12082.6,191.112,-9493.47,0,0
12342.925,186.487,-9296.33,0,0
12603.25,182.001,-9104.77,0,0
12863.575,178.81,-8920.37,0,0
13123.9,176.496,-8746.99,0,0
13384.225,172.133,-8575.19,0,0
13644.55,169.633,-8410.69,0,0
13904.875,185.221,-8256.19,0,0
14165.2,163.181,-8111.21,0,0
14425.525,159.863,-7962.21,0,0
14685.8,161.975,-7816.31,0,0
14946.175,158.628,-7686.39,0,0
15206.5,162.548,-7566.27,0,0
15466.825,158.531,-7429.58,0,0
15727.15,150.931,-7316.36,0,0
15987.5,147.24,-7194.59,0,0
16247.8,147.446,-7080.04,0,0
16508.125,142.043,-6969.78,0,0
16768.45,139.884,-6861.55,0,0
17028.775,138.49,-6757.02,0,0
17289.1,137.233,-6656.07,0,0
17549.425,133.533,-6557.1,0,0
17809.75,132.048,-6461.58,0,0
18070.075,129.832,-6367.7,0,0
18330.4,128.062,-6276.77,0,0
18590.725,127.587,-6188.61,0,0
18851.05,125.975,-6102.74,0,0
19111.375,127.624,-6020.55,0,0
19371.7,127.732,-5942.93,0,0
19632.025,122.186,-5864.82,0,0
19892.35,119.882,-5786.89,0,0
20152.675,118.182,-5710.96,0,0
20413.0,117.397,-5636.82,0,0
20673.3,116.647,-5564.02,0,0
20933.65,117.189,-5492.31,0,0
21193.975,122.365,-5424.6,0,0
21454.3,130.052,-5362.93,0,0
21714.625,126.562,-5307.39,0,0
21974.9,120.875,-5241.93,0,0
22235.275,117.956,-5187.69,0,0
22495.6,114.097,-5126.9,0,0
22755.925,111.008,-5065.49,0,0
23016.25,111.931,-5010.51,0,0
23276.6,112.237,-4955.79,0,0
23536.9,108.202,-4901,0,0
23797.225,106.41,-4846.58,0,0
24057.55,105.496,-4794.91,0,0
24317.875,101.869,-4744.24,0,0
24578.2,100.645,-4693.01,0,0
24838.525,99.6902,-4642.72,0,0
25098.85,98.9509,-4593.89,0,0
25359.175,97.2316,-4546.6,0,0
25619.5,96.7148,-4499.74,0,0
25879.8,95.1461,-4453.76,0,0
26140.1,95.9259,-4408.72,0,0
26400.5,94.9927,-4365.68,0,0
26660.8,95.4796,-4323.53,0,0
26921.1,94.3114,-4281.19,0,0
27181.4,93.6296,-4241.48,0,0
27441.8,91.7629,-4201.19,0,0
27702.1,90.1455,-4160.92,0,0
27962.4,89.027,-4120.03,0,0
28222.7,89.5897,-4082.01,0,0
28483.1,89.3488,-4044.2,0,0
28743.4,88.2019,-4006.42,0,0
29003.7,89.735,-3969.26,0,0
29264,89.3732,-3932.56,0,0
29524.4,92.668,-3897.28,0,0
29784.7,96.18,-3868.43,0,0
30045,92.7075,-3836.81,0,0
30305.3,93.4322,-3803.49,0,0
30565.7,90.5079,-3776.19,0,0
30826,86.773,-3743.16,0,0
31086.3,85.8611,-3711.05,0,0
31346.6,84.1391,-3679.54,0,0
31607,84.6075,-3649.2,0,0
31867.3,82.7279,-3619.41,0,0
32127.6,81.4954,-3588.62,0,0
32387.9,81.6832,-3558.18,0,0
32648.3,83.3911,-3530.77,0,0
32908.6,82.7428,-3504.46,0,0
33168.9,81.0354,-3477.58,0,0
33429.2,79.094,-3450.12,0,0
33689.6,79.204,-3423.01,0,0
33949.9,78.0184,-3397.03,0,0
34210.2,76.6822,-3370.95,0,0
34470.5,75.619,-3344.86,0,0
34730.9,75.1597,-3318.98,0,0
34991.2,74.6404,-3293.76,0,0
35251.5,74.0341,-3269.22,0,0
35511.8,73.6526,-3244.73,0,0
35772.2,73.1547,-3220.65,0,0
36032.5,72.5616,-3197.43,0,0
36292.8,72.2335,-3174.01,0,0
36553.1,71.5519,-3150.75,0,0
36813.5,71.0504,-3128.08,0,0
37073.8,70.6853,-3105.84,0,0
37334.1,70.5083,-3083.54,0,0
37594.4,70.2709,-3062.25,0,0
37854.8,70.04,-3040.76,0,0
38115.1,69.544,-3020.16,0,0
38375.4,68.8551,-2999.35,0,0
38635.7,68.1824,-2978.51,0,0
38896.1,68.3636,-2958.06,0,0
39156.4,67.7096,-2938.19,0,0
39416.7,67.2927,-2918.35,0,0
39677,67.0278,-2898.9,0,0
39937.4,66.5208,-2879.59,0,0
40197.7,66.1677,-2860.25,0,0
40458,65.7603,-2841.46,0,0
40718.3,65.6455,-2822.73,0,0
40978.7,65.6037,-2804.35,0,0
41239,65.1852,-2786.24,0,0
41499.3,65.2614,-2768.66,0,0
41759.6,64.8097,-2751.09,0,0
42020,64.7301,-2733.51,0,0
42280.275,64.6393,-2716.48,0,0
42540.6,64.0248,-2699.68,0,0
42800.925,63.8632,-2682.91,0,0
43061.25,63.2873,-2666.09,0,0
43321.575,63.3112,-2649.65,0,0
43581.9,62.9076,-2633.57,0,0
43842.225,62.7271,-2617.5,0,0
44102.55,62.5753,-2601.68,0,0
44362.875,62.4769,-2585.91,0,0
44623.2,62.2577,-2570.64,0,0
44883.525,61.7307,-2555.33,0,0
45143.85,61.6572,-2539.64,0,0
45404.175,61.6676,-2525.02,0,0
45664.5,61.0264,-2510.22,0,0
45924.825,61.4011,-2494.87,0,0
46185.15,61.6357,-2481.35,0,0
46445.475,60.7244,-2467.24,0,0
46705.8,60.5142,-2452.73,0,0
46966.125,60.626,-2438.54,0,0
47226.45,60.4489,-2424.4,0,0
47486.775,60.6441,-2411.33,0,0
47747.1,59.8889,-2397.52,0,0
48007.425,59.9609,-2383.96,0,0
48267.75,60.6417,-2370.4,0,0
48528.075,61.1244,-2358.35,0,0
48788.4,60.8626,-2345.89,0,0
49048.725,60.3218,-2333.68,0,0
49309.05,59.7552,-2321.36,0,0
49569.375,58.8266,-2308.78,0,0
49829.7,58.3396,-2296.19,0,0
50090.025,58.2097,-2283.81,0,0
50350.35,57.4819,-2271.45,0,0
50610.675,57.3073,-2259.01,0,0
50871.0,57.4001,-2247.08,0,0
51131.325,57.2058,-2235.33,0,0
51391.65,56.9223,-2223.7,0,0
51651.975,56.3342,-2212.05,0,0
51912.3,55.951,-2200.63,0,0
52172.625,55.4304,-2188.91,0,0
52432.95,55.263,-2177.54,0,0
52693.275,55.0319,-2166.15,0,0
52953.6,54.7546,-2154.72,0,0
53213.925,54.6342,-2143.66,0,0
53474.25,54.5448,-2132.59,0,0
53734.575,54.3119,-2121.78,0,0
53994.9,54.1164,-2110.83,0,0
54255.225,54.0232,-2100,0,0
54515.55,53.9874,-2089.34,0,0
54775.875,54.0378,-2079.02,0,0
55036.2,53.7997,-2068.6,0,0
55296.525,53.7427,-2058.18,0,0
55556.85,53.644,-2047.8,0,0
55817.175,53.6844,-2037.76,0,0
56077.5,53.6234,-2027.78,0,0
56337.825,53.5805,-2017.8,0,0
56598.15,53.6112,-2007.85,0,0
56858.475,53.5658,-1998.07,0,0
57118.8,53.5768,-1988.36,0,0
57379.125,53.6439,-1978.9,0,0
57639.45,53.5831,-1969.34,0,0
57899.775,53.8231,-1959.95,0,0
58160.1,53.8509,-1950.73,0,0
58420.4,53.7577,-1941.37,0,0
58680.7,53.7825,-1932.09,0,0
58941.1,53.9085,-1922.81,0,0
59201.4,54.0781,-1913.69,0,0
59461.7,54.3849,-1904.66,0,0
59722,54.5348,-1895.63,0,0
59982.4,55.263,-1886.72,0,0
60242.7,55.9655,-1878.53,0,0
60503,56.1562,-1870.49,0,0
60763.3,56.027,-1862.09,0,0
61023.7,56.4249,-1853.56,0,0
61284,56.9511,-1845.35,0,0
61544.3,57.77,-1837.34,0,0
61804.6,58.6227,-1830.1,0,0
62065,58.7958,-1823.7,0,0
62325.3,57.7921,-1816.37,0,0
62585.6,57.4322,-1808.83,0,0
62845.9,57.3339,-1801.55,0,0
63106.3,56.4411,-1794.84,0,0
63366.6,55.3379,-1786.72,0,0
63626.9,54.9687,-1779.11,0,0
63887.2,54.3049,-1771.44,0,0
64147.6,53.8109,-1763.79,0,0
64407.9,53.1931,-1756.2,0,0
64668.2,53.04,-1748.88,0,0
64928.5,52.0391,-1741.63,0,0
65188.9,50.8963,-1733.54,0,0
65449.2,50.4621,-1725.22,0,0
65709.5,50.3337,-1717.08,0,0
65969.8,50.5916,-1709.41,0,0
66230.2,50.6255,-1701.81,0,0
66490.5,50.7731,-1694.31,0,0
66750.8,50.9429,-1687.11,0,0
67011.1,50.8507,-1679.65,0,0
67271.5,51.0924,-1672.06,0,0
67531.8,51.6933,-1664.84,0,0
67792.1,52.0927,-1657.53,0,0
68052.4,53.024,-1651.02,0,0
68312.8,53.3657,-1644.83,0,0
68573.1,53.1754,-1637.93,0,0
68833.4,53.899,-1631.1,0,0
69093.7,54.5997,-1625.06,0,0
69354.1,54.9645,-1619.13,0,0
69614.4,55.2471,-1613.06,0,0
69874.7,55.6199,-1607.72,0,0
70135,55.434,-1602.23,0,0
70395.4,55.244,-1597.06,0,0
70655.7,54.1136,-1591.81,0,0
70916,53.0133,-1585.8,0,0
71176.3,52.3069,-1579.56,0,0
71436.7,51.7216,-1573.36,0,0
71697,51.0426,-1567.59,0,0
71957.3,50.091,-1561.85,0,0
72217.6,48.8546,-1555.64,0,0
72478,47.7614,-1549.05,0,0
72738.3,46.9177,-1542.4,0,0
72998.6,46.307,-1535.51,0,0
73258.9,46.0983,-1529.04,0,0
73519.3,45.5157,-1522.69,0,0
73779.6,45.0592,-1516,0,0
74039.9,44.808,-1509.26,0,0
74300.225,44.8194,-1502.68,0,0
74560.55,44.8914,-1496.33,0,0
74820.875,44.91,-1489.96,0,0
75081.2,45.0561,-1483.62,0,0
75341.525,45.2816,-1477.39,0,0
75601.85,45.5749,-1471.21,0,0
75862.175,45.9071,-1465.06,0,0
76122.5,46.2704,-1458.98,0,0
76382.825,46.764,-1453.21,0,0
76643.15,47.1929,-1447.36,0,0
76903.475,47.6313,-1441.67,0,0
77163.8,48.1758,-1435.86,0,0
77424.125,48.8359,-1430.31,0,0
77684.45,49.497,-1424.84,0,0
77944.775,50.2725,-1419.56,0,0
78205.1,51.0441,-1414.49,0,0
78465.425,51.8208,-1409.69,0,0
78725.75,52.3676,-1405.05,0,0
78986.075,52.8637,-1400.52,0,0
79246.4,53.1049,-1396.17,0,0
79506.725,53.2391,-1391.94,0,0
79767.05,53.1113,-1387.82,0,0
80027.375,52.5372,-1383.63,0,0
80287.7,51.6112,-1379.02,0,0
80548.025,51.0146,-1374.11,0,0
80808.35,50.354,-1369.13,0,0
81068.675,49.877,-1364.12,0,0
81329.0,49.5099,-1359,0,0
81589.325,49.1065,-1353.98,0,0
81849.65,48.7012,-1348.86,0,0
82109.975,48.3754,-1343.7,0,0
82370.3,48.1944,-1338.56,0,0
82630.625,48.023,-1333.39,0,0
82890.95,47.9245,-1328.15,0,0
83151.275,47.9605,-1323.05,0,0
83411.6,48.1415,-1318.02,0,0
83671.925,48.2696,-1313.11,0,0
83932.25,48.4587,-1308.12,0,0
84192.575,48.67,-1303.35,0,0
84452.9,48.8278,-1298.68,0,0
84713.225,48.8627,-1293.94,0,0
84973.55,48.9929,-1289.26,0,0
85233.875,49.0622,-1284.57,0,0
85494.2,49.3045,-1279.87,0,0
85754.525,49.6694,-1275.16,0,0
86014.85,49.944,-1270.88,0,0
86275.175,50.149,-1266.36,0,0
86535.5,50.3544,-1262.09,0,0
86795.825,50.3879,-1257.78,0,0
87056.15,50.5355,-1253.34,0,0
87316.475,50.8296,-1248.98,0,0
87576.8,50.9544,-1244.85,0,0
87837.125,50.9382,-1240.74,0,0
88097.45,50.9197,-1236.41,0,0
88357.775,51.0366,-1232.16,0,0
88618.1,51.1243,-1228.1,0,0
88878.425,50.7784,-1223.92,0,0
89138.75,50.6791,-1219.12,0,0
89399.075,51.2262,-1214.82,0,0
89659.4,51.2726,-1210.64,0,0
89919.725,51.7892,-1206.46,0,0
90180,52.0695,-1202.81,0,0
90440.4,51.7323,-1198.96,0,0
90700.7,51.1897,-1194.65,0,0
90961,51.2832,-1189.9,0,0
91221.3,51.9094,-1185.46,0,0
91481.7,52.3717,-1181.62,0,0
91742,52.5723,-1177.72,0,0
92002.3,52.7502,-1173.61,0,0
92262.6,53.2544,-1169.34,0,0
92523,53.9777,-1165.53,0,0
92783.3,54.3881,-1161.92,0,0
93043.6,54.7958,-1158.21,0,0
93303.9,55.1552,-1154.75,0,0
93564.3,55.4105,-1151.17,0,0
93824.6,55.9562,-1147.73,0,0
94084.9,56.0997,-1144.87,0,0
94345.2,55.6733,-1141.79,0,0
94605.6,55.1972,-1138,0,0
94865.9,55.2406,-1134.26,0,0
95126.2,55.1558,-1131.01,0,0
95386.5,54.4154,-1127.41,0,0
95646.9,53.8048,-1123.08,0,0
95907.2,54.152,-1118.49,0,0
96167.5,54.9263,-1114.36,0,0
96427.8,55.7427,-1110.79,0,0
96688.2,56.4167,-1107.47,0,0
96948.5,57.0687,-1104.21,0,0
97208.8,57.7822,-1101.21,0,0
97469.1,58.2123,-1098.65,0,0
97729.5,57.994,-1096.11,0,0
97989.8,57.7361,-1093.26,0,0
98250.1,57.5087,-1090.19,0,0
98510.4,57.4962,-1087.32,0,0
98770.8,57.2167,-1084.7,0,0
99031.1,56.6359,-1082.06,0,0
99291.4,55.7881,-1079.32,0,0
99551.7,54.626,-1076.3,0,0
99812.1,53.3323,-1072.74,0,0
100072,52.7086,-1068.76,0,0
100333,52.449,-1065.05,0,0
100593,52.1981,-1061.85,0,0
100853,51.4479,-1058.74,0,0
101114,50.5386,-1055.36,0,0
101374,49.5565,-1051.91,0,0
101634,48.3279,-1048.01,0,0
101895,47.3679,-1043.62,0,0
102155,47.0482,-1039.23,0,0
102415,46.8788,-1035.11,0,0
102676,46.6607,-1031.18,0,0
102936,46.1653,-1027.16,0,0
103196,45.8624,-1022.85,0,0
103457,45.696,-1018.44,0,0
103717,45.927,-1013.96,0,0
103977,46.2619,-1009.68,0,0
104238,46.7095,-1005.41,0,0
104498,47.4653,-1001.23,0,0
104758,48.3149,-997.392,0,0
105019,49.1578,-993.685,0,0
105279,49.9283,-990.102,0,0
105539,50.6679,-986.43,0,0
105800,51.7235,-982.845,0,0
106060,52.8528,-979.632,0,0
106320.175,53.8946,-976.576,0,0
106580.5,54.9779,-973.694,0,0
106840.825,55.9736,-971.165,0,0
107101.15,56.6613,-968.822,0,0
107361.475,57.2848,-966.559,0,0
107621.8,57.5227,-964.488,0,0
107882.125,57.5212,-962.184,0,0
108142.45,57.4672,-960.019,0,0
108402.775,56.956,-957.755,0,0
108663.1,56.5299,-955.07,0,0
108923.425,56.0208,-952.453,0,0
109183.75,55.3261,-949.778,0,0
109444.075,54.6859,-946.747,0,0
109704.4,54.164,-943.72,0,0
109964.725,53.4816,-940.608,0,0
110225.05,52.7349,-937.315,0,0
110485.375,52.1699,-933.772,0,0
110745.7,51.8153,-930.219,0,0
111006.025,51.6672,-926.59,0,0
111266.35,51.4742,-922.949,0,0
111526.675,51.4167,-919.433,0,0
111787.0,51.322,-915.872,0,0
112047.325,51.553,-912.126,0,0
112307.65,51.744,-908.848,0,0
112567.975,51.7372,-905.388,0,0
112828.3,51.9303,-901.876,0,0
113088.625,52.083,-898.421,0,0
113348.95,52.3947,-894.743,0,0
113609.275,52.8077,-891.354,0,0
113869.6,53.1769,-888.127,0,0
114129.925,53.5081,-884.733,0,0
114390.25,53.9353,-881.282,0,0
114650.575,54.4309,-877.972,0,0
114910.9,54.9032,-874.615,0,0
115171.225,55.5323,-871.218,0,0
115431.55,56.1675,-868.084,0,0
115691.875,56.861,-864.926,0,0
115952.2,57.4063,-861.791,0,0
116212.525,58.1433,-858.63,0,0
116472.85,58.875,-855.568,0,0
116733.175,59.6759,-852.59,0,0
116993.5,60.4178,-849.669,0,0
117253.825,61.1373,-846.753,0,0
117514.15,61.9384,-843.836,0,0
117774.475,62.8436,-841.004,0,0
118034.8,63.8175,-838.368,0,0
118295.125,64.6237,-835.908,0,0
118555.45,65.3282,-833.37,0,0
118815.775,66.1249,-830.811,0,0
119076.1,66.9969,-828.524,0,0
119336.425,67.5837,-826.348,0,0
119596.75,68.1853,-823.991,0,0
119857.075,68.8213,-821.848,0,0
120117.4,69.2866,-819.785,0,0
120377.725,69.6222,-817.758,0,0
120638.05,69.9035,-815.733,0,0
120898.375,69.9673,-813.76,0,0
121158.7,69.8491,-811.66,0,0
121419.025,69.7315,-809.335,0,0
121679.35,69.6755,-807.019,0,0
121939.675,69.5109,-804.681,0,0
122200.0,69.3083,-802.258,0,0
122460,69.049,-799.7,0,0
122721,68.9138,-797.058,0,0
122981,68.8159,-794.399,0,0
123241,68.7429,-791.752,0,0
123502,68.7169,-789.089,0,0
123762,68.6167,-786.485,0,0
124022,68.4406,-783.723,0,0
124283,68.3538,-780.94,0,0
124543,68.2615,-778.104,0,0
124803,68.2015,-775.233,0,0
125064,68.1315,-772.278,0,0
125324,68.1704,-769.275,0,0
125584,68.2407,-766.301,0,0
125845,68.3874,-763.272,0,0
126105,68.5619,-760.208,0,0
126365,68.8151,-757.197,0,0
126626,69.1065,-754.161,0,0
126886,69.4191,-751.153,0,0
127146,69.7876,-748.059,0,0
127406,70.3219,-744.975,0,0
127667,70.951,-741.984,0,0
127927,71.6006,-739.152,0,0
128187,72.2187,-736.348,0,0
128448,72.8552,-733.58,0,0
128708,73.4805,-730.867,0,0
128968,74.1478,-728.183,0,0
129229,74.8042,-725.601,0,0
129489,75.3534,-723.151,0,0
129749,75.7956,-720.615,0,0
130010,76.2187,-717.999,0,0
130270,76.7713,-715.356,0,0
130530,77.3451,-712.761,0,0
130791,77.956,-710.25,0,0
131051,78.5608,-707.821,0,0
131311,78.9945,-705.53,0,0
131572,79.3424,-703.168,0,0
131832,79.6355,-700.758,0,0
132092,79.8683,-698.39,0,0
132353,79.9752,-695.929,0,0
132613,80.0324,-693.28,0,0
132873,80.1971,-690.519,0,0
133134,80.4702,-687.759,0,0
133394,80.7759,-685.043,0,0
133654,81.0973,-682.284,0,0
133915,81.3998,-679.575,0,0
134175,81.7031,-676.945,0,0
134435,81.8643,-674.199,0,0
134696,82.0087,-671.337,0,0
134956,82.2529,-668.38,0,0
135216,82.5395,-665.381,0,0
135477,82.8909,-662.332,0,0
135737,83.398,-659.271,0,0
135997,83.9012,-656.239,0,0
136258,84.4339,-653.198,0,0
136518,85.0803,-650.2,0,0
136778,85.6177,-647.273,0,0
137039,86.1312,-644.283,0,0
137299,86.6741,-641.206,0,0
137559,87.3738,-638.131,0,0
137819,88.1072,-635.128,0,0
138080,88.8296,-632.166,0,0
138340.125,89.4648,-629.235,0,0
138600.45,90.0239,-626.238,0,0
138860.775,90.5949,-623.127,0,0
139121.1,91.2758,-619.951,0,0
139381.425,91.9885,-616.819,0,0
139641.75,92.678,-613.684,0,0
139902.075,93.2805,-610.479,0,0
140162.4,93.8584,-607.032,0,0
140422.725,94.5953,-603.449,0,0
140683.05,95.4763,-599.76,0,0
140943.375,96.5426,-596.03,0,0
141203.7,97.7316,-592.244,0,0
141464.025,99.1926,-588.429,0,0
141724.35,100.816,-584.754,0,0
141984.675,102.537,-581.135,0,0
142245.0,104.386,-577.613,0,0
142505.325,106.315,-574.127,0,0
142765.65,108.433,-570.784,0,0
143025.975,110.573,-567.632,0,0
143286.3,112.57,-564.645,0,0
143546.625,114.497,-561.584,0,0
143806.95,116.511,-558.435,0,0
144067.275,118.621,-555.342,0,0
144327.6,120.77,-552.315,0,0
144587.925,122.89,-549.318,0,0
144848.25,124.993,-546.208,0,0
145108.575,127.326,-543.048,0,0
145368.9,129.799,-539.999,0,0
145629.225,132.331,-536.994,0,0
145889.55,134.951,-534.121,0,0
146149.875,137.542,-531.291,0,0
146410.2,140.191,-528.437,0,0
146670.525,142.915,-525.581,0,0
146930.85,145.695,-522.764,0,0
147191.175,148.552,-519.88,0,0
147451.5,151.625,-516.955,0,0
147711.825,154.934,-514.133,0,0
147972.15,158.337,-511.457,0,0
148232.475,161.805,-508.76,0,0
148492.8,165.553,-506.057,0,0
148753.125,169.489,-503.442,0,0
149013.45,173.764,-500.811,0,0
149273.775,178.643,-498.442,0,0
149534.1,183.849,-496.673,0,0
149794.425,189.128,-495.451,0,0
150054.75,194.398,-494.648,0,0
150315.075,199.78,-494.14,0,0
150575.4,205.5,-494.228,0,0
150835.725,211.145,-495.407,0,0
151096.05,216.042,-497.298,0,0
151356.375,220.297,-499.37,0,0
151616.7,224.333,-501.581,0,0
151877.025,228.084,-504.328,0,0
152137.35,231.034,-507.469,0,0
152397.675,233.252,-510.524,0,0
152658.0,234.983,-513.445,0,0
152918.325,236.318,-516.178,0,0
153178.65,237.4,-518.727,0,0
153438.975,238.302,-521.362,0,0
153699.3,238.683,-524.066,0,0
153959.625,238.467,-526.592,0,0
154219.95,237.774,-528.648,0,0
154480,236.879,-530.107,0,0
154741,236.054,-531.292,0,0
155001,235.081,-532.127,0,0
155261,234.293,-532.679,0,0
155522,233.74,-532.976,0,0
155782,233.184,-533.53,0,0
156042,232.356,-534.276,0,0
156303,231.054,-534.511,0,0
156563,229.996,-534.492,0,0
156823,228.847,-534.32,0,0
157084,227.47,-534.119,0,0
157344,225.92,-533.249,0,0
157604,224.562,-531.733,0,0
157864,223.93,-530.018,0,0
158125,223.716,-528.439,0,0
158385,223.441,-526.902,0,0
158645,223.501,-525.272,0,0
158906,223.99,-523.988,0,0
159166,224.367,-522.972,0,0
159426,224.483,-522.001,0,0
159687,224.695,-521.037,0,0
159947,224.83,-520.181,0,0
160207,224.879,-519.33,0,0
160468,224.894,-518.507,0,0
160728,224.651,-517.505,0,0
160988,224.352,-516.12,0,0
161249,224.61,-514.063,0,0
161509,225.725,-512.354,0,0
161769,227.106,-511.28,0,0
162030,228.745,-510.437,0,0
162290,230.61,-510.783,0,0
162550,231.752,-512.024,0,0
162811,232.01,-513.58,0,0
163071,231.317,-515.116,0,0
163331,229.848,-516.374,0,0
163592,227.962,-517.111,0,0
163852,225.866,-517.466,0,0
164112,223.349,-517.644,0,0
164373,220.439,-517.246,0,0
164633,217.609,-515.941,0,0
164893,214.881,-514.492,0,0
165154,212.113,-512.773,0,0
165414,209.389,-510.743,0,0
165674,206.497,-508.248,0,0
165935,203.755,-505.044,0,0
166195,201.656,-501.642,0,0
166455,199.737,-498.16,0,0
166716,197.826,-494.513,0,0
166976,196.121,-490.391,0,0
167236,195.075,-486.242,0,0
167497,194.117,-482.267,0,0
167757,193.174,-478.092,0,0
168017,192.36,-473.764,0,0
168277,191.77,-469.311,0,0
168538,191.521,-464.642,0,0
168798,191.721,-460.136,0,0
169058,192.028,-455.915,0,0
169319,192.244,-451.748,0,0
169579,192.268,-447.361,0,0
169839,192.695,-442.543,0,0
170100,193.673,-437.848,0,0
170360.075,194.841,-433.552,0,0
170620.4,195.879,-429.565,0,0
170880.725,196.422,-425.432,0,0
171141.05,196.987,-420.731,0,0
171401.375,198.151,-415.706,0,0
171661.7,199.678,-410.89,0,0
171922.025,201.382,-406.245,0,0
172182.35,203.196,-401.703,0,0
172442.675,204.907,-397.034,0,0
172703.0,206.901,-392.291,0,0
172963.325,209.186,-387.545,0,0
173223.65,211.467,-383.065,0,0
173483.975,213.826,-378.456,0,0
173744.3,216.204,-373.558,0,0
174004.625,218.974,-368.592,0,0
174264.95,221.964,-363.666,0,0
174525.275,225.311,-358.668,0,0
174785.6,229.148,-353.66,0,0
175045.925,233.366,-348.986,0,0
175306.25,237.818,-344.568,0,0
175566.575,242.473,-340.387,0,0
175826.9,247.453,-336.46,0,0
176087.225,252.652,-333.018,0,0
176347.55,257.705,-330.114,0,0
176607.875,262.69,-327.358,0,0
176868.2,267.493,-324.735,0,0
177128.525,272.363,-321.991,0,0
177388.85,277.587,-319.326,0,0
177649.175,283.262,-317.186,0,0
177909.5,289.003,-315.636,0,0
178169.825,294.551,-314.92,0,0
178430.15,299.463,-314.542,0,0
178690.475,304.133,-314.299,0,0
178950.8,308.555,-314.403,0,0
179211.125,312.438,-314.755,0,0
179471.45,315.893,-315.36,0,0
179731.775,318.719,-314.943,0,0
179992.1,320.748,-315.583,0,0
180252.425,322.144,-315.46,0,0
180512.75,323.15,-314.754,0,0
180773.075,323.987,-313.409,0,0
181033.4,324.703,-311.508,0,0
181293.725,325.254,-308.729,0,0
181554.05,326.084,-304.888,0,0
181814.375,327.929,-300.401,0,0
182074.7,330.636,-295.88,0,0
182335.025,334.029,-291.592,0,0
182595.35,337.589,-287.813,0,0
182855.675,340.789,-284.081,0,0
183116.0,343.992,-279.863,0,0
183376.325,347.855,-275.033,0,0
183636.65,352.316,-270.329,0,0
183896.975,357.226,-265.851,0,0
184157.3,362.212,-261.432,0,0
184417.625,367.476,-256.747,0,0
184677.95,373.459,-251.805,0,0
184938.275,380.342,-247.316,0,0
185198.6,387.64,-243.45,0,0
185458.925,394.939,-240.278,0,0
185719.25,402.081,-237.279,0,0
185979.575,409.399,-234.395,0,0
186239.9,416.96,-231.697,0,0
186500,424.689,-229.444,0,0
186761,432.293,-227.634,0,0
187021,439.404,-225.689,0,0
187281,446.962,-222.984,0,0
187542,455.252,-220.689,0,0
187802,463.969,-218.888,0,0
188062,472.602,-217.584,0,0
188322,481.386,-216.583,0,0
188583,490.296,-215.989,0,0
188843,499.001,-216.109,0,0
189103,506.852,-216.357,0,0
189364,514.245,-216.124,0,0
189624,522.017,-215.254,0,0
189884,530.127,-214.294,0,0
190145,538.563,-212.812,0,0
190405,547.877,-211.512,0,0
190665,557.556,-210.651,0,0
190926,567.356,-209.889,0,0
191186,577.55,-208.955,0,0
191446,588.635,-208.034,0,0
191707,600.479,-207.777,0,0
191967,612.62,-208.004,0,0
192227,625.355,-208.552,0,0
192488,638.74,-209.71,0,0
192748,652.669,-211.568,0,0
193008,667.223,-214.201,0,0
193269,682.376,-217.815,0,0
193529,697.953,-222.931,0,0
193789,713.53,-229.397,0,0
194050,728.972,-237.453,0,0
194310,743.588,-246.935,0,0
194570,757.333,-257.151,0,0
194831,770.22,-268.238,0,0
195091,782.568,-279.977,0,0
195351,794.049,-292.432,0,0
195612,804.461,-305.434,0,0
195872,813.9,-318.356,0,0
196132,822.875,-331.276,0,0
196393,831.409,-344.364,0,0
196653,839.473,-357.599,0,0
196913,847.172,-371.026,0,0
197174,854.377,-384.423,0,0
197434,861.443,-397.813,0,0
197694,868.824,-411.419,0,0
197955,876.435,-425.98,0,0
198215,883.578,-441.75,0,0
198475,889.858,-458.702,0,0
198735,894.589,-476.545,0,0
198996,897.724,-494.36,0,0
199256,899.733,-511.992,0,0
199516,900.831,-528.939,0,0
199777,901.496,-545.517,0,0
200037,902.086,-562.046,0,0
200297,902.365,-579.163,0,0
200558,901.657,-596.839,0,0
200818,899.954,-614.39,0,0
201078,897.479,-632.121,0,0
201339,893.772,-650.397,0,0
201599,888.02,-668.461,0,0
201859,880.751,-685.009,0,0
202120,873.259,-699.794,0,0
202380.025,866.44,-714.202,0,0
202640.35,859.056,-728.982,0,0
202900.675,850.607,-743.771,0,0
203161.0,840.693,-757.926,0,0
203421.325,829.985,-770.798,0,0
203681.65,818.976,-782.13,0,0
203941.975,808.298,-792.338,0,0
204202.3,798.082,-802.187,0,0
204462.625,787.832,-811.588,0,0
204722.95,777.921,-820.927,0,0
204983.275,767.417,-830.442,0,0
205243.6,756.172,-840.088,0,0
205503.925,743.58,-848.964,0,0
205764.25,729.991,-856.19,0,0
206024.575,716.368,-861.615,0,0
206284.9,703.702,-865.693,0,0
206545.225,691.614,-869.186,0,0
206805.55,679.955,-872.098,0,0
207065.875,668.517,-874.305,0,0
207326.2,657.658,-875.913,0,0
207586.525,647.478,-876.904,0,0
207846.85,638.074,-877.538,0,0
208107.175,629.408,-878.035,0,0
208367.5,621.51,-878.67,0,0
208627.825,613.972,-879.468,0,0
208888.15,606.988,-880.259,0,0
209148.475,600.805,-881.658,0,0
209408.8,594.651,-883.991,0,0
209669.125,587.813,-887.25,0,0
209929.45,579.961,-890.591,0,0
210189.775,571.252,-893.501,0,0
210450.1,562.379,-895.628,0,0
210710.425,553.464,-897.445,0,0
210970.75,544.164,-898.844,0,0
211231.075,534.603,-899.822,0,0
211491.4,524.852,-899.997,0,0
211751.725,515.203,-899.503,0,0
212012.05,505.825,-897.953,0,0
212272.375,497.151,-895.748,0,0
212532.7,489.278,-893.481,0,0
212793.025,481.822,-891.205,0,0
213053.35,474.525,-888.884,0,0
213313.675,467.531,-886.331,0,0
213574.0,460.77,-883.608,0,0
213834.325,454.325,-880.81,0,0
214094.65,448.315,-877.837,0,0
214354.975,442.499,-874.885,0,0
214615.3,437.024,-871.908,0,0
214875.625,431.751,-868.778,0,0
215135.95,426.779,-865.758,0,0
215396.275,421.92,-862.861,0,0
215656.6,417.174,-859.864,0,0
215916.925,412.583,-856.561,0,0
216177.25,408.303,-853.278,0,0
216437.575,404.366,-850.003,0,0
216697.9,400.509,-846.801,0,0
216958.225,396.931,-843.477,0,0
217218.55,393.61,-840.164,0,0
217478.875,390.623,-836.832,0,0
217739.2,387.916,-833.706,0,0
217999.525,385.31,-830.798,0,0
218259.85,382.703,-827.986,0,0
218520,380.134,-825.069,0,0
218780,377.77,-822.069,0,0
219041,375.701,-819.173,0,0
219301,373.813,-816.312,0,0
219561,372.171,-813.535,0,0
219822,370.672,-810.907,0,0
220082,369.413,-808.425,0,0
220342,368.102,-806.313,0,0
220603,366.728,-804.12,0,0
220863,365.44,-801.998,0,0
221123,364.378,-799.781,0,0
221384,363.475,-797.589,0,0
221644,362.745,-795.676,0,0
221904,362.151,-793.873,0,0
222165,361.647,-792.17,0,0
222425,361.379,-790.626,0,0
222685,361.17,-789.343,0,0
222946,361.214,-788.378,0,0
223206,360.984,-787.799,0,0
223466,360.592,-787.514,0,0
223727,359.908,-787.237,0,0
223987,359.063,-786.966,0,0
224247,358.288,-786.491,0,0
224508,357.469,-786.088,0,0
224768,356.712,-785.898,0,0
225028,355.835,-785.724,0,0
225289,354.864,-785.51,0,0
225549,353.712,-785.292,0,0
225809,352.738,-784.736,0,0
226070,352.022,-784.343,0,0
226330,351.32,-784.033,0,0
226590,350.712,-783.681,0,0
226851,350.299,-783.343,0,0
227111,350.05,-783.226,0,0
227371,349.924,-783.419,0,0
227632,349.769,-783.865,0,0
227892,349.592,-784.557,0,0
228152,349.461,-785.539,0,0
228413,349.18,-786.737,0,0
228673,348.758,-788.3,0,0
228933,348.02,-790.128,0,0
229193,347.024,-792.159,0,0
229454,345.632,-794.201,0,0
229714,343.984,-796.276,0,0
229974,341.907,-798.234,0,0
230235,339.627,-800.289,0,0
230495,337.046,-802.098,0,0
230755,334.381,-803.8,0,0
231016,331.407,-805.373,0,0
231276,328.294,-806.728,0,0
231536,325.122,-807.878,0,0
231797,321.946,-808.847,0,0
232057,318.752,-809.732,0,0
232317,315.49,-810.632,0,0
232578,312.093,-811.39,0,0
232838,308.612,-811.988,0,0
233098,305.086,-812.386,0,0
233359,301.593,-812.687,0,0
233619,298.018,-812.858,0,0
233879,294.537,-812.931,0,0
234140,290.93,-812.861,0,0
234400,287.314,-812.649,0,0
234660.3,283.701,-812.326,0,0
234920.625,280.236,-811.735,0,0
235180.95,276.857,-811.189,0,0
235441.275,273.531,-810.655,0,0
235701.6,270.208,-810.077,0,0
235961.925,266.858,-809.376,0,0
236222.25,263.558,-808.633,0,0
236482.575,260.243,-807.896,0,0
236742.9,256.926,-807.094,0,0
237003.225,253.485,-806.202,0,0
237263.55,250.12,-805.187,0,0
237523.875,246.692,-804.055,0,0
237784.2,243.278,-802.833,0,0
238044.525,240.021,-801.397,0,0
238304.85,236.741,-799.91,0,0
238565.175,233.603,-798.316,0,0
238825.5,230.543,-796.73,0,0
239085.825,227.536,-795.051,0,0
239346.15,224.537,-793.246,0,0
239606.475,221.627,-791.501,0,0
239866.8,218.801,-789.46,0,0
240127.125,216.011,-787.614,0,0
240387.45,213.491,-785.559,0,0
240647.775,210.978,-783.499,0,0
240908.1,208.631,-781.4,0,0
241168.425,206.383,-779.388,0,0
241428.75,204.155,-777.329,0,0
241689.075,201.952,-775.416,0,0
241949.4,199.744,-773.437,0,0
242209.725,197.597,-771.417,0,0
242470.05,195.594,-769.3,0,0
242730.375,193.768,-767.245,0,0
242990.7,192.037,-765.212,0,0
243251.025,190.364,-763.292,0,0
243511.35,188.767,-761.49,0,0
243771.675,187.151,-759.824,0,0
244032.0,185.508,-758.222,0,0
244292.325,183.803,-756.606,0,0
244552.65,182.134,-754.987,0,0
244812.975,180.397,-753.499,0,0
245073.3,178.774,-752.046,0,0
245333.625,176.96,-750.644,0,0
245593.95,175.224,-749.249,0,0
245854.275,173.411,-748.005,0,0
246114.6,171.395,-746.827,0,0
246374.925,169.242,-745.7,0,0
246635.25,166.806,-744.377,0,0
246895.575,164.193,-742.99,0,0
247155.9,161.455,-741.378,0,0
247416.225,158.803,-739.426,0,0
247676.55,156.129,-737.332,0,0
247936.875,153.531,-735.084,0,0
248197.2,150.971,-732.619,0,0
248457.525,148.561,-730.067,0,0
248717.85,146.228,-727.502,0,0
248978.175,143.998,-724.81,0,0
249238.5,141.848,-721.936,0,0
249498.825,139.709,-719.091,0,0
249759.15,137.716,-716.14,0,0
250019.475,135.758,-713.137,0,0
250279.8,133.963,-710.057,0,0
250540,132.203,-706.919,0,0
250800,130.506,-703.612,0,0
251061,129.008,-700.243,0,0
251321,127.674,-696.805,0,0
251581,126.46,-693.377,0,0
251842,125.496,-689.79,0,0
252102,124.663,-686.34,0,0
252362,124.032,-682.945,0,0
252623,123.514,-679.632,0,0
252883,123.062,-676.358,0,0
253143,122.67,-673.237,0,0
253404,122.312,-670.099,0,0
253664,122.018,-666.996,0,0
253924,121.788,-663.92,0,0
254185,121.57,-660.846,0,0
254445,121.426,-657.763,0,0
254705,121.298,-654.743,0,0
254966,121.212,-651.621,0,0
255226,121.222,-648.502,0,0
255486,121.318,-645.322,0,0
255747,121.619,-642.11,0,0
256007,122.024,-638.953,0,0
256267,122.632,-635.765,0,0
256528,123.369,-632.703,0,0
256788,124.24,-629.75,0,0
257048,125.22,-626.876,0,0
257309,126.304,-624.142,0,0
257569,127.407,-621.526,0,0
257829,128.555,-619.032,0,0
258090,129.701,-616.615,0,0
258350,130.89,-614.246,0,0
258610,132.12,-611.942,0,0
258871,133.388,-609.704,0,0
259131,134.696,-607.506,0,0
259391,136.052,-605.372,0,0
259651,137.478,-603.246,0,0
259912,138.997,-601.177,0,0
260172,140.638,-599.237,0,0
260432,142.327,-597.409,0,0
260693,144.055,-595.709,0,0
260953,145.821,-594.144,0,0
261213,147.643,-592.713,0,0
261474,149.44,-591.378,0,0
261734,151.259,-590.152,0,0
261994,153.057,-589.063,0,0
262255,154.831,-588.061,0,0
262515,156.57,-587.125,0,0
262775,158.371,-586.317,0,0
263036,160.168,-585.617,0,0
263296,161.937,-585.024,0,0
263556,163.689,-584.593,0,0
263817,165.389,-584.265,0,0
264077,167.002,-584.059,0,0
264337,168.543,-583.975,0,0
264598,169.972,-583.966,0,0
264858,171.357,-583.971,0,0
265118,172.615,-584.114,0,0
265379,173.834,-584.249,0,0
265639,174.876,-584.476,0,0
265899,175.816,-584.706,0,0
266160,176.682,-584.863,0,0
266420,177.483,-585.025,0,0
266680.25,178.33,-585.167,0,0
266940.575,179.096,-585.393,0,0
267200.9,179.851,-585.661,0,0
267461.225,180.502,-585.928,0,0
267721.55,181.119,-586.259,0,0
267981.875,181.594,-586.607,0,0
268242.2,181.955,-586.998,0,0
268502.525,182.188,-587.292,0,0
268762.85,182.326,-587.562,0,0
269023.175,182.326,-587.709,0,0
269283.5,182.292,-587.751,0,0
269543.825,182.184,-587.645,0,0
269804.15,182.096,-587.387,0,0
270064.475,182.085,-586.935,0,0
270324.8,182.161,-586.452,0,0
270585.125,182.24,-585.852,0,0
270845.45,182.452,-585.154,0,0
271105.775,182.851,-584.355,0,0
271366.1,183.457,-583.546,0,0
271626.425,184.185,-582.788,0,0
271886.75,184.971,-582.064,0,0
272147.075,185.922,-581.408,0,0
272407.4,186.983,-580.699,0,0
272667.725,188.167,-580.004,0,0
272928.05,189.589,-579.39,0,0
273188.375,191.174,-578.944,0,0
273448.7,192.924,-578.603,0,0
273709.025,194.848,-578.506,0,0
273969.35,196.893,-578.59,0,0
274229.675,199.031,-578.867,0,0
274490.0,201.336,-579.398,0,0
274750.325,203.756,-580.282,0,0
275010.65,206.271,-581.522,0,0
275270.975,208.707,-583.272,0,0
275531.3,211.025,-585.522,0,0
275791.625,213.101,-588.199,0,0
276051.95,214.836,-591.296,0,0
276312.275,216.099,-594.801,0,0
276572.6,216.789,-598.511,0,0
276832.925,216.861,-602.317,0,0
277093.25,216.334,-606.006,0,0
277353.575,215.363,-609.457,0,0
277613.9,214.051,-612.674,0,0
277874.225,212.49,-615.656,0,0
278134.55,210.692,-618.39,0,0
278394.875,208.734,-620.878,0,0
278655.2,206.685,-623.155,0,0
278915.525,204.492,-625.267,0,0
279175.85,202.212,-627.164,0,0
279436.175,199.839,-628.878,0,0
279696.5,197.43,-630.492,0,0
279956.825,194.938,-631.905,0,0
280217.15,192.303,-633.265,0,0
280477.475,189.585,-634.343,0,0
280737.8,186.86,-635.173,0,0
280998.125,184.197,-635.821,0,0
281258.45,181.582,-636.353,0,0
281518.775,179.055,-636.843,0,0
281779.1,176.487,-637.316,0,0
282039.425,173.828,-637.769,0,0
282299.75,171.038,-638.117,0,0
282560,168.074,-638.323,0,0
282820,164.972,-638.266,0,0
283081,161.792,-637.86,0,0
283341,158.696,-637.064,0,0
283601,155.846,-635.907,0,0
283862,153.365,-634.576,0,0
284122,151.268,-633.243,0,0
284382,149.418,-632.154,0,0
284643,147.682,-631.337,0,0
284903,145.726,-630.738,0,0
285163,143.57,-630.185,0,0
285424,141.098,-629.524,0,0
285684,138.418,-628.695,0,0
285944,135.607,-627.567,0,0
286205,132.732,-626.149,0,0
286465,129.83,-624.382,0,0
286725,126.985,-622.263,0,0
286986,124.312,-619.718,0,0
287246,121.935,-616.914,0,0
287506,119.827,-613.88,0,0
287767,118.005,-610.689,0,0
288027,116.444,-607.345,0,0
288287,115.174,-603.9,0,0
288548,114.169,-600.307,0,0
288808,113.447,-596.545,0,0
289068,113.197,-592.627,0,0
289329,113.418,-588.688,0,0
289589,114.198,-584.789,0,0
289849,115.456,-581.124,0,0
290109,117.184,-577.766,0,0
290370,119.164,-574.799,0,0
290630,121.413,-572.109,0,0
290890,123.969,-569.743,0,0
291151,126.793,-567.782,0,0
291411,129.857,-566.287,0,0
291671,133.035,-565.351,0,0
291932,136.226,-565.006,0,0
292192,139.37,-565.213,0,0
292452,142.317,-566.064,0,0
292713,144.871,-567.491,0,0
292973,146.842,-569.39,0,0
293233,148.153,-571.521,0,0
293494,148.813,-573.623,0,0
293754,148.948,-575.573,0,0
294014,148.616,-577.214,0,0
294275,147.993,-578.506,0,0
294535,147.245,-579.388,0,0
294795,146.498,-579.857,0,0
295056,145.929,-580.059,0,0
295316,145.569,-579.958,0,0
295576,145.493,-579.839,0,0
295837,145.761,-579.684,0,0
296097,146.419,-579.674,0,0
296357,147.447,-580.068,0,0
296618,148.601,-581.097,0,0
296878,149.521,-582.816,0,0
297138,149.892,-585.013,0,0
297399,149.59,-587.399,0,0
297659,148.674,-589.72,0,0
297919,147.274,-591.761,0,0
298180,145.531,-593.485,0,0
298440,143.564,-594.874,0,0
298700.2,141.489,-595.889,0,0
298960.525,139.422,-596.627,0,0
299220.85,137.352,-597.121,0,0
299481.175,135.382,-597.447,0,0
299741.5,133.379,-597.692,0,0
300001.825,131.39,-597.748,0,0
300262.15,129.365,-597.666,0,0
300522.475,127.387,-597.402,0,0
300782.8,125.477,-596.901,0,0
301043.125,123.671,-596.208,0,0
301303.45,122.063,-595.377,0,0
301563.775,120.711,-594.455,0,0
301824.1,119.566,-593.549,0,0
302084.425,118.617,-592.704,0,0
302344.75,117.807,-591.955,0,0
302605.075,117.109,-591.339,0,0
302865.4,116.499,-590.923,0,0
303125.725,115.845,-590.673,0,0
303386.05,115.143,-590.555,0,0
303646.375,114.34,-590.552,0,0
303906.7,113.426,-590.622,0,0
304167.025,112.377,-590.741,0,0
304427.35,111.173,-590.855,0,0
304687.675,109.879,-590.937,0,0
304948.0,108.447,-591.004,0,0
305208.325,106.893,-590.948,0,0
305468.65,105.208,-590.795,0,0
305728.975,103.516,-590.546,0,0
305989.3,101.76,-590.146,0,0
306249.625,99.9876,-589.612,0,0
306509.95,98.2359,-589.003,0,0
306770.275,96.5137,-588.24,0,0
307030.6,94.8398,-587.405,0,0
307290.925,93.1904,-586.481,0,0
307551.25,91.5904,-585.468,0,0
307811.575,90.0572,-584.408,0,0
308071.9,88.5716,-583.299,0,0
308332.225,87.1539,-582.102,0,0
308592.55,85.7921,-580.879,0,0
308852.875,84.5016,-579.616,0,0
309113.2,83.2799,-578.306,0,0
309373.525,82.1638,-577.002,0,0
309633.85,81.0932,-575.695,0,0
309894.175,80.0892,-574.418,0,0
310154.5,79.1306,-573.152,0,0
310414.825,78.1634,-571.904,0,0
310675.15,77.231,-570.685,0,0
310935.475,76.3149,-569.417,0,0
311195.8,75.4014,-568.181,0,0
311456.125,74.5317,-566.915,0,0
311716.45,73.686,-565.653,0,0
311976.775,72.8617,-564.388,0,0
312237.1,72.0524,-563.107,0,0
312497.425,71.2408,-561.811,0,0
312757.75,70.471,-560.502,0,0
313018.075,69.7403,-559.155,0,0
313278.4,69.1025,-557.827,0,0
313538.725,68.4515,-556.509,0,0
313799.05,67.8414,-555.215,0,0
314059.375,67.2523,-553.926,0,0
314319.7,66.6791,-552.628,0,0
314580,66.1396,-551.349,0,0
314840,65.5196,-550.106,0,0
315101,65.0593,-548.786,0,0
315361,64.5375,-547.516,0,0
315621,64.0235,-546.261,0,0
315882,63.6109,-544.962,0,0
316142,63.1491,-543.684,0,0
316402,62.7186,-542.465,0,0
316663,62.3344,-541.077,0,0
316923,61.9328,-539.839,0,0
317183,61.6087,-538.569,0,0
317444,61.263,-537.321,0,0
317704,61.0098,-536.034,0,0
317964,60.7687,-534.793,0,0
318225,60.5177,-533.495,0,0
318485,60.3459,-532.351,0,0
318745,60.1089,-531.18,0,0
319006,59.9294,-530.012,0,0
319266,59.7489,-528.88,0,0
319526,59.5451,-527.785,0,0
319787,59.3853,-526.753,0,0
320047,59.2175,-525.566,0,0
320307,58.9545,-524.483,0,0
320567,58.824,-523.424,0,0
320828,58.5734,-522.395,0,0
321088,58.4044,-521.249,0,0
321348,58.2304,-520.209,0,0
321609,57.9554,-519.087,0,0
321869,57.7801,-518.008,0,0
322129,57.6211,-516.846,0,0
322390,57.4132,-515.706,0,0
322650,57.2459,-514.626,0,0
322910,57.0345,-513.471,0,0
323171,56.8503,-512.281,0,0
323431,56.7148,-511.144,0,0
323691,56.6007,-509.895,0,0
323952,56.4633,-508.682,0,0
324212,56.4193,-507.383,0,0
324472,56.375,-506.026,0,0
324733,56.4188,-504.672,0,0
324993,56.5906,-503.293,0,0
325253,56.7559,-501.936,0,0
325514,57.0741,-500.605,0,0
325774,57.5189,-499.261,0,0
326034,58.0546,-497.979,0,0
326295,58.6529,-496.885,0,0
326555,59.3082,-495.826,0,0
326815,60.0331,-494.872,0,0
327076,60.7323,-494.096,0,0
327336,61.3846,-493.467,0,0
327596,62.0265,-492.857,0,0
327857,62.5406,-492.37,0,0
328117,63.0364,-491.919,0,0
328377,63.5142,-491.491,0,0
328638,63.9126,-491.081,0,0
328898,64.2627,-490.688,0,0
329158,64.5892,-490.264,0,0
329419,64.9393,-489.875,0,0
329679,65.2779,-489.569,0,0
329939,65.5672,-489.243,0,0
330200,65.8922,-488.942,0,0
330460,66.1543,-488.718,0,0
330720.15,66.3345,-488.546,0,0
330980.475,66.5068,-488.4,0,0
331240.8,66.6834,-488.293,0,0
331501.125,66.7502,-488.166,0,0
331761.45,66.7718,-488.182,0,0
332021.775,66.7172,-488.094,0,0
332282.1,66.5607,-488.089,0,0
332542.425,66.3638,-487.985,0,0
332802.75,66.0584,-487.931,0,0
333063.075,65.6986,-487.846,0,0
333323.4,65.2487,-487.693,0,0
333583.725,64.7385,-487.452,0,0
333844.05,64.2116,-487.25,0,0
334104.375,63.726,-486.801,0,0
334364.7,63.1453,-486.379,0,0
334625.025,62.6165,-485.88,0,0
334885.35,62.1333,-485.302,0,0
335145.675,61.5954,-484.684,0,0
335406.0,61.162,-484.125,0,0
335666.325,60.7564,-483.474,0,0
335926.65,60.3183,-482.796,0,0
336186.975,59.9112,-482.143,0,0
336447.3,59.4924,-481.443,0,0
336707.625,59.1277,-480.787,0,0
336967.95,58.7143,-480.043,0,0
337228.275,58.3693,-479.296,0,0
337488.6,58.0372,-478.491,0,0
337748.925,57.7719,-477.723,0,0
338009.25,57.424,-476.909,0,0
338269.575,57.1453,-476.104,0,0
338529.9,56.9001,-475.363,0,0
338790.225,56.6218,-474.547,0,0
339050.55,56.3878,-473.811,0,0
339310.875,56.097,-472.932,0,0
339571.2,55.8473,-472.115,0,0
339831.525,55.6273,-471.222,0,0
340091.85,55.4046,-470.448,0,0
340352.175,55.2384,-469.536,0,0
340612.5,55.0112,-468.653,0,0
340872.825,54.9254,-467.801,0,0
341133.15,54.7969,-466.902,0,0
341393.475,54.7455,-466.019,0,0
341653.8,54.6417,-465.128,0,0
341914.125,54.6077,-464.238,0,0
342174.45,54.4863,-463.405,0,0
342434.775,54.463,-462.52,0,0
342695.1,54.4264,-461.646,0,0
342955.425,54.4276,-460.746,0,0
343215.75,54.4353,-459.879,0,0
343476.075,54.4775,-459.035,0,0
343736.4,54.4611,-458.157,0,0
343996.725,54.5197,-457.252,0,0
344257.05,54.6449,-456.41,0,0
344517.375,54.7083,-455.534,0,0
344777.7,54.7859,-454.661,0,0
345038.025,54.9302,-453.797,0,0
345298.35,55.0938,-452.934,0,0
345558.675,55.2458,-452.148,0,0
345819.0,55.5002,-451.32,0,0
346079.325,55.6795,-450.496,0,0
346339.65,55.9171,-449.693,0,0
346599.975,56.1548,-448.944,0,0
346860,56.4033,-448.198,0,0
347121,56.679,-447.455,0,0
347381,56.9039,-446.777,0,0
347641,57.1805,-446.059,0,0
347902,57.4482,-445.364,0,0
348162,57.7175,-444.654,0,0
348422,58.0609,-443.968,0,0
348683,58.3725,-443.33,0,0
348943,58.6577,-442.688,0,0
349203,58.9838,-442.156,0,0
349464,59.3088,-441.491,0,0
349724,59.6624,-440.925,0,0
349984,60.0262,-440.424,0,0
350245,60.3482,-439.918,0,0
350505,60.6913,-439.363,0,0
350765,60.998,-438.867,0,0
351025,61.3289,-438.423,0,0
351286,61.6284,-437.999,0,0
351546,61.9398,-437.574,0,0
351806,62.2383,-437.208,0,0
352067,62.5227,-436.761,0,0
352327,62.7962,-436.404,0,0
352587,62.9868,-436.061,0,0
352848,63.1977,-435.644,0,0
353108,63.4536,-435.267,0,0
353368,63.6524,-434.875,0,0
353629,63.8002,-434.484,0,0
353889,64.0138,-434.039,0,0
354149,64.2206,-433.632,0,0
354410,64.4511,-433.172,0,0
354670,64.6841,-432.765,0,0
354930,64.9363,-432.332,0,0
355191,65.1806,-431.976,0,0
355451,65.4662,-431.54,0,0
355711,65.6955,-431.147,0,0
355972,65.991,-430.834,0,0
356232,66.2476,-430.405,0,0
356492,66.5357,-430.065,0,0
356753,66.8029,-429.693,0,0
357013,67.1392,-429.35,0,0
357273,67.453,-429.038,0,0
357534,67.7727,-428.705,0,0
357794,68.1214,-428.448,0,0
358054,68.5289,-428.217,0,0
358315,68.8517,-427.971,0,0
358575,69.2551,-427.805,0,0
358835,69.592,-427.684,0,0
359096,69.9195,-427.581,0,0
359356,70.2308,-427.541,0,0
359616,70.513,-427.524,0,0
359877,70.779,-427.515,0,0
360137,70.9921,-427.525,0,0
360397,71.2147,-427.577,0,0
360658,71.334,-427.648,0,0
360918,71.4302,-427.692,0,0
361178,71.5367,-427.736,0,0
361438,71.5726,-427.822,0,0
361699,71.5957,-427.934,0,0
361959,71.5933,-427.954,0,0
362219,71.5211,-428.003,0,0
362480,71.4191,-428.021,0,0
362740.1,71.3583,-428.066,0,0
363000.425,71.1899,-428.055,0,0
363260.75,71.0679,-428.015,0,0
363521.075,70.9396,-427.962,0,0
363781.4,70.7511,-427.92,0,0
364041.725,70.5836,-427.841,0,0
364302.05,70.3768,-427.795,0,0
364562.375,70.1861,-427.683,0,0
364822.7,70.0207,-427.541,0,0
365083.025,69.7675,-427.433,0,0
365343.35,69.5595,-427.29,0,0
365603.675,69.2872,-427.149,0,0
365864.0,69.078,-426.973,0,0
366124.325,68.7895,-426.764,0,0
366384.65,68.5557,-426.512,0,0
366644.975,68.3056,-426.226,0,0
366905.3,68.0775,-425.934,0,0
367165.625,67.8857,-425.645,0,0
367425.95,67.7282,-425.305,0,0
367686.275,67.5969,-424.972,0,0
367946.6,67.5036,-424.588,0,0
368206.925,67.4218,-424.222,0,0
368467.25,67.4164,-423.948,0,0
368727.575,67.4551,-423.709,0,0
368987.9,67.4616,-423.519,0,0
369248.225,67.4885,-423.386,0,0
369508.55,67.4572,-423.259,0,0
369768.875,67.4457,-423.161,0,0
370029.2,67.3337,-423.139,0,0
370289.525,67.1863,-423.131,0,0
370549.85,66.9752,-423.12,0,0
370810.175,66.7499,-423.016,0,0
371070.5,66.4456,-422.919,0,0
371330.825,66.1555,-422.776,0,0
371591.15,65.8231,-422.579,0,0
371851.475,65.5604,-422.352,0,0
372111.8,65.2821,-422.147,0,0
372372.125,65.0351,-421.883,0,0
372632.45,64.8289,-421.669,0,0
372892.775,64.6019,-421.427,0,0
373153.1,64.3851,-421.228,0,0
373413.425,64.104,-421.031,0,0
373673.75,63.8968,-420.795,0,0
373934.075,63.6254,-420.567,0,0
374194.4,63.3935,-420.344,0,0
374454.725,63.1592,-420.132,0,0
374715.05,62.871,-419.937,0,0
374975.375,62.5481,-419.729,0,0
375235.7,62.3188,-419.506,0,0
375496.025,61.9952,-419.316,0,0
375756.35,61.6945,-419.064,0,0
376016.675,61.3808,-418.821,0,0
376277.0,61.0473,-418.513,0,0
376537.325,60.7075,-418.262,0,0
376797.65,60.399,-417.988,0,0
377057.975,60.0991,-417.719,0,0
377318.3,59.7803,-417.397,0,0
377578.625,59.4964,-417.132,0,0
377838.95,59.2445,-416.88,0,0
378099.275,58.9343,-416.698,0,0
378359.6,58.5914,-416.55,0,0
378619.925,58.1889,-416.383,0,0
378880,57.7321,-416.208,0,0
379141,57.1152,-415.982,0,0
379401,56.4745,-415.709,0,0
379661,55.7842,-415.319,0,0
379922,55.1214,-414.793,0,0
380182,54.4478,-414.145,0,0
380442,53.9213,-413.347,0,0
380703,53.4858,-412.523,0,0
380963,53.2441,-411.698,0,0
381223,53.0803,-410.853,0,0
381483,53.0847,-410.172,0,0
381744,53.1135,-409.567,0,0
382004,53.2117,-409.087,0,0
382264,53.2464,-408.667,0,0
382525,53.2059,-408.428,0,0
382785,53.103,-408.159,0,0
383045,52.9485,-407.95,0,0
383306,52.6462,-407.691,0,0
383566,52.3665,-407.449,0,0
383826,52.015,-407.15,0,0
384087,51.6067,-406.859,0,0
384347,51.2135,-406.554,0,0
384607,50.7319,-406.12,0,0
384868,50.2983,-405.689,0,0
385128,49.8759,-405.221,0,0
385388,49.4315,-404.712,0,0
385649,48.976,-404.139,0,0
385909,48.5365,-403.59,0,0
386169,48.1218,-402.945,0,0
386430,47.7437,-402.315,0,0
386690,47.4042,-401.656,0,0
386950,47.0644,-400.96,0,0
387211,46.7808,-400.25,0,0
387471,46.5435,-399.572,0,0
387731,46.2844,-398.889,0,0
387992,46.063,-398.141,0,0
388252,45.8685,-397.454,0,0
388512,45.6819,-396.796,0,0
388773,45.5182,-396.04,0,0
389033,45.3685,-395.417,0,0
389293,45.248,-394.702,0,0
389554,45.1664,-394.001,0,0
389814,45.0797,-393.301,0,0
390074,45.1129,-392.61,0,0
390335,45.0743,-391.955,0,0
390595,45.0864,-391.355,0,0
390855,45.1826,-390.783,0,0
391116,45.1979,-390.261,0,0
391376,45.2293,-389.818,0,0
391636,45.2405,-389.352,0,0
391896,45.2248,-388.983,0,0
392157,45.127,-388.624,0,0
392417,44.9772,-388.311,0,0
392677,44.7899,-387.91,0,0
392938,44.557,-387.549,0,0
393198,44.2436,-387.142,0,0
393458,43.9206,-386.687,0,0
393719,43.5912,-386.163,0,0
393979,43.2502,-385.647,0,0
394239,42.8999,-384.997,0,0
394500,42.573,-384.37,0,0
394760.05,42.1816,-383.694,0,0
395020.375,41.9369,-382.954,0,0
395280.7,41.6413,-382.202,0,0
395541.025,41.4355,-381.434,0,0
395801.35,41.2522,-380.589,0,0
396061.675,41.0787,-379.797,0,0
396322.0,40.9458,-378.969,0,0
396582.325,40.8475,-378.132,0,0
396842.65,40.7899,-377.343,0,0
397102.975,40.7526,-376.532,0,0
397363.3,40.707,-375.724,0,0
397623.625,40.7393,-374.885,0,0
397883.95,40.7632,-374.095,0,0
398144.275,40.805,-373.303,0,0
398404.6,40.8979,-372.525,0,0
398664.925,41.0056,-371.779,0,0
398925.25,41.0959,-371.045,0,0
399185.575,41.2195,-370.295,0,0
399445.9,41.3893,-369.59,0,0
399706.225,41.511,-368.896,0,0
399966.55,41.6339,-368.235,0,0
400006.6,41.6978,-368.133,0,0