File: Accelerated corrosion test data/2025-10-17_06-53-44/sample_3.csv
Frequency (Hz),Impedance (ohms),Phase (Radians),Temperature (C),Humidity (%)
10000.0,250.631,-11876.7,0,0
10260.325,244.016,-11577.1,0,0
10520.65,238.95,-11292.4,0,0
10780.975,234.83,-11020.6,0,0
11041.3,228.267,-10766.5,0,0
11301.625,222.691,-10520,0,0
11561.95,217.939,-10284.4,0,0
11822.275,213.573,-10058.9,0,0
12082.6,210.91,-9844.06,0,0
12342.925,209.724,-9636.63,0,0
12603.25,202.624,-9440.98,0,0
12863.575,198.664,-9250.07,0,0
13123.9,199.155,-9065.05,0,0
13384.225,191.861,-8895.92,0,0
13644.55,188.589,-8726.52,0,0
13904.875,184.836,-8561.85,0,0
14165.2,185.574,-8404.21,0,0
14425.525,180.049,-8254.98,0,0
14685.8,178.123,-8108.19,0,0
14946.175,175.82,-7967.12,0,0
15206.5,172.603,-7825.3,0,0
15466.825,183.267,-7684.47,0,0
15727.15,189.718,-7586.51,0,0
15987.5,172.505,-7470.49,0,0
16247.8,167.486,-7340.77,0,0
16508.125,161.063,-7226.89,0,0
16768.45,167.195,-7105.79,0,0
17028.775,156.613,-7006.57,0,0
17289.1,161.082,-6892.45,0,0
17549.425,155.914,-6800.58,0,0
17809.75,155.689,-6694.74,0,0
18070.075,161.749,-6608.97,0,0
18330.4,150.942,-6512.66,0,0
18590.725,147.981,-6420.66,0,0
18851.05,144.537,-6329.78,0,0
19111.375,146.33,-6240.67,0,0
19371.7,144.599,-6156.19,0,0
19632.025,145.702,-6071.27,0,0
19892.35,150.676,-5990.84,0,0
20152.675,146.605,-5914.73,0,0
20413.0,160.159,-5834.14,0,0
20673.3,163.358,-5774.81,0,0
20933.65,165.542,-5715.75,0,0
21193.975,159.692,-5649.65,0,0
21454.3,145.223,-5589.15,0,0
21714.625,138.286,-5513.06,0,0
21974.9,143.133,-5446.57,0,0
22235.275,138.381,-5387.52,0,0
22495.6,136.484,-5325.81,0,0
22755.925,129.115,-5264.79,0,0
23016.25,127.75,-5204.96,0,0
23276.6,128.075,-5142.88,0,0
23536.9,128.999,-5096.69,0,0
23797.225,120.737,-5037.99,0,0
24057.55,118.807,-4980,0,0
24317.875,119.146,-4923.93,0,0
24578.2,116.586,-4874.25,0,0
24838.525,117.531,-4820.33,0,0
25098.85,115.108,-4773.02,0,0
25359.175,114.064,-4722.48,0,0
25619.5,113.141,-4674.84,0,0
25879.8,110.324,-4627.63,0,0
26140.1,108.612,-4580.19,0,0
26400.5,107.302,-4532.82,0,0
26660.8,107.443,-4487.21,0,0
26921.1,108.361,-4442.68,0,0
27181.4,109.148,-4401.9,0,0
27441.8,107.537,-4358.04,0,0
27702.1,107.962,-4318.86,0,0
27962.4,105.565,-4277.17,0,0
28222.7,103.494,-4234.49,0,0
28483.1,111.162,-4191.94,0,0
28743.4,113.51,-4157.21,0,0
29003.7,115.287,-4127.49,0,0
29264,108.496,-4094.47,0,0
29524.4,108.729,-4056.53,0,0
29784.7,103.792,-4021.7,0,0
30045,102.06,-3987.15,0,0
30305.3,100.467,-3949.57,0,0
30565.7,102.175,-3916.02,0,0
30826,101.444,-3883.29,0,0
31086.3,102.635,-3849.74,0,0
31346.6,98.6638,-3819.8,0,0
31607,97.5331,-3785.29,0,0
31867.3,98.068,-3751.27,0,0
32127.6,101.236,-3717.36,0,0
32387.9,110.524,-3688.92,0,0
32648.3,112.427,-3670.85,0,0
32908.6,103.943,-3647.13,0,0
33168.9,100.906,-3619.35,0,0
33429.2,99.0951,-3592.34,0,0
33689.6,93.3431,-3564.42,0,0
33949.9,90.8154,-3534.37,0,0
34210.2,90.4836,-3506.05,0,0
34470.5,90.0086,-3479.18,0,0
34730.9,88.0334,-3453.3,0,0
34991.2,86.5226,-3426.58,0,0
35251.5,85.4189,-3400.26,0,0
35511.8,84.7701,-3374.84,0,0
35772.2,84.1831,-3349.27,0,0
36032.5,83.4292,-3324.45,0,0
36292.8,82.845,-3300.11,0,0
36553.1,82.2642,-3276.08,0,0
36813.5,81.3002,-3252.5,0,0
37073.8,80.6622,-3229.05,0,0
37334.1,80.0387,-3205.84,0,0
37594.4,79.6434,-3182.89,0,0
37854.8,79.1033,-3160.8,0,0
38115.1,78.7429,-3138.41,0,0
38375.4,78.0961,-3116.76,0,0
38635.7,77.8323,-3095.16,0,0
38896.1,77.3276,-3073.76,0,0
39156.4,77.2202,-3052.84,0,0
39416.7,76.805,-3032.58,0,0
39677,76.3001,-3012.08,0,0
39937.4,75.4479,-2991.85,0,0
40197.7,75.2605,-2971.68,0,0
40458,74.625,-2952.27,0,0
40718.3,74.5521,-2932.58,0,0
40978.7,74.1136,-2913.07,0,0
41239,74.0013,-2894.14,0,0
41499.3,74.0154,-2875.55,0,0
41759.6,74.1218,-2857.14,0,0
42020,73.7361,-2839.64,0,0
42280.275,73.4727,-2821.55,0,0
42540.6,72.9791,-2803.75,0,0
42800.925,73.1241,-2786.2,0,0
43061.25,72.681,-2769.32,0,0
43321.575,71.9476,-2751.89,0,0
43581.9,71.5486,-2734.69,0,0
43842.225,71.635,-2717.55,0,0
44102.55,71.8408,-2701.28,0,0
44362.875,71.97,-2685.33,0,0
44623.2,71.235,-2669.25,0,0
44883.525,71.0983,-2653.22,0,0
45143.85,70.8412,-2637.32,0,0
45404.175,70.3437,-2621.97,0,0
45664.5,70.0552,-2606.13,0,0
45924.825,70.7538,-2590.36,0,0
46185.15,70.3195,-2576.78,0,0
46445.475,69.579,-2561.3,0,0
46705.8,69.545,-2545.92,0,0
46966.125,69.7077,-2531.42,0,0
47226.45,69.4852,-2517.05,0,0
47486.775,69.3996,-2502.64,0,0
47747.1,70.0206,-2488.17,0,0
48007.425,70.3567,-2475.3,0,0
48267.75,70.2698,-2461.85,0,0
48528.075,69.6456,-2448.35,0,0
48788.4,69.271,-2435.45,0,0
49048.725,68.5447,-2422.11,0,0
49309.05,67.9641,-2408.61,0,0
49569.375,67.7152,-2395.24,0,0
49829.7,67.5049,-2382.48,0,0
50090.025,66.9548,-2369.59,0,0
50350.35,66.5365,-2356.46,0,0
50610.675,66.2113,-2343.35,0,0
50871.0,66.1827,-2330.8,0,0
51131.325,66.053,-2318.25,0,0
51391.65,65.9265,-2305.59,0,0
51651.975,66.1122,-2293.37,0,0
51912.3,66.0559,-2281.35,0,0
52172.625,65.8591,-2269.33,0,0
52432.95,65.7678,-2257.15,0,0
52693.275,65.8616,-2245.01,0,0
52953.6,66.3437,-2233.17,0,0
53213.925,66.8025,-2221.41,0,0
53474.25,67.6794,-2210.54,0,0
53734.575,67.9621,-2199.73,0,0
53994.9,68.1048,-2188.59,0,0
54255.225,69.1474,-2177.74,0,0
54515.55,70.1959,-2168.63,0,0
54775.875,69.2391,-2159.29,0,0
55036.2,68.5145,-2149.32,0,0
55296.525,67.9293,-2139.7,0,0
55556.85,66.6512,-2129.95,0,0
55817.175,65.0743,-2119.36,0,0
56077.5,64.0532,-2108.72,0,0
56337.825,63.2731,-2098.15,0,0
56598.15,62.3864,-2087.68,0,0
56858.475,61.5683,-2076.88,0,0
57118.8,61.1716,-2065.93,0,0
57379.125,60.9611,-2055.33,0,0
57639.45,60.9536,-2044.89,0,0
57899.775,60.9198,-2034.45,0,0
58160.1,60.9579,-2024.54,0,0
58420.4,60.9661,-2014.52,0,0
58680.7,60.9978,-2004.49,0,0
58941.1,60.955,-1994.59,0,0
59201.4,61.0945,-1984.61,0,0
59461.7,61.4719,-1974.88,0,0
59722,61.7718,-1965.3,0,0
59982.4,62.0605,-1955.87,0,0
60242.7,62.3277,-1946.56,0,0
60503,62.5306,-1937.24,0,0
60763.3,62.8588,-1927.99,0,0
61023.7,63.0434,-1918.8,0,0
61284,63.5439,-1909.67,0,0
61544.3,64.1301,-1900.4,0,0
61804.6,64.67,-1892,0,0
62065,64.8047,-1882.83,0,0
62325.3,65.4883,-1873.92,0,0
62585.6,65.9031,-1865.24,0,0
62845.9,66.5424,-1856.08,0,0
63106.3,67.6087,-1847.16,0,0
63366.6,68.6269,-1838.93,0,0
63626.9,69.6453,-1829.89,0,0
63887.2,71.1417,-1821.66,0,0
64147.6,72.3399,-1812.77,0,0
64407.9,74.9395,-1804.21,0,0
64668.2,77.5341,-1796.84,0,0
64928.5,80.2588,-1789.1,0,0
65188.9,84.1921,-1783.26,0,0
65449.2,86.7166,-1778.24,0,0
65709.5,88.677,-1774,0,0
65969.8,92.3024,-1770.69,0,0
66230.2,91.7948,-1771.22,0,0
66490.5,85.9289,-1769.06,0,0
66750.8,80.9834,-1762.43,0,0
67011.1,78.1227,-1753.83,0,0
67271.5,75.9859,-1745.68,0,0
67531.8,74.7545,-1737.08,0,0
67792.1,74.7252,-1728.67,0,0
68052.4,74.8477,-1720.93,0,0
68312.8,76.0683,-1713.8,0,0
68573.1,76.0307,-1707.89,0,0
68833.4,75.9756,-1700.83,0,0
69093.7,76.8107,-1694.35,0,0
69354.1,77.4698,-1688.87,0,0
69614.4,77.1996,-1683.79,0,0
69874.7,76.3938,-1678.19,0,0
70135,75.3908,-1672.43,0,0
70395.4,74.6344,-1666.5,0,0
70655.7,73.3201,-1660.77,0,0
70916,72.164,-1654.26,0,0
71176.3,71.0803,-1647.59,0,0
71436.7,70.3492,-1641.02,0,0
71697,69.4844,-1634.01,0,0
71957.3,69.5378,-1627.05,0,0
72217.6,69.6984,-1620.79,0,0
72478,69.8427,-1614.59,0,0
72738.3,69.9743,-1608.84,0,0
72998.6,69.7155,-1603.46,0,0
73258.9,69.1754,-1597.71,0,0
73519.3,68.7487,-1591.98,0,0
73779.6,68.3622,-1586.36,0,0
74039.9,67.749,-1580.87,0,0
74300.225,66.9536,-1575.25,0,0
74560.55,66.2644,-1569.56,0,0
74820.875,65.4855,-1563.84,0,0
75081.2,64.6967,-1558.11,0,0
75341.525,63.9516,-1552.25,0,0
75601.85,63.134,-1546.48,0,0
75862.175,62.416,-1540.61,0,0
76122.5,61.6647,-1534.66,0,0
76382.825,61.005,-1528.83,0,0
76643.15,60.4768,-1522.88,0,0
76903.475,59.8701,-1517.04,0,0
77163.8,59.4179,-1511.22,0,0
77424.125,58.9017,-1505.45,0,0
77684.45,58.3716,-1499.68,0,0
77944.775,57.8573,-1493.96,0,0
78205.1,57.3849,-1488.21,0,0
78465.425,56.92,-1482.46,0,0
78725.75,56.4349,-1476.74,0,0
78986.075,56.0028,-1470.98,0,0
79246.4,55.6545,-1465.32,0,0
79506.725,55.2742,-1459.71,0,0
79767.05,54.9217,-1453.99,0,0
80027.375,54.7009,-1448.36,0,0
80287.7,54.4828,-1442.78,0,0
80548.025,54.2588,-1437.22,0,0
80808.35,54.024,-1431.73,0,0
81068.675,53.764,-1426.27,0,0
81329.0,53.5807,-1420.79,0,0
81589.325,53.3742,-1415.37,0,0
81849.65,53.2508,-1409.94,0,0
82109.975,53.1229,-1404.67,0,0
82370.3,52.9872,-1399.3,0,0
82630.625,52.9,-1393.97,0,0
82890.95,52.7659,-1388.69,0,0
83151.275,52.712,-1383.53,0,0
83411.6,52.6144,-1378.33,0,0
83671.925,52.5757,-1373.13,0,0
83932.25,52.4781,-1367.98,0,0
84192.575,52.5215,-1362.87,0,0
84452.9,52.4434,-1357.84,0,0
84713.225,52.4213,-1352.77,0,0
84973.55,52.3837,-1347.71,0,0
85233.875,52.437,-1342.68,0,0
85494.2,52.4138,-1337.71,0,0
85754.525,52.4273,-1332.76,0,0
86014.85,52.5505,-1327.84,0,0
86275.175,52.486,-1322.96,0,0
86535.5,52.5293,-1318.09,0,0
86795.825,52.542,-1313.2,0,0
87056.15,52.559,-1308.35,0,0
87316.475,52.6511,-1303.52,0,0
87576.8,52.7992,-1298.68,0,0
87837.125,52.9262,-1293.85,0,0
88097.45,53.0975,-1289.23,0,0
88357.775,53.0859,-1284.35,0,0
88618.1,53.1863,-1279.56,0,0
88878.425,53.5264,-1274.69,0,0
89138.75,53.826,-1269.99,0,0
89399.075,54.3549,-1265.28,0,0
89659.4,54.8043,-1260.74,0,0
89919.725,55.4697,-1256.27,0,0
90180,55.8972,-1251.9,0,0
90440.4,56.1901,-1247.81,0,0
90700.7,56.4419,-1243.44,0,0
90961,57.0201,-1239.11,0,0
91221.3,57.5561,-1234.84,0,0
91481.7,57.8497,-1230.8,0,0
91742,58.2407,-1226.66,0,0
92002.3,58.7503,-1222.65,0,0
92262.6,59.2662,-1218.39,0,0
92523,59.9492,-1214.55,0,0
92783.3,60.5679,-1211,0,0
93043.6,60.9048,-1207.31,0,0
93303.9,61.5456,-1203.43,0,0
93564.3,62.319,-1200.15,0,0
93824.6,62.9156,-1197.02,0,0
94084.9,63.3634,-1194.4,0,0
94345.2,62.8942,-1191.88,0,0
94605.6,62.3388,-1188.89,0,0
94865.9,61.7223,-1185.89,0,0
95126.2,60.5218,-1182.91,0,0
95386.5,59.0444,-1179.19,0,0
95646.9,58.0943,-1174.91,0,0
95907.2,57.3315,-1170.75,0,0
96167.5,56.5282,-1166.43,0,0
96427.8,56.1478,-1161.8,0,0
96688.2,56.1609,-1157.51,0,0
96948.5,56.1267,-1153.4,0,0
97208.8,56.0282,-1149.33,0,0
97469.1,55.9747,-1145.36,0,0
97729.5,55.8735,-1141.39,0,0
97989.8,55.8263,-1137.4,0,0
98250.1,55.795,-1133.44,0,0
98510.4,55.8308,-1129.5,0,0
98770.8,55.852,-1125.69,0,0
99031.1,55.7705,-1121.91,0,0
99291.4,55.6461,-1118.11,0,0
99551.7,55.4819,-1114.23,0,0
99812.1,55.4089,-1110.31,0,0
100072,55.2896,-1106.46,0,0
100333,55.153,-1102.55,0,0
100593,55.0512,-1098.6,0,0
100853,54.9462,-1094.53,0,0
101114,55.0418,-1090.44,0,0
101374,55.1751,-1086.42,0,0
101634,55.2909,-1082.33,0,0
101895,55.515,-1078.2,0,0
102155,55.8339,-1074.06,0,0
102415,56.4006,-1069.82,0,0
102676,57.3238,-1065.78,0,0
102936,58.3479,-1062.24,0,0
103196,59.0798,-1058.91,0,0
103457,59.671,-1055.53,0,0
103717,60.3137,-1052.13,0,0
103977,61.0476,-1048.66,0,0
104238,62.0418,-1045.44,0,0
104498,62.9621,-1042.75,0,0
104758,63.3986,-1040.32,0,0
105019,63.5655,-1037.73,0,0
105279,63.5035,-1035.01,0,0
105539,63.5467,-1032.09,0,0
105800,63.5788,-1029.36,0,0
106060,63.4374,-1026.64,0,0
106320.175,63.0654,-1023.83,0,0
106580.5,62.7645,-1020.81,0,0
106840.825,62.4162,-1017.85,0,0
107101.15,61.8971,-1014.78,0,0
107361.475,61.4884,-1011.53,0,0
107621.8,61.0511,-1008.26,0,0
107882.125,60.6571,-1004.87,0,0
108142.45,60.3193,-1001.43,0,0
108402.775,59.9934,-998.059,0,0
108663.1,59.4964,-994.541,0,0
108923.425,59.1891,-990.829,0,0
109183.75,59.0021,-986.959,0,0
109444.075,59.0738,-983.279,0,0
109704.4,59.0917,-979.716,0,0
109964.725,59.1315,-975.988,0,0
110225.05,59.15,-972.251,0,0
110485.375,59.3302,-968.389,0,0
110745.7,59.8133,-964.524,0,0
111006.025,60.437,-961.008,0,0
111266.35,60.9746,-957.689,0,0
111526.675,61.3229,-954.386,0,0
111787.0,61.8137,-950.947,0,0
112047.325,62.3019,-947.596,0,0
112307.65,62.8078,-944.454,0,0
112567.975,63.1911,-941.276,0,0
112828.3,63.5063,-938.158,0,0
113088.625,63.8431,-935.044,0,0
113348.95,64.1532,-931.88,0,0
113609.275,64.4147,-928.716,0,0
113869.6,64.613,-925.389,0,0
114129.925,64.9315,-922.252,0,0
114390.25,65.1737,-918.936,0,0
114650.575,65.4807,-915.57,0,0
114910.9,65.7897,-912.126,0,0
115171.225,66.3078,-908.631,0,0
115431.55,66.9191,-905.21,0,0
115691.875,67.5307,-901.964,0,0
115952.2,68.0531,-898.63,0,0
116212.525,68.7355,-895.202,0,0
116472.85,69.5188,-891.728,0,0
116733.175,70.5663,-888.448,0,0
116993.5,71.4711,-885.319,0,0
117253.825,72.3147,-882.159,0,0
117514.15,73.2041,-878.759,0,0
117774.475,74.5841,-875.201,0,0
118034.8,76.4749,-872.182,0,0
118295.125,78.1858,-869.749,0,0
118555.45,79.6165,-867.563,0,0
118815.775,80.5205,-865.389,0,0
119076.1,81.5463,-862.668,0,0
119336.425,83.1039,-859.939,0,0
119596.75,85.0539,-857.835,0,0
119857.075,86.7151,-856.222,0,0
120117.4,88.4199,-855.032,0,0
120377.725,89.3988,-854.612,0,0
120638.05,89.4449,-853.761,0,0
120898.375,89.4783,-852.739,0,0
121158.7,89.0054,-851.66,0,0
121419.025,88.1833,-850.149,0,0
121679.35,87.1666,-848.106,0,0
121939.675,86.3703,-845.467,0,0
122200.0,86.0289,-842.575,0,0
122460,86.0764,-839.785,0,0
122721,86.1566,-837.098,0,0
122981,86.331,-834.34,0,0
123241,86.8372,-831.713,0,0
123502,87.2819,-829.39,0,0
123762,87.5347,-827.094,0,0
124022,87.8672,-824.712,0,0
124283,88.2346,-822.403,0,0
124543,88.5669,-820.168,0,0
124803,88.8873,-817.966,0,0
125064,89.2622,-815.736,0,0
125324,89.5937,-813.655,0,0
125584,89.9459,-811.599,0,0
125845,90.2573,-809.702,0,0
126105,90.4084,-807.859,0,0
126365,90.3911,-806.074,0,0
126626,90.1777,-804.117,0,0
126886,90.0246,-801.99,0,0
127146,89.9106,-799.908,0,0
127406,89.7829,-797.832,0,0
127667,89.5496,-795.793,0,0
127927,89.3111,-793.716,0,0
128187,88.939,-791.591,0,0
128448,88.4671,-789.349,0,0
128708,87.993,-786.883,0,0
128968,87.6322,-784.308,0,0
129229,87.4009,-781.704,0,0
129489,87.2696,-779.135,0,0
129749,87.0472,-776.605,0,0
130010,86.8554,-773.872,0,0
130270,86.9415,-770.937,0,0
130530,87.2927,-768.275,0,0
130791,87.752,-765.913,0,0
131051,88.0334,-763.779,0,0
131311,88.0901,-761.728,0,0
131572,87.9998,-759.62,0,0
131832,87.792,-757.484,0,0
132092,87.5019,-755.154,0,0
132353,87.2686,-752.76,0,0
132613,87.1089,-750.3,0,0
132873,87.0798,-747.9,0,0
133134,86.9408,-745.627,0,0
133394,86.7241,-743.314,0,0
133654,86.4369,-740.98,0,0
133915,86.0232,-738.572,0,0
134175,85.6644,-735.939,0,0
134435,85.4363,-733.299,0,0
134696,85.2573,-730.865,0,0
134956,84.943,-728.288,0,0
135216,84.6101,-725.62,0,0
135477,84.3943,-722.902,0,0
135737,84.2257,-720.266,0,0
135997,83.9032,-717.695,0,0
136258,83.4324,-714.978,0,0
136518,83.0253,-711.984,0,0
136778,82.8029,-708.857,0,0
137039,82.828,-705.743,0,0
137299,82.9111,-702.741,0,0
137559,82.9876,-699.716,0,0
137819,83.2236,-696.76,0,0
138080,83.4765,-693.922,0,0
138340.125,83.7794,-691.145,0,0
138600.45,84.1048,-688.487,0,0
138860.775,84.3526,-685.972,0,0
139121.1,84.3985,-683.543,0,0
139381.425,84.3158,-681.044,0,0
139641.75,84.0721,-678.446,0,0
139902.075,83.8273,-675.666,0,0
140162.4,83.6736,-672.716,0,0
140422.725,83.6948,-669.858,0,0
140683.05,83.6697,-667.082,0,0
140943.375,83.5219,-664.301,0,0
141203.7,83.2813,-661.438,0,0
141464.025,83.1002,-658.507,0,0
141724.35,82.8282,-655.488,0,0
141984.675,82.5631,-652.279,0,0
142245.0,82.4354,-649.045,0,0
142505.325,82.3548,-645.841,0,0
142765.65,82.2356,-642.531,0,0
143025.975,82.1783,-639.097,0,0
143286.3,82.2331,-635.695,0,0
143546.625,82.301,-632.268,0,0
143806.95,82.3931,-628.79,0,0
144067.275,82.5074,-625.262,0,0
144327.6,82.6675,-621.684,0,0
144587.925,82.937,-618.015,0,0
144848.25,83.3164,-614.391,0,0
145108.575,83.7248,-610.768,0,0
145368.9,84.1456,-607.193,0,0
145629.225,84.5635,-603.562,0,0
145889.55,84.879,-599.907,0,0
146149.875,85.2944,-596.023,0,0
146410.2,85.9464,-592.08,0,0
146670.525,86.6793,-588.288,0,0
146930.85,87.3438,-584.426,0,0
147191.175,88.0889,-580.497,0,0
147451.5,88.8859,-576.519,0,0
147711.825,89.8253,-572.424,0,0
147972.15,90.9165,-568.402,0,0
148232.475,92.0585,-564.376,0,0
148492.8,93.2711,-560.342,0,0
148753.125,94.5559,-556.307,0,0
149013.45,95.8858,-552.211,0,0
149273.775,97.3365,-548.021,0,0
149534.1,99.002,-543.748,0,0
149794.425,100.962,-539.522,0,0
150054.75,103.079,-535.485,0,0
150315.075,105.308,-531.542,0,0
150575.4,107.637,-527.76,0,0
150835.725,110.033,-524.08,0,0
151096.05,112.495,-520.515,0,0
151356.375,114.979,-517.093,0,0
151616.7,117.523,-513.721,0,0
151877.025,120.221,-510.492,0,0
152137.35,122.954,-507.561,0,0
152397.675,125.502,-504.84,0,0
152658.0,127.893,-502.127,0,0
152918.325,130.312,-499.416,0,0
153178.65,132.718,-496.914,0,0
153438.975,134.87,-494.498,0,0
153699.3,136.903,-491.99,0,0
153959.625,138.878,-489.395,0,0
154219.95,140.964,-486.87,0,0
154480,142.832,-484.62,0,0
154741,144.043,-482.235,0,0
155001,145.112,-479.131,0,0
155261,146.671,-475.478,0,0
155522,148.797,-471.666,0,0
155782,151.191,-468.384,0,0
156042,153.491,-465.321,0,0
156303,155.564,-462.268,0,0
156563,157.5,-458.728,0,0
156823,159.893,-454.79,0,0
157084,163.049,-450.936,0,0
157344,166.53,-447.482,0,0
157604,170.302,-444.804,0,0
157864,173.689,-442.577,0,0
158125,177.108,-440.757,0,0
158385,179.824,-439.776,0,0
158645,181.126,-438.535,0,0
158906,182.001,-436.457,0,0
159166,182.534,-433.79,0,0
159426,182.941,-430.258,0,0
159687,183.466,-425.831,0,0
159947,184.427,-420.401,0,0
160207,186.555,-414.197,0,0
160468,190.098,-408.202,0,0
160728,194.21,-402.9,0,0
160988,198.276,-398.295,0,0
161249,201.697,-393.282,0,0
161509,205.909,-387.157,0,0
161769,211.73,-381.238,0,0
162030,218.32,-376.728,0,0
162290,224.083,-372.834,0,0
162550,230.08,-368.537,0,0
162811,236.177,-364.535,0,0
163071,242.195,-360.167,0,0
163331,249.02,-355.167,0,0
163592,257.273,-350.336,0,0
163852,266.286,-346.613,0,0
164112,275.6,-343.648,0,0
164373,285.06,-341.04,0,0
164633,295.273,-338.841,0,0
164893,306.395,-337.712,0,0
165154,317.973,-338.188,0,0
165414,328.625,-340.451,0,0
165674,338.437,-342.87,0,0
165935,348.226,-345.815,0,0
166195,357.506,-349.348,0,0
166455,367.112,-353.192,0,0
166716,376.569,-358.608,0,0
166976,384.783,-365.124,0,0
167236,391.868,-371.758,0,0
167497,398.205,-378.684,0,0
167757,403.905,-385.624,0,0
168017,408.922,-392.713,0,0
168277,413.418,-399.948,0,0
168538,417.215,-406.834,0,0
168798,421.117,-414.148,0,0
169058,424.85,-422.13,0,0
169319,427.42,-431.545,0,0
169579,427.494,-441.218,0,0
169839,425.548,-449.803,0,0
170100,422.327,-456.538,0,0
170360.075,419.004,-461.505,0,0
170620.4,415.896,-465.17,0,0
170880.725,413.412,-468.103,0,0
171141.05,411.004,-470.656,0,0
171401.375,408.594,-472.2,0,0
171661.7,407.239,-472.806,0,0
171922.025,406.903,-473.755,0,0
172182.35,406.508,-475.132,0,0
172442.675,405.955,-475.984,0,0
172703.0,405.972,-475.925,0,0
172963.325,407.805,-475.777,0,0
173223.65,410.763,-477.308,0,0
173483.975,412.935,-480.581,0,0
173744.3,413.758,-484.016,0,0
174004.625,414.03,-486.644,0,0
174264.95,415,-488.805,0,0
174525.275,416.727,-491.857,0,0
174785.6,417.673,-496.268,0,0
175045.925,417.151,-500.516,0,0
175306.25,415.936,-503.588,0,0
175566.575,415.72,-505.721,0,0
175826.9,416.585,-508.798,0,0
176087.225,416.922,-513.197,0,0
176347.55,416.108,-517.78,0,0
176607.875,415.259,-522.312,0,0
176868.2,413.855,-527.946,0,0
177128.525,410.087,-534.152,0,0
177388.85,404.309,-538.687,0,0
177649.175,398.276,-541.226,0,0
177909.5,392.607,-542.728,0,0
178169.825,386.66,-543.69,0,0
178430.15,380.39,-543.052,0,0
178690.475,375.044,-540.783,0,0
178950.8,371.117,-537.806,0,0
179211.125,368.259,-535.094,0,0
179471.45,365.675,-532.423,0,0
179731.775,363.498,-529.161,0,0
179992.1,362.635,-525.625,0,0
180252.425,362.869,-522.948,0,0
180512.75,363.103,-520.909,0,0
180773.075,363.613,-519.076,0,0
181033.4,364.479,-517.653,0,0
181293.725,365.765,-516.633,0,0
181554.05,367.425,-516.544,0,0
181814.375,368.815,-517.608,0,0
182074.7,369.338,-519.624,0,0
182335.025,368.318,-521.969,0,0
182595.35,366.456,-523.419,0,0
182855.675,364.431,-524.393,0,0
183116.0,362.335,-525.146,0,0
183376.325,359.942,-525.951,0,0
183636.65,356.941,-526.571,0,0
183896.975,353.149,-526.602,0,0
184157.3,349.295,-525.332,0,0
184417.625,346.241,-523.411,0,0
184677.95,343.486,-521.849,0,0
184938.275,340.191,-519.894,0,0
185198.6,336.984,-517.162,0,0
185458.925,334.181,-513.973,0,0
185719.25,331.733,-510.382,0,0
185979.575,329.611,-506.524,0,0
186239.9,327.877,-502.342,0,0
186500,326.488,-497.927,0,0
186761,325.748,-493.039,0,0
187021,325.941,-488.279,0,0
187281,326.627,-483.937,0,0
187542,327.658,-479.889,0,0
187802,328.976,-476.33,0,0
188062,330.226,-473.158,0,0
188322,331.528,-470.081,0,0
188583,332.918,-467.51,0,0
188843,333.684,-465.338,0,0
189103,333.76,-462.58,0,0
189364,334.067,-458.934,0,0
189624,335.187,-454.943,0,0
189884,336.971,-451.222,0,0
190145,339.081,-448.002,0,0
190405,341.135,-445.152,0,0
190665,343.034,-442.479,0,0
190926,344.878,-439.856,0,0
191186,346.783,-437.303,0,0
191446,348.434,-434.828,0,0
191707,349.896,-432.174,0,0
191967,351.494,-429.176,0,0
192227,353.317,-426.303,0,0
192488,354.858,-423.351,0,0
192748,356.271,-419.921,0,0
193008,358.007,-415.77,0,0
193269,360.504,-411.168,0,0
193529,363.985,-406.607,0,0
193789,368.147,-402.551,0,0
194050,372.55,-398.921,0,0
194310,377.228,-395.52,0,0
194570,382.304,-392.488,0,0
194831,387.429,-389.793,0,0
195091,392.847,-387.169,0,0
195351,399.027,-384.645,0,0
195612,405.581,-382.978,0,0
195872,412.476,-382.382,0,0
196132,419.094,-382.642,0,0
196393,425.513,-383.642,0,0
196653,431.567,-385.628,0,0
196913,436.496,-388.612,0,0
197174,439.645,-391.538,0,0
197434,442.137,-393.226,0,0
197694,444.887,-394.317,0,0
197955,447.841,-395.386,0,0
198215,450.62,-396.51,0,0
198475,453.465,-397.408,0,0
198735,456.207,-398.733,0,0
198996,458.419,-399.971,0,0
199256,460.505,-400.752,0,0
199516,462.718,-401.272,0,0
199777,465.073,-402.038,0,0
200037,467.007,-403.14,0,0
200297,468.052,-404.014,0,0
200558,468.476,-403.745,0,0
200818,469.305,-402.212,0,0
201078,471.162,-400.004,0,0
201339,473.922,-397.895,0,0
201599,477.131,-395.963,0,0
201859,480.715,-394.157,0,0
202120,484.531,-392.328,0,0
202380.025,488.849,-390.319,0,0
202640.35,494.146,-388.483,0,0
202900.675,500.008,-387.44,0,0
203161.0,505.981,-387.056,0,0
203421.325,512.034,-387.108,0,0
203681.65,518.127,-387.656,0,0
203941.975,524.352,-388.59,0,0
204202.3,530.664,-390.061,0,0
204462.625,536.931,-392.398,0,0
204722.95,542.673,-395.365,0,0
204983.275,547.808,-398.643,0,0
205243.6,552.371,-402.257,0,0
205503.925,556.229,-405.871,0,0
205764.25,559.636,-409.485,0,0
206024.575,562.154,-413.214,0,0
206284.9,563.431,-415.998,0,0
206545.225,564.64,-417.118,0,0
206805.55,566.534,-417.145,0,0
207065.875,569.547,-416.402,0,0
207326.2,573.961,-415.566,0,0
207586.525,579.261,-415.519,0,0
207846.85,584.768,-415.921,0,0
208107.175,590.591,-416.529,0,0
208367.5,597.094,-417.522,0,0
208627.825,603.952,-419.262,0,0
208888.15,610.795,-421.597,0,0
209148.475,617.811,-424.359,0,0
209408.8,624.9,-427.769,0,0
209669.125,631.933,-431.856,0,0
209929.45,638.711,-436.44,0,0
210189.775,645.228,-441.402,0,0
210450.1,651.56,-446.744,0,0
210710.425,657.735,-452.431,0,0
210970.75,663.679,-458.568,0,0
211231.075,669.257,-465.111,0,0
211491.4,674.419,-471.999,0,0
211751.725,679.016,-478.976,0,0
212012.05,683.35,-485.814,0,0
212272.375,687.649,-492.639,0,0
212532.7,691.981,-499.481,0,0
212793.025,696.369,-506.575,0,0
213053.35,700.871,-514.165,0,0
213313.675,705.147,-522.434,0,0
213574.0,708.762,-531.297,0,0
213834.325,711.623,-540.201,0,0
214094.65,713.923,-549.046,0,0
214354.975,716.128,-557.693,0,0
214615.3,718.181,-566.549,0,0
214875.625,719.958,-575.464,0,0
215135.95,721.44,-584.788,0,0
215396.275,722.36,-594.382,0,0
215656.6,722.56,-603.831,0,0
215916.925,722.353,-613.064,0,0
216177.25,721.965,-622.037,0,0
216437.575,721.529,-630.968,0,0
216697.9,720.993,-640.196,0,0
216958.225,719.756,-649.786,0,0
217218.55,717.689,-658.957,0,0
217478.875,715.407,-667.719,0,0
217739.2,713.063,-676.198,0,0
217999.525,710.645,-684.953,0,0
218259.85,707.806,-693.583,0,0
218520,704.386,-702.003,0,0
218780,700.489,-709.914,0,0
219041,696.678,-717.117,0,0
219301,693.213,-724.105,0,0
219561,689.994,-731.119,0,0
219822,686.878,-738.534,0,0
220082,683.484,-746.336,0,0
220342,679.559,-754.315,0,0
220603,675.19,-762.104,0,0
220863,670.492,-769.892,0,0
221123,665.427,-777.459,0,0
221384,660.196,-785.018,0,0
221644,654.706,-792.845,0,0
221904,648.467,-800.754,0,0
222165,641.216,-808.445,0,0
222425,633.194,-815.517,0,0
222685,624.654,-821.732,0,0
222946,615.682,-827.535,0,0
223206,606.115,-832.655,0,0
223466,595.87,-836.158,0,0
223727,586.154,-838.129,0,0
223987,577.111,-839.261,0,0
224247,568.734,-839.91,0,0
224508,560.914,-839.713,0,0
224768,554.012,-838.979,0,0
225028,548.209,-838.327,0,0
225289,543.116,-837.818,0,0
225549,538.765,-837.465,0,0
225809,534.904,-837.646,0,0
226070,531.254,-838.441,0,0
226330,527.417,-839.749,0,0
226590,523.272,-841.192,0,0
226851,519.449,-842.407,0,0
227111,515.82,-844.019,0,0
227371,512.291,-846.364,0,0
227632,508.078,-849.195,0,0
227892,503.125,-851.817,0,0
228152,497.903,-854.145,0,0
228413,492.424,-856.166,0,0
228673,486.731,-857.949,0,0
228933,481.022,-859.236,0,0
229193,475.607,-860.155,0,0
229454,470.505,-861.145,0,0
229714,465.347,-862.311,0,0
229974,460.089,-863.443,0,0
230235,454.767,-864.395,0,0
230495,449.35,-865.357,0,0
230755,443.761,-866.204,0,0
231016,438.089,-866.801,0,0
231276,432.409,-867.11,0,0
231536,426.718,-867.278,0,0
231797,421.095,-867.148,0,0
232057,415.68,-866.878,0,0
232317,410.285,-866.485,0,0
232578,405.048,-865.885,0,0
232838,400.019,-865.322,0,0
233098,395.006,-864.726,0,0
233359,389.998,-864.007,0,0
233619,385.216,-863.232,0,0
233879,380.36,-862.463,0,0
234140,375.582,-861.623,0,0
234400,370.86,-860.585,0,0
234660.3,366.36,-859.574,0,0
234920.625,361.982,-858.548,0,0
235180.95,357.687,-857.791,0,0
235441.275,353.248,-857.122,0,0
235701.6,348.557,-856.459,0,0
235961.925,343.764,-855.744,0,0
236222.25,338.781,-854.744,0,0
236482.575,333.773,-853.457,0,0
236742.9,328.904,-852.028,0,0
237003.225,324.167,-850.507,0,0
237263.55,319.391,-849.091,0,0
237523.875,314.451,-847.549,0,0
237784.2,309.386,-845.832,0,0
238044.525,304.171,-843.719,0,0
238304.85,299.064,-841.198,0,0
238565.175,294.185,-838.33,0,0
238825.5,289.521,-835.348,0,0
239085.825,285.121,-831.999,0,0
239346.15,281.067,-828.533,0,0
239606.475,277.447,-825.204,0,0
239866.8,274.005,-821.82,0,0
240127.125,270.486,-818.442,0,0
240387.45,267.191,-815.264,0,0
240647.775,263.95,-812.033,0,0
240908.1,260.766,-808.562,0,0
241168.425,257.759,-805.115,0,0
241428.75,254.893,-801.431,0,0
241689.075,252.05,-797.645,0,0
241949.4,249.799,-793.731,0,0
242209.725,247.802,-789.849,0,0
242470.05,246.073,-786.227,0,0
242730.375,244.431,-782.777,0,0
242990.7,242.882,-779.322,0,0
243251.025,241.563,-775.875,0,0
243511.35,240.478,-772.593,0,0
243771.675,239.629,-769.591,0,0
244032.0,238.658,-766.929,0,0
244292.325,237.637,-764.378,0,0
244552.65,236.651,-761.847,0,0
244812.975,235.574,-759.487,0,0
245073.3,234.473,-757.346,0,0
245333.625,233.285,-755.016,0,0
245593.95,231.933,-752.684,0,0
245854.275,230.657,-750.181,0,0
246114.6,229.466,-747.796,0,0
246374.925,228.339,-745.267,0,0
246635.25,227.202,-742.76,0,0
246895.575,226.318,-740.216,0,0
247155.9,225.519,-737.778,0,0
247416.225,224.606,-735.534,0,0
247676.55,223.651,-733.232,0,0
247936.875,222.705,-730.727,0,0
248197.2,221.918,-728.233,0,0
248457.525,221.359,-725.595,0,0
248717.85,220.969,-722.952,0,0
248978.175,220.945,-720.46,0,0
249238.5,221.061,-718.32,0,0
249498.825,221.251,-716.63,0,0
249759.15,221.278,-715.176,0,0
250019.475,221.251,-713.931,0,0
250279.8,220.968,-712.717,0,0
250540,220.51,-711.787,0,0
250800,219.731,-710.826,0,0
251061,218.762,-709.85,0,0
251321,217.641,-708.741,0,0
251581,216.385,-707.517,0,0
251842,214.99,-706.158,0,0
252102,213.581,-704.725,0,0
252362,211.974,-703.197,0,0
252623,210.287,-701.344,0,0
252883,208.511,-699.258,0,0
253143,206.93,-696.891,0,0
253404,205.468,-694.381,0,0
253664,204.091,-691.763,0,0
253924,202.838,-688.919,0,0
254185,201.751,-685.928,0,0
254445,200.889,-682.735,0,0
254705,200.288,-679.544,0,0
254966,199.954,-676.372,0,0
255226,199.718,-673.135,0,0
255486,199.612,-669.839,0,0
255747,199.756,-666.405,0,0
256007,200.292,-662.931,0,0
256267,201.198,-659.557,0,0
256528,202.369,-656.305,0,0
256788,203.916,-653.339,0,0
257048,205.663,-650.801,0,0
257309,207.39,-648.554,0,0
257569,209.183,-646.571,0,0
257829,210.767,-644.817,0,0
258090,212.27,-643.128,0,0
258350,213.666,-641.369,0,0
258610,215.056,-639.511,0,0
258871,216.637,-637.525,0,0
259131,218.601,-635.441,0,0
259391,220.853,-633.458,0,0
259651,223.555,-631.75,0,0
259912,226.5,-630.441,0,0
260172,229.661,-629.599,0,0
260432,232.857,-629.12,0,0
260693,236.196,-629.026,0,0
260953,239.679,-629.457,0,0
261213,243.192,-630.602,0,0
261474,246.296,-632.511,0,0
261734,248.895,-634.79,0,0
261994,251.019,-637.408,0,0
262255,252.649,-640.291,0,0
262515,253.816,-643.386,0,0
262775,254.395,-646.523,0,0
263036,254.408,-649.586,0,0
263296,254.074,-652.532,0,0
263556,253.435,-655.37,0,0
263817,252.446,-658.148,0,0
264077,251.076,-660.832,0,0
264337,249.358,-663.324,0,0
264598,247.251,-665.591,0,0
264858,244.923,-667.485,0,0
265118,242.361,-669.115,0,0
265379,239.683,-670.407,0,0
265639,236.846,-671.436,0,0
265899,233.9,-672.206,0,0
266160,230.99,-672.575,0,0
266420,227.934,-672.798,0,0
266680.25,224.864,-672.611,0,0
266940.575,221.844,-672.155,0,0
267200.9,218.92,-671.322,0,0
267461.225,216.18,-670.301,0,0
267721.55,213.523,-668.926,0,0
267981.875,211.086,-667.386,0,0
268242.2,208.907,-665.647,0,0
268502.525,206.987,-663.851,0,0
268762.85,205.267,-662.012,0,0
269023.175,203.685,-660.089,0,0
269283.5,202.295,-658.24,0,0
269543.825,201.005,-656.32,0,0
269804.15,199.786,-654.389,0,0
270064.475,198.712,-652.332,0,0
270324.8,197.783,-650.29,0,0
270585.125,197.113,-648.198,0,0
270845.45,196.596,-646.182,0,0
271105.775,196.235,-644.221,0,0
271366.1,196.043,-642.432,0,0
271626.425,195.933,-640.661,0,0
271886.75,195.928,-639.065,0,0
272147.075,196.024,-637.61,0,0
272407.4,196.026,-636.405,0,0
272667.725,195.78,-635.256,0,0
272928.05,195.346,-633.92,0,0
273188.375,194.968,-632.474,0,0
273448.7,194.664,-630.846,0,0
273709.025,194.462,-629.122,0,0
273969.35,194.501,-627.236,0,0
274229.675,194.755,-625.42,0,0
274490.0,195.167,-623.644,0,0
274750.325,195.713,-621.976,0,0
275010.65,196.428,-620.379,0,0
275270.975,197.205,-618.791,0,0
275531.3,198.243,-617.294,0,0
275791.625,199.438,-615.892,0,0
276051.95,200.743,-614.714,0,0
276312.275,202.213,-613.64,0,0
276572.6,203.793,-612.813,0,0
276832.925,205.515,-612.258,0,0
277093.25,207.225,-612.032,0,0
277353.575,208.904,-612.063,0,0
277613.9,210.496,-612.34,0,0
277874.225,211.986,-612.823,0,0
278134.55,213.354,-613.554,0,0
278394.875,214.584,-614.451,0,0
278655.2,215.642,-615.539,0,0
278915.525,216.558,-616.819,0,0
279175.85,217.272,-618.182,0,0
279436.175,217.732,-619.617,0,0
279696.5,218.051,-621.213,0,0
279956.825,218.018,-622.935,0,0
280217.15,217.828,-624.643,0,0
280477.475,217.216,-626.322,0,0
280737.8,216.34,-627.897,0,0
280998.125,215.26,-629.181,0,0
281258.45,214.214,-630.359,0,0
281518.775,213.042,-631.495,0,0
281779.1,211.755,-632.567,0,0
282039.425,210.279,-633.551,0,0
282299.75,208.647,-634.38,0,0
282560,206.966,-634.985,0,0
282820,205.314,-635.461,0,0
283081,203.609,-635.862,0,0
283341,201.862,-636.143,0,0
283601,200.054,-636.28,0,0
283862,198.173,-636.274,0,0
284122,196.353,-636.12,0,0
284382,194.578,-635.88,0,0
284643,192.754,-635.494,0,0
284903,190.924,-634.963,0,0
285163,189.163,-634.323,0,0
285424,187.45,-633.501,0,0
285684,185.798,-632.545,0,0
285944,184.279,-631.475,0,0
286205,182.872,-630.345,0,0
286465,181.593,-629.061,0,0
286725,180.424,-627.802,0,0
286986,179.348,-626.425,0,0
287246,178.47,-625.022,0,0
287506,177.734,-623.61,0,0
287767,177.187,-622.188,0,0
288027,176.821,-620.839,0,0
288287,176.607,-619.609,0,0
288548,176.469,-618.568,0,0
288808,176.384,-617.637,0,0
289068,176.316,-616.831,0,0
289329,176.218,-616.21,0,0
289589,176.015,-615.611,0,0
289849,175.772,-615.091,0,0
290109,175.472,-614.612,0,0
290370,175.197,-614.059,0,0
290630,174.882,-613.621,0,0
290890,174.577,-613.268,0,0
291151,174.101,-612.948,0,0
291411,173.523,-612.61,0,0
291671,172.847,-612.177,0,0
291932,172.112,-611.675,0,0
292192,171.352,-611.063,0,0
292452,170.596,-610.31,0,0
292713,169.883,-609.438,0,0
292973,169.237,-608.439,0,0
293233,168.731,-607.349,0,0
293494,168.424,-606.189,0,0
293754,168.258,-605.039,0,0
294014,168.285,-603.953,0,0
294275,168.438,-602.957,0,0
294535,168.633,-602.109,0,0
294795,168.982,-601.317,0,0
295056,169.373,-600.617,0,0
295316,169.866,-600.078,0,0
295576,170.406,-599.725,0,0
295837,170.915,-599.542,0,0
296097,171.385,-599.528,0,0
296357,171.802,-599.665,0,0
296618,172.127,-599.897,0,0
296878,172.363,-600.271,0,0
297138,172.484,-600.757,0,0
297399,172.42,-601.329,0,0
297659,172.224,-601.918,0,0
297919,171.882,-602.531,0,0
298180,171.395,-603.098,0,0
298440,170.793,-603.609,0,0
298700.2,170.11,-604.093,0,0
298960.525,169.401,-604.536,0,0
299220.85,168.595,-604.953,0,0
299481.175,167.712,-605.339,0,0
299741.5,166.77,-605.664,0,0
300001.825,165.774,-605.973,0,0
300262.15,164.719,-606.244,0,0
300522.475,163.609,-606.447,0,0
300782.8,162.458,-606.598,0,0
301043.125,161.213,-606.656,0,0
301303.45,159.943,-606.706,0,0
301563.775,158.636,-606.644,0,0
301824.1,157.283,-606.521,0,0
302084.425,155.888,-606.283,0,0
302344.75,154.537,-605.938,0,0
302605.075,153.171,-605.518,0,0
302865.4,151.866,-605.028,0,0
303125.725,150.586,-604.481,0,0
303386.05,149.34,-603.893,0,0
303646.375,148.137,-603.249,0,0
303906.7,146.92,-602.598,0,0
304167.025,145.736,-601.919,0,0
304427.35,144.52,-601.16,0,0
304687.675,143.392,-600.318,0,0
304948.0,142.252,-599.419,0,0
305208.325,141.221,-598.465,0,0
305468.65,140.213,-597.493,0,0
305728.975,139.295,-596.483,0,0
305989.3,138.458,-595.429,0,0
306249.625,137.663,-594.411,0,0
306509.95,136.94,-593.379,0,0
306770.275,136.266,-592.347,0,0
307030.6,135.681,-591.322,0,0
307290.925,135.144,-590.33,0,0
307551.25,134.672,-589.372,0,0
307811.575,134.249,-588.47,0,0
308071.9,133.867,-587.622,0,0
308332.225,133.483,-586.831,0,0
308592.55,133.115,-586.08,0,0
308852.875,132.72,-585.414,0,0
309113.2,132.338,-584.759,0,0
309373.525,131.912,-584.16,0,0
309633.85,131.476,-583.574,0,0
309894.175,131.017,-583.022,0,0
310154.5,130.549,-582.473,0,0
310414.825,130.045,-582.001,0,0
310675.15,129.501,-581.584,0,0
310935.475,128.858,-581.169,0,0
311195.8,128.145,-580.709,0,0
311456.125,127.351,-580.221,0,0
311716.45,126.505,-579.679,0,0
311976.775,125.631,-579.071,0,0
312237.1,124.737,-578.406,0,0
312497.425,123.803,-577.648,0,0
312757.75,122.901,-576.833,0,0
313018.075,122.02,-575.94,0,0
313278.4,121.12,-574.987,0,0
313538.725,120.262,-573.963,0,0
313799.05,119.456,-572.864,0,0
314059.375,118.677,-571.723,0,0
314319.7,117.991,-570.525,0,0
314580,117.313,-569.191,0,0
314840,116.814,-567.897,0,0
315101,116.371,-566.526,0,0
315361,116.142,-565.185,0,0
315621,115.872,-563.801,0,0
315882,115.733,-562.526,0,0
316142,115.796,-561.329,0,0
316402,115.902,-560.185,0,0
316663,116.01,-559.081,0,0
316923,116.129,-558.129,0,0
317183,116.277,-557.299,0,0
317444,116.47,-556.489,0,0
317704,116.45,-555.758,0,0
317964,116.58,-555.023,0,0
318225,116.611,-554.382,0,0
318485,116.723,-553.71,0,0
318745,116.631,-553.063,0,0
319006,116.606,-552.435,0,0
319266,116.612,-551.766,0,0
319526,116.616,-551.041,0,0
319787,116.679,-550.431,0,0
320047,116.677,-549.85,0,0
320307,116.765,-549.232,0,0
320567,116.764,-548.617,0,0
320828,116.88,-548.043,0,0
321088,117.072,-547.434,0,0
321348,117.157,-546.924,0,0
321609,117.42,-546.365,0,0
321869,117.653,-545.99,0,0
322129,117.929,-545.585,0,0
322390,118.207,-545.366,0,0
322650,118.467,-545.24,0,0
322910,118.676,-545.148,0,0
323171,118.801,-545.083,0,0
323431,118.943,-545.189,0,0
323691,118.947,-545.355,0,0
323952,118.99,-545.427,0,0
324212,118.86,-545.703,0,0
324472,118.698,-545.964,0,0
324733,118.354,-546.243,0,0
324993,117.943,-546.587,0,0
325253,117.477,-546.784,0,0
325514,116.798,-547.046,0,0
325774,116.084,-547.172,0,0
326034,115.421,-547.281,0,0
326295,114.618,-547.349,0,0
326555,113.793,-547.37,0,0
326815,112.933,-547.33,0,0
327076,112.075,-547.125,0,0
327336,111.094,-547.023,0,0
327596,110.23,-546.87,0,0
327857,109.322,-546.566,0,0
328117,108.362,-546.224,0,0
328377,107.48,-545.839,0,0
328638,106.53,-545.476,0,0
328898,105.557,-545.018,0,0
329158,104.664,-544.524,0,0
329419,103.823,-544.051,0,0
329679,103.021,-543.426,0,0
329939,102.147,-542.878,0,0
330200,101.34,-542.352,0,0
330460,100.478,-541.821,0,0
330720.15,99.616,-541.23,0,0
330980.475,98.7592,-540.622,0,0
331240.8,97.9574,-540.061,0,0
331501.125,97.012,-539.431,0,0
331761.45,96.1775,-538.775,0,0
332021.775,95.3477,-538.099,0,0
332282.1,94.443,-537.351,0,0
332542.425,93.5318,-536.628,0,0
332802.75,92.7354,-535.884,0,0
333063.075,91.823,-535.073,0,0
333323.4,90.9447,-534.223,0,0
333583.725,90.1046,-533.368,0,0
333844.05,89.1546,-532.431,0,0
334104.375,88.2943,-531.473,0,0
334364.7,87.4549,-530.486,0,0
334625.025,86.7058,-529.411,0,0
334885.35,85.8383,-528.351,0,0
335145.675,85.1325,-527.181,0,0
335406.0,84.4197,-526.033,0,0
335666.325,83.7885,-524.889,0,0
335926.65,83.1078,-523.715,0,0
336186.975,82.5718,-522.447,0,0
336447.3,81.9984,-521.287,0,0
336707.625,81.4708,-520.058,0,0
336967.95,80.9731,-518.799,0,0
337228.275,80.5186,-517.562,0,0
337488.6,80.1993,-516.287,0,0
337748.925,79.7107,-515.1,0,0
338009.25,79.4079,-513.866,0,0
338269.575,79.0159,-512.582,0,0
338529.9,78.6935,-511.326,0,0
338790.225,78.4064,-510.023,0,0
339050.55,78.1474,-508.687,0,0
339310.875,77.9346,-507.282,0,0
339571.2,77.792,-505.976,0,0
339831.525,77.6985,-504.57,0,0
340091.85,77.7233,-503.151,0,0
340352.175,77.7974,-501.789,0,0
340612.5,77.9546,-500.46,0,0
340872.825,78.1993,-499.137,0,0
341133.15,78.3948,-497.864,0,0
341393.475,78.8156,-496.663,0,0
341653.8,79.2174,-495.423,0,0
341914.125,79.6282,-494.405,0,0
342174.45,80.2256,-493.301,0,0
342434.775,80.7292,-492.424,0,0
342695.1,81.2888,-491.587,0,0
342955.425,81.7984,-490.891,0,0
343215.75,82.3457,-490.196,0,0
343476.075,82.9025,-489.639,0,0
343736.4,83.3386,-489.151,0,0
343996.725,83.7659,-488.732,0,0
344257.05,84.1322,-488.364,0,0
344517.375,84.3687,-488.133,0,0
344777.7,84.553,-487.756,0,0
345038.025,84.7051,-487.487,0,0
345298.35,84.746,-487.152,0,0
345558.675,84.7003,-486.749,0,0
345819.0,84.7169,-486.381,0,0
346079.325,84.7192,-485.933,0,0
346339.65,84.6378,-485.53,0,0
346599.975,84.6659,-485.055,0,0
346860,84.5886,-484.637,0,0
347121,84.5663,-484.22,0,0
347381,84.4898,-483.756,0,0
347641,84.3304,-483.305,0,0
347902,84.1905,-482.808,0,0
348162,84.0346,-482.258,0,0
348422,83.8075,-481.717,0,0
348683,83.6254,-481.061,0,0
348943,83.4208,-480.438,0,0
349203,83.2951,-479.73,0,0
349464,83.2253,-478.985,0,0
349724,83.1823,-478.178,0,0
349984,83.2742,-477.331,0,0
350245,83.4443,-476.627,0,0
350505,83.5792,-475.822,0,0
350765,83.7839,-475.129,0,0
351025,84.0974,-474.45,0,0
351286,84.5225,-473.873,0,0
351546,84.8937,-473.393,0,0
351806,85.2703,-472.996,0,0
352067,85.6539,-472.724,0,0
352327,85.9304,-472.53,0,0
352587,86.1085,-472.402,0,0
352848,86.2757,-472.287,0,0
353108,86.3931,-472.281,0,0
353368,86.3575,-472.222,0,0
353629,86.2396,-472.18,0,0
353889,85.9991,-472.029,0,0
354149,85.7754,-471.918,0,0
354410,85.4907,-471.711,0,0
354670,85.209,-471.478,0,0
354930,84.8499,-471.197,0,0
355191,84.555,-470.753,0,0
355451,84.2283,-470.448,0,0
355711,83.9135,-470.016,0,0
355972,83.6847,-469.578,0,0
356232,83.364,-469.177,0,0
356492,82.9893,-468.753,0,0
356753,82.6504,-468.275,0,0
357013,82.3154,-467.748,0,0
357273,81.9381,-467.234,0,0
357534,81.562,-466.567,0,0
357794,81.272,-465.978,0,0
358054,80.992,-465.259,0,0
358315,80.8176,-464.544,0,0
358575,80.5864,-463.825,0,0
358835,80.5024,-463.101,0,0
359096,80.4213,-462.421,0,0
359356,80.3339,-461.799,0,0
359616,80.2837,-461.086,0,0
359877,80.273,-460.486,0,0
360137,80.284,-459.831,0,0
360397,80.2718,-459.243,0,0
360658,80.295,-458.726,0,0
360918,80.2835,-458.148,0,0
361178,80.2081,-457.625,0,0
361438,80.1677,-457.098,0,0
361699,80.1431,-456.549,0,0
361959,80.0497,-456.025,0,0
362219,79.9594,-455.422,0,0
362480,79.8739,-454.842,0,0
362740.1,79.8286,-454.205,0,0
363000.425,79.7928,-453.49,0,0
363260.75,79.8112,-452.788,0,0
363521.075,79.9005,-452.059,0,0
363781.4,80.0305,-451.428,0,0
364041.725,80.2733,-450.814,0,0
364302.05,80.5391,-450.249,0,0
364562.375,80.7832,-449.731,0,0
364822.7,81.1334,-449.262,0,0
365083.025,81.496,-448.885,0,0
365343.35,81.7824,-448.631,0,0
365603.675,82.0585,-448.448,0,0
365864.0,82.274,-448.359,0,0
366124.325,82.4093,-448.294,0,0
366384.65,82.4318,-448.309,0,0
366644.975,82.2722,-448.301,0,0
366905.3,82.1442,-448.267,0,0
367165.625,81.9149,-448.206,0,0
367425.95,81.6222,-448.05,0,0
367686.275,81.2382,-447.898,0,0
367946.6,80.871,-447.653,0,0
368206.925,80.408,-447.391,0,0
368467.25,79.9311,-447.055,0,0
368727.575,79.3866,-446.557,0,0
368987.9,78.8851,-445.949,0,0
369248.225,78.4006,-445.26,0,0
369508.55,77.9836,-444.459,0,0
369768.875,77.7483,-443.533,0,0
370029.2,77.6108,-442.612,0,0
370289.525,77.6507,-441.701,0,0
370549.85,77.8024,-440.853,0,0
370810.175,77.9921,-440.106,0,0
371070.5,78.3683,-439.428,0,0
371330.825,78.7135,-438.881,0,0
371591.15,79.1013,-438.465,0,0
371851.475,79.4219,-438.172,0,0
372111.8,79.7311,-437.996,0,0
372372.125,79.9028,-437.915,0,0
372632.45,80.0003,-437.883,0,0
372892.775,79.9725,-437.897,0,0
373153.1,79.7758,-437.863,0,0
373413.425,79.5119,-437.736,0,0
373673.75,79.1783,-437.583,0,0
373934.075,78.7681,-437.408,0,0
374194.4,78.38,-437.096,0,0
374454.725,77.9625,-436.702,0,0
374715.05,77.5656,-436.289,0,0
374975.375,77.1449,-435.77,0,0
375235.7,76.7366,-435.24,0,0
375496.025,76.4002,-434.641,0,0
375756.35,76.0425,-433.975,0,0
376016.675,75.7523,-433.235,0,0
376277.0,75.5062,-432.448,0,0
376537.325,75.3348,-431.694,0,0
376797.65,75.248,-430.917,0,0
377057.975,75.2212,-430.174,0,0
377318.3,75.2115,-429.434,0,0
377578.625,75.2645,-428.688,0,0
377838.95,75.4112,-428.03,0,0
378099.275,75.476,-427.354,0,0
378359.6,75.6383,-426.786,0,0
378619.925,75.7315,-426.173,0,0
378880,75.959,-425.589,0,0
379141,76.0915,-424.974,0,0
379401,76.2656,-424.453,0,0
379661,76.4859,-423.96,0,0
379922,76.7586,-423.539,0,0
380182,77.0275,-423.189,0,0
380442,77.2285,-422.91,0,0
380703,77.3891,-422.611,0,0
380963,77.5034,-422.416,0,0
381223,77.5184,-422.18,0,0
381483,77.5096,-421.949,0,0
381744,77.537,-421.672,0,0
382004,77.4621,-421.436,0,0
382264,77.4561,-421.091,0,0
382525,77.3581,-420.791,0,0
382785,77.3089,-420.477,0,0
383045,77.2831,-420.174,0,0
383306,77.2472,-419.916,0,0
383566,77.2026,-419.642,0,0
383826,77.1124,-419.413,0,0
384087,76.9442,-419.167,0,0
384347,76.7901,-418.919,0,0
384607,76.5761,-418.616,0,0
384868,76.3211,-418.334,0,0
385128,76.088,-417.985,0,0
385388,75.7981,-417.593,0,0
385649,75.5748,-417.226,0,0
385909,75.3499,-416.804,0,0
386169,75.0326,-416.325,0,0
386430,74.787,-415.895,0,0
386690,74.5221,-415.369,0,0
386950,74.263,-414.912,0,0
387211,73.9788,-414.381,0,0
387471,73.7141,-413.8,0,0
387731,73.4409,-413.159,0,0
387992,73.2004,-412.572,0,0
388252,72.9517,-411.905,0,0
388512,72.7192,-411.21,0,0
388773,72.5436,-410.48,0,0
389033,72.368,-409.718,0,0
389293,72.2535,-408.914,0,0
389554,72.153,-408.132,0,0
389814,72.0698,-407.296,0,0
390074,72.0558,-406.464,0,0
390335,72.1127,-405.635,0,0
390595,72.1894,-404.755,0,0
390855,72.3348,-403.902,0,0
391116,72.5299,-403.09,0,0
391376,72.7729,-402.249,0,0
391636,73.0778,-401.423,0,0
391896,73.4131,-400.622,0,0
392157,73.823,-399.919,0,0
392417,74.2795,-399.225,0,0
392677,74.7546,-398.597,0,0
392938,75.274,-398.034,0,0
393198,75.7513,-397.5,0,0
393458,76.2807,-397.041,0,0
393719,76.7979,-396.634,0,0
393979,77.3137,-396.318,0,0
394239,77.7767,-395.981,0,0
394500,78.2459,-395.676,0,0
394760.05,78.7158,-395.442,0,0
395020.375,79.157,-395.245,0,0
395280.7,79.5992,-395.073,0,0
395541.025,79.9621,-394.884,0,0
395801.35,80.3546,-394.821,0,0
396061.675,80.7367,-394.701,0,0
396322.0,81.0701,-394.687,0,0
396582.325,81.4209,-394.654,0,0
396842.65,81.6803,-394.669,0,0
397102.975,81.9803,-394.68,0,0
397363.3,82.1977,-394.741,0,0
397623.625,82.3705,-394.887,0,0
397883.95,82.5265,-394.983,0,0
398144.275,82.5999,-395.11,0,0
398404.6,82.5812,-395.21,0,0
398664.925,82.5612,-395.289,0,0
398925.25,82.4741,-395.36,0,0
399185.575,82.4135,-395.409,0,0
399445.9,82.3365,-395.447,0,0
399706.225,82.2058,-395.453,0,0
399966.55,82.0412,-395.524,0,0
400006.6,82.0156,-395.502,0,0