File: Accelerated corrosion test data/2025-10-17_06-53-44/sample_7.csv
Frequency (Hz),Impedance (ohms),Phase (Radians),Temperature (C),Humidity (%)
10000.0,272.446,-12100.4,0,0
10260.325,269.229,-11809.7,0,0
10520.65,257.195,-11509.8,0,0
10780.975,251.578,-11228.4,0,0
11041.3,249.286,-10960.9,0,0
11301.625,246.382,-10704.6,0,0
11561.95,249.463,-10455.2,0,0
11822.275,259.098,-10224,0,0
12082.6,268.604,-9996.72,0,0
12342.925,318.566,-9848.14,0,0
12603.25,256.301,-9651.11,0,0
12863.575,265.529,-9471.52,0,0
13123.9,235.663,-9280.4,0,0
13384.225,226.806,-9106.57,0,0
13644.55,225.695,-8928.13,0,0
13904.875,208.678,-8757.52,0,0
14165.2,209.971,-8584.01,0,0
14425.525,203.439,-8444.78,0,0
14685.8,201.82,-8297.67,0,0
14946.175,198.535,-8149.84,0,0
15206.5,194.859,-8020.16,0,0
15466.825,185.84,-7877.02,0,0
15727.15,182.458,-7749.81,0,0
15987.5,179.08,-7619.38,0,0
16247.8,177.132,-7500.94,0,0
16508.125,171.206,-7378.39,0,0
16768.45,170.893,-7259.89,0,0
17028.775,170.274,-7149.19,0,0
17289.1,165.838,-7040.9,0,0
17549.425,164.866,-6932.15,0,0
17809.75,169.958,-6823.42,0,0
18070.075,169.285,-6726.03,0,0
18330.4,180.958,-6619.65,0,0
18590.725,200.209,-6537.11,0,0
18851.05,190.716,-6464,0,0
19111.375,179.622,-6379.14,0,0
19371.7,202.89,-6314.08,0,0
19632.025,167.998,-6238.41,0,0
19892.35,158.404,-6137.99,0,0
20152.675,168.899,-6059.83,0,0
20413.0,168.452,-5987.69,0,0
20673.3,170.6,-5905.8,0,0
20933.65,180.727,-5848.67,0,0
21193.975,161.703,-5785.07,0,0
21454.3,153.174,-5709.7,0,0
21714.625,157.128,-5646.4,0,0
21974.9,145.898,-5581.99,0,0
22235.275,141.21,-5512.85,0,0
22495.6,138.988,-5449.62,0,0
22755.925,133.351,-5385.82,0,0
23016.25,129.915,-5322.06,0,0
23276.6,128.296,-5259.02,0,0
23536.9,129.032,-5199.19,0,0
23797.225,127.389,-5143.92,0,0
24057.55,124.026,-5086.01,0,0
24317.875,122.373,-5028.59,0,0
24578.2,123.632,-4974.54,0,0
24838.525,121.565,-4920.64,0,0
25098.85,120.5,-4869.24,0,0
25359.175,119.387,-4816.92,0,0
25619.5,118.476,-4764.49,0,0
25879.8,118.79,-4714.61,0,0
26140.1,119.191,-4662.66,0,0
26400.5,124.131,-4616.62,0,0
26660.8,121.012,-4569.82,0,0
26921.1,122.184,-4519.16,0,0
27181.4,126.972,-4472.09,0,0
27441.8,130.847,-4424.95,0,0
27702.1,141.932,-4378.31,0,0
27962.4,156.003,-4334.53,0,0
28222.7,177.672,-4306.15,0,0
28483.1,184.808,-4286.71,0,0
28743.4,184.693,-4272.69,0,0
29003.7,168.067,-4251.17,0,0
29264,150.108,-4217.09,0,0
29524.4,139.868,-4177.49,0,0
29784.7,132.009,-4138.76,0,0
30045,129.443,-4095.21,0,0
30305.3,130.952,-4059.12,0,0
30565.7,130.852,-4024.91,0,0
30826,132.158,-3991.5,0,0
31086.3,134.023,-3961.89,0,0
31346.6,131.764,-3932.64,0,0
31607,129.63,-3908.42,0,0
31867.3,120.41,-3876.4,0,0
32127.6,117.638,-3844.59,0,0
32387.9,114.504,-3814.13,0,0
32648.3,110.587,-3783.81,0,0
32908.6,107.684,-3753.62,0,0
33168.9,104.401,-3723.8,0,0
33429.2,101.756,-3693.77,0,0
33689.6,98.9602,-3663.94,0,0
33949.9,97.1674,-3634.69,0,0
34210.2,94.9678,-3605.37,0,0
34470.5,93.4834,-3577.02,0,0
34730.9,92.1824,-3548.69,0,0
34991.2,91.3221,-3521.44,0,0
35251.5,89.9122,-3494.22,0,0
35511.8,89.0987,-3467.27,0,0
35772.2,88.6107,-3440.77,0,0
36032.5,88.3605,-3414.86,0,0
36292.8,87.9045,-3390.12,0,0
36553.1,86.8907,-3364.77,0,0
36813.5,86.136,-3339.6,0,0
37073.8,86.2761,-3315.24,0,0
37334.1,85.7867,-3291.18,0,0
37594.4,85.5023,-3267.51,0,0
37854.8,85.2566,-3243.85,0,0
38115.1,85.1053,-3220.11,0,0
38375.4,85.396,-3196.85,0,0
38635.7,86.8429,-3173.85,0,0
38896.1,88.452,-3151.03,0,0
39156.4,90.0434,-3129.31,0,0
39416.7,93.4609,-3108.14,0,0
39677,97.2378,-3090.24,0,0
39937.4,98.4277,-3074.16,0,0
40197.7,98.6916,-3058.43,0,0
40458,95.8298,-3042.93,0,0
40718.3,92.7256,-3025,0,0
40978.7,89.3829,-3006.37,0,0
41239,86.7439,-2987.06,0,0
41499.3,84.9883,-2967.33,0,0
41759.6,84.1237,-2948.35,0,0
42020,82.1276,-2929.78,0,0
42280.275,80.3178,-2910.33,0,0
42540.6,80.0764,-2890.83,0,0
42800.925,80.2153,-2872.62,0,0
43061.25,80.2199,-2854.43,0,0
43321.575,80.3641,-2837.82,0,0
43581.9,79.0244,-2820.46,0,0
43842.225,78.7996,-2801.86,0,0
44102.55,80.0401,-2784.26,0,0
44362.875,82.0997,-2768.54,0,0
44623.2,82.1249,-2753.54,0,0
44883.525,81.1525,-2739.53,0,0
45143.85,80.1895,-2723.83,0,0
45404.175,78.9177,-2708,0,0
45664.5,79.6717,-2691.41,0,0
45924.825,80.9631,-2677.8,0,0
46185.15,79.7807,-2665.52,0,0
46445.475,77.2032,-2651.74,0,0
46705.8,74.4033,-2637.03,0,0
46966.125,72.3004,-2621.14,0,0
47226.45,71.4196,-2605.25,0,0
47486.775,71.1194,-2589.99,0,0
47747.1,70.6928,-2575.29,0,0
48007.425,70.4208,-2560.78,0,0
48267.75,70.0572,-2546.88,0,0
48528.075,68.9827,-2532.8,0,0
48788.4,68.5596,-2518.79,0,0
49048.725,67.9436,-2504.91,0,0
49309.05,67.5281,-2491.2,0,0
49569.375,67.1529,-2477.54,0,0
49829.7,66.7079,-2464,0,0
50090.025,66.4877,-2450.78,0,0
50350.35,65.9448,-2437.62,0,0
50610.675,65.6804,-2424.71,0,0
50871.0,65.2543,-2411.94,0,0
51131.325,65.0251,-2399.22,0,0
51391.65,64.5701,-2386.6,0,0
51651.975,64.2497,-2374.02,0,0
51912.3,64.0011,-2361.76,0,0
52172.625,63.9603,-2349.42,0,0
52432.95,63.7577,-2337.35,0,0
52693.275,63.5286,-2325.22,0,0
52953.6,63.5647,-2313.53,0,0
53213.925,63.5373,-2302.05,0,0
53474.25,63.1567,-2290.72,0,0
53734.575,62.9743,-2279.34,0,0
53994.9,62.4537,-2268.12,0,0
54255.225,62.1409,-2256.74,0,0
54515.55,61.8021,-2245.71,0,0
54775.875,61.7294,-2234.51,0,0
55036.2,61.2826,-2223.65,0,0
55296.525,61.0568,-2212.78,0,0
55556.85,60.8944,-2201.93,0,0
55817.175,60.4718,-2191.19,0,0
56077.5,60.294,-2180.5,0,0
56337.825,60.292,-2169.98,0,0
56598.15,60.2487,-2159.84,0,0
56858.475,60.1442,-2149.63,0,0
57118.8,59.8834,-2139.4,0,0
57379.125,59.6275,-2129.39,0,0
57639.45,59.3045,-2119.51,0,0
57899.775,59.1345,-2109.11,0,0
58160.1,59.1664,-2099.06,0,0
58420.4,59.4869,-2089.37,0,0
58680.7,59.6106,-2079.9,0,0
58941.1,59.3913,-2070.6,0,0
59201.4,59.1373,-2061.17,0,0
59461.7,59.3761,-2051.42,0,0
59722,59.7194,-2042.72,0,0
59982.4,59.3441,-2033.7,0,0
60242.7,59.5453,-2024.8,0,0
60503,59.5301,-2016.35,0,0
60763.3,58.8913,-2007.63,0,0
61023.7,58.4886,-1998.89,0,0
61284,58.2292,-1990.26,0,0
61544.3,57.7657,-1981.62,0,0
61804.6,57.2614,-1973,0,0
62065,56.772,-1964.26,0,0
62325.3,56.5592,-1955.61,0,0
62585.6,56.1543,-1947.13,0,0
62845.9,56.047,-1938.52,0,0
63106.3,55.5505,-1930.06,0,0
63366.6,55.5721,-1921.47,0,0
63626.9,55.7008,-1913.15,0,0
63887.2,55.4328,-1905.13,0,0
64147.6,55.2496,-1896.99,0,0
64407.9,55.0867,-1888.98,0,0
64668.2,54.8881,-1880.81,0,0
64928.5,54.9472,-1872.82,0,0
65188.9,54.9406,-1864.89,0,0
65449.2,55.1192,-1857.27,0,0
65709.5,54.9463,-1849.77,0,0
65969.8,54.8903,-1842.33,0,0
66230.2,54.8445,-1835.04,0,0
66490.5,54.2804,-1827.64,0,0
66750.8,54.0735,-1820.46,0,0
67011.1,53.5726,-1813.04,0,0
67271.5,53.2041,-1805.48,0,0
67531.8,53.0241,-1798.17,0,0
67792.1,52.633,-1790.76,0,0
68052.4,52.1719,-1783.46,0,0
68312.8,52.0975,-1775.98,0,0
68573.1,52.0155,-1768.74,0,0
68833.4,51.8183,-1761.59,0,0
69093.7,51.6751,-1754.46,0,0
69354.1,51.6254,-1747.3,0,0
69614.4,51.5546,-1740.45,0,0
69874.7,51.3151,-1733.49,0,0
70135,51.2559,-1726.52,0,0
70395.4,51.1951,-1719.65,0,0
70655.7,51.1528,-1712.92,0,0
70916,51.3003,-1706.24,0,0
71176.3,51.1817,-1699.67,0,0
71436.7,51.0944,-1693.31,0,0
71697,50.8904,-1686.85,0,0
71957.3,50.6521,-1680.39,0,0
72217.6,50.4429,-1673.96,0,0
72478,50.2182,-1667.44,0,0
72738.3,49.9128,-1661.02,0,0
72998.6,49.7845,-1654.66,0,0
73258.9,49.6583,-1648.23,0,0
73519.3,49.5028,-1641.94,0,0
73779.6,49.3652,-1635.72,0,0
74039.9,49.2187,-1629.43,0,0
74300.225,49.1299,-1623.15,0,0
74560.55,49.0432,-1617.04,0,0
74820.875,48.8359,-1610.94,0,0
75081.2,48.7649,-1604.83,0,0
75341.525,48.684,-1598.86,0,0
75601.85,48.5875,-1592.84,0,0
75862.175,48.4846,-1586.95,0,0
76122.5,48.3666,-1580.99,0,0
76382.825,48.2624,-1575.04,0,0
76643.15,48.1898,-1569.13,0,0
76903.475,48.1763,-1563.35,0,0
77163.8,48.1302,-1557.59,0,0
77424.125,48.0482,-1551.87,0,0
77684.45,48.0435,-1546.18,0,0
77944.775,47.8819,-1540.62,0,0
78205.1,47.8388,-1534.9,0,0
78465.425,47.7668,-1529.37,0,0
78725.75,47.7312,-1523.78,0,0
78986.075,47.6683,-1518.22,0,0
79246.4,47.6518,-1512.68,0,0
79506.725,47.6047,-1507.21,0,0
79767.05,47.5116,-1501.82,0,0
80027.375,47.5528,-1496.43,0,0
80287.7,47.5101,-1491.21,0,0
80548.025,47.4373,-1485.86,0,0
80808.35,47.2999,-1480.58,0,0
81068.675,47.2617,-1475.3,0,0
81329.0,47.1622,-1470.05,0,0
81589.325,47.1399,-1464.8,0,0
81849.65,47.0915,-1459.64,0,0
82109.975,47.0124,-1454.51,0,0
82370.3,46.9823,-1449.37,0,0
82630.625,46.9753,-1444.27,0,0
82890.95,46.8943,-1439.22,0,0
83151.275,46.8317,-1434.11,0,0
83411.6,46.7473,-1429,0,0
83671.925,46.8059,-1423.96,0,0
83932.25,46.8374,-1418.99,0,0
84192.575,46.9167,-1414.04,0,0
84452.9,46.9305,-1409.05,0,0
84713.225,46.9791,-1404.2,0,0
84973.55,47.0722,-1399.38,0,0
85233.875,47.1083,-1394.68,0,0
85494.2,47.1761,-1389.96,0,0
85754.525,47.0536,-1385.25,0,0
86014.85,47.047,-1380.41,0,0
86275.175,47.1412,-1375.72,0,0
86535.5,47.2582,-1371.13,0,0
86795.825,47.2004,-1366.53,0,0
87056.15,47.2056,-1361.83,0,0
87316.475,47.3504,-1357.21,0,0
87576.8,47.3545,-1352.79,0,0
87837.125,47.3199,-1348.37,0,0
88097.45,47.3167,-1343.91,0,0
88357.775,47.234,-1339.51,0,0
88618.1,47.2084,-1335.02,0,0
88878.425,47.0876,-1330.6,0,0
89138.75,46.9218,-1326.09,0,0
89399.075,46.8821,-1321.6,0,0
89659.4,46.9094,-1317.11,0,0
89919.725,46.8267,-1312.55,0,0
90180,46.774,-1308.11,0,0
90440.4,46.9581,-1303.68,0,0
90700.7,47.0596,-1299.33,0,0
90961,47.1067,-1295.02,0,0
91221.3,47.0633,-1290.62,0,0
91481.7,47.1676,-1286.18,0,0
91742,47.2105,-1281.88,0,0
92002.3,47.3229,-1277.58,0,0
92262.6,47.6312,-1273.35,0,0
92523,47.7987,-1269.29,0,0
92783.3,47.7373,-1265.1,0,0
93043.6,47.7854,-1260.82,0,0
93303.9,47.9784,-1256.53,0,0
93564.3,48.2528,-1252.22,0,0
93824.6,48.7008,-1248.05,0,0
94084.9,49.2443,-1244.17,0,0
94345.2,49.6085,-1240.3,0,0
94605.6,49.9102,-1236.56,0,0
94865.9,50.1655,-1232.84,0,0
95126.2,50.5747,-1229.32,0,0
95386.5,50.5725,-1226.07,0,0
95646.9,50.2682,-1222.49,0,0
95907.2,49.8889,-1218.72,0,0
96167.5,49.7422,-1214.81,0,0
96427.8,49.5456,-1210.94,0,0
96688.2,49.4226,-1206.95,0,0
96948.5,49.3458,-1203.07,0,0
97208.8,49.2795,-1199.15,0,0
97469.1,49.1854,-1195.09,0,0
97729.5,49.4479,-1190.99,0,0
97989.8,49.7156,-1187.19,0,0
98250.1,49.8813,-1183.43,0,0
98510.4,50.1103,-1179.81,0,0
98770.8,50.1795,-1176.16,0,0
99031.1,50.2045,-1172.69,0,0
99291.4,50.0405,-1169.04,0,0
99551.7,49.8019,-1165.19,0,0
99812.1,49.7562,-1161.11,0,0
100072,49.9444,-1157.07,0,0
100333,50.3846,-1153.15,0,0
100593,50.6219,-1149.56,0,0
100853,50.8206,-1145.73,0,0
101114,51.2721,-1141.98,0,0
101374,51.5899,-1138.53,0,0
101634,51.7357,-1134.94,0,0
101895,52.0432,-1131.2,0,0
102155,52.409,-1127.56,0,0
102415,52.7897,-1123.94,0,0
102676,53.222,-1120.37,0,0
102936,53.8547,-1116.82,0,0
103196,54.4625,-1113.51,0,0
103457,55.0473,-1110.27,0,0
103717,55.6798,-1107.3,0,0
103977,55.8539,-1104.59,0,0
104238,55.791,-1101.39,0,0
104498,55.9667,-1098.12,0,0
104758,56.4046,-1094.94,0,0
105019,56.5694,-1092.11,0,0
105279,56.5701,-1089.18,0,0
105539,56.3367,-1086.08,0,0
105800,56.2997,-1082.84,0,0
106060,56.087,-1079.58,0,0
106320.175,56.0364,-1076,0,0
106580.5,56.3145,-1072.48,0,0
106840.825,56.6217,-1069.17,0,0
107101.15,56.9094,-1066.01,0,0
107361.475,56.97,-1062.95,0,0
107621.8,57.011,-1059.69,0,0
107882.125,57.1064,-1056.28,0,0
108142.45,57.4123,-1052.94,0,0
108402.775,57.6593,-1049.73,0,0
108663.1,57.9736,-1046.54,0,0
108923.425,58.116,-1043.37,0,0
109183.75,58.3036,-1040.19,0,0
109444.075,58.4299,-1037.03,0,0
109704.4,58.4729,-1033.74,0,0
109964.725,58.5244,-1030.23,0,0
110225.05,58.7169,-1026.63,0,0
110485.375,59.1469,-1023,0,0
110745.7,59.8062,-1019.35,0,0
111006.025,60.6765,-1015.99,0,0
111266.35,61.4405,-1013.02,0,0
111526.675,61.7828,-1009.67,0,0
111787.0,62.433,-1006.32,0,0
112047.325,63.2952,-1002.94,0,0
112307.65,64.2766,-999.641,0,0
112567.975,65.3611,-996.44,0,0
112828.3,66.4998,-993.505,0,0
113088.625,67.5777,-990.615,0,0
113348.95,68.6158,-987.929,0,0
113609.275,69.5488,-985.097,0,0
113869.6,70.6079,-982.33,0,0
114129.925,71.6838,-979.626,0,0
114390.25,72.9569,-976.91,0,0
114650.575,74.1585,-974.412,0,0
114910.9,75.3052,-971.954,0,0
115171.225,76.4622,-969.353,0,0
115431.55,77.8396,-966.867,0,0
115691.875,79.5693,-964.504,0,0
115952.2,81.2691,-962.627,0,0
116212.525,82.7851,-960.88,0,0
116472.85,84.4938,-959.326,0,0
116733.175,85.9197,-958.345,0,0
116993.5,86.9099,-957.385,0,0
117253.825,87.8438,-956.215,0,0
117514.15,88.8086,-955.3,0,0
117774.475,89.3816,-954.541,0,0
118034.8,89.7585,-953.568,0,0
118295.125,90.341,-952.385,0,0
118555.45,91.2003,-951.526,0,0
118815.775,91.8528,-951.104,0,0
119076.1,92.2821,-950.808,0,0
119336.425,92.5839,-950.959,0,0
119596.75,92.2805,-951.451,0,0
119857.075,91.1052,-951.988,0,0
120117.4,89.445,-951.763,0,0
120377.725,87.8021,-951.554,0,0
120638.05,85.3904,-951.051,0,0
120898.375,82.8916,-949.841,0,0
121158.7,80.2681,-948.08,0,0
121419.025,77.9919,-945.587,0,0
121679.35,76.3329,-943.095,0,0
121939.675,74.7969,-940.711,0,0
122200.0,73.2256,-938.351,0,0
122460,71.6047,-935.839,0,0
122721,70.1307,-933.216,0,0
122981,68.6448,-930.515,0,0
123241,67.2271,-927.565,0,0
123502,66.0546,-924.54,0,0
123762,65.072,-921.435,0,0
124022,64.3164,-918.443,0,0
124283,63.6908,-915.616,0,0
124543,62.9769,-912.901,0,0
124803,62.2554,-910.219,0,0
125064,61.4727,-907.583,0,0
125324,60.5093,-904.909,0,0
125584,59.6031,-901.937,0,0
125845,58.9096,-898.979,0,0
126105,58.2539,-896.135,0,0
126365,57.5074,-893.328,0,0
126626,56.7488,-890.237,0,0
126886,56.2374,-887.234,0,0
127146,55.552,-884.257,0,0
127406,55.0137,-881.075,0,0
127667,54.7306,-877.914,0,0
127927,54.5298,-874.99,0,0
128187,54.2597,-872.218,0,0
128448,53.8337,-869.399,0,0
128708,53.4203,-866.471,0,0
128968,53.0318,-863.471,0,0
129229,52.8126,-860.469,0,0
129489,52.6252,-857.59,0,0
129749,52.2928,-854.787,0,0
130010,51.997,-851.764,0,0
130270,51.9134,-848.854,0,0
130530,51.7637,-846.055,0,0
130791,51.4475,-843.331,0,0
131051,51.0414,-840.454,0,0
131311,50.6449,-837.369,0,0
131572,50.4812,-834.183,0,0
131832,50.4587,-831.031,0,0
132092,50.4205,-828.08,0,0
132353,50.3287,-825.08,0,0
132613,50.301,-821.977,0,0
132873,50.3085,-818.871,0,0
133134,50.401,-815.765,0,0
133394,50.5401,-812.65,0,0
133654,50.7349,-809.506,0,0
133915,51.064,-806.322,0,0
134175,51.5602,-803.137,0,0
134435,52.1775,-800.18,0,0
134696,52.802,-797.302,0,0
134956,53.374,-794.505,0,0
135216,53.9933,-791.703,0,0
135477,54.6931,-788.852,0,0
135737,55.6999,-786.115,0,0
135997,56.9442,-783.721,0,0
136258,57.9731,-781.751,0,0
136518,58.8661,-780,0,0
136778,59.5447,-778.605,0,0
137039,59.6161,-777.455,0,0
137299,59.1593,-775.873,0,0
137559,58.6083,-773.959,0,0
137819,58.0737,-771.769,0,0
138080,57.6441,-769.493,0,0
138340.125,57.077,-767.131,0,0
138600.45,56.5388,-764.471,0,0
138860.775,56.114,-761.612,0,0
139121.1,55.9775,-758.669,0,0
139381.425,55.9979,-755.818,0,0
139641.75,56.0761,-753.068,0,0
139902.075,56.1998,-750.348,0,0
140162.4,56.3782,-747.765,0,0
140422.725,56.3617,-745.245,0,0
140683.05,56.2788,-742.587,0,0
140943.375,56.2276,-739.872,0,0
141203.7,56.235,-737.09,0,0
141464.025,56.2364,-734.261,0,0
141724.35,56.3056,-731.352,0,0
141984.675,56.4971,-728.455,0,0
142245.0,56.7444,-725.57,0,0
142505.325,57.0182,-722.701,0,0
142765.65,57.3121,-719.791,0,0
143025.975,57.7737,-716.861,0,0
143286.3,58.3541,-714.028,0,0
143546.625,58.9508,-711.362,0,0
143806.95,59.577,-708.762,0,0
144067.275,60.1281,-706.322,0,0
144327.6,60.573,-703.9,0,0
144587.925,60.9169,-701.486,0,0
144848.25,61.1967,-699.026,0,0
145108.575,61.5528,-696.524,0,0
145368.9,61.8085,-694.078,0,0
145629.225,62.0207,-691.605,0,0
145889.55,62.1535,-689.073,0,0
146149.875,62.2989,-686.377,0,0
146410.2,62.5731,-683.656,0,0
146670.525,62.8576,-680.998,0,0
146930.85,63.1457,-678.286,0,0
147191.175,63.537,-675.585,0,0
147451.5,63.8356,-673.034,0,0
147711.825,64.0866,-670.304,0,0
147972.15,64.5605,-667.575,0,0
148232.475,64.9805,-665.091,0,0
148492.8,65.2363,-662.622,0,0
148753.125,65.3118,-660.14,0,0
149013.45,65.249,-657.549,0,0
149273.775,65.1339,-654.691,0,0
149534.1,65.1172,-651.698,0,0
149794.425,65.1597,-648.642,0,0
150054.75,65.2184,-645.51,0,0
150315.075,65.352,-642.28,0,0
150575.4,65.5422,-638.995,0,0
150835.725,65.7774,-635.626,0,0
151096.05,66.0959,-632.145,0,0
151356.375,66.5598,-628.66,0,0
151616.7,67.072,-625.153,0,0
151877.025,67.6755,-621.6,0,0
152137.35,68.3487,-618,0,0
152397.675,69.1349,-614.384,0,0
152658.0,70.0251,-610.798,0,0
152918.325,70.9584,-607.194,0,0
153178.65,71.9767,-603.584,0,0
153438.975,73.0629,-600.002,0,0
153699.3,74.1789,-596.416,0,0
153959.625,75.3378,-592.775,0,0
154219.95,76.6215,-589.058,0,0
154480,78.0147,-585.405,0,0
154741,79.4807,-581.711,0,0
155001,81.0626,-578.007,0,0
155261,82.7971,-574.323,0,0
155522,84.6,-570.71,0,0
155782,86.4992,-567.097,0,0
156042,88.5434,-563.517,0,0
156303,90.6663,-560.016,0,0
156563,92.8752,-556.566,0,0
156823,95.1725,-553.173,0,0
157084,97.5907,-549.8,0,0
157344,100.268,-546.532,0,0
157604,103.054,-543.548,0,0
157864,105.777,-540.818,0,0
158125,108.456,-538.169,0,0
158385,111.253,-535.687,0,0
158645,114.025,-533.617,0,0
158906,116.45,-531.819,0,0
159166,118.519,-530.084,0,0
159426,120.261,-528.339,0,0
159687,121.694,-526.458,0,0
159947,122.833,-524.481,0,0
160207,123.641,-522.084,0,0
160468,124.436,-519.282,0,0
160728,125.271,-516.198,0,0
160988,125.838,-512.844,0,0
161249,126.539,-508.689,0,0
161509,127.666,-504.095,0,0
161769,129.267,-499.103,0,0
162030,131.45,-493.979,0,0
162290,134.197,-488.856,0,0
162550,137.322,-484.013,0,0
162811,140.417,-479.188,0,0
163071,143.809,-474.056,0,0
163331,147.75,-468.731,0,0
163592,152.31,-463.655,0,0
163852,157.403,-458.948,0,0
164112,162.623,-454.618,0,0
164373,167.895,-450.449,0,0
164633,173.414,-446.439,0,0
164893,179.12,-442.755,0,0
165154,184.533,-439.345,0,0
165414,189.753,-435.498,0,0
165674,195.278,-431.078,0,0
165935,201.496,-426.286,0,0
166195,208.715,-421.421,0,0
166455,216.972,-416.857,0,0
166716,225.914,-412.954,0,0
166976,235.251,-409.499,0,0
167236,245.211,-406.317,0,0
167497,256.157,-403.903,0,0
167757,267.554,-402.618,0,0
168017,279.151,-401.942,0,0
168277,291.461,-402.035,0,0
168538,304.277,-403.684,0,0
168798,317.071,-406.588,0,0
169058,329.773,-410.771,0,0
169319,342.17,-416.621,0,0
169579,353.412,-423.499,0,0
169839,363.824,-430.726,0,0
170100,374.345,-438.456,0,0
170360.075,384.878,-447.687,0,0
170620.4,394.182,-458.688,0,0
170880.725,401.528,-470.405,0,0
171141.05,407.722,-481.943,0,0
171401.375,413.214,-493.735,0,0
171661.7,417.823,-505.787,0,0
171922.025,421.87,-518.103,0,0
172182.35,425.303,-531.271,0,0
172442.675,427.326,-545.7,0,0
172703.0,427.141,-560.356,0,0
172963.325,425.231,-574.957,0,0
173223.65,421.263,-589.198,0,0
173483.975,415.354,-602.939,0,0
173744.3,406.995,-615.294,0,0
174004.625,396.986,-625.184,0,0
174264.95,386.612,-632.586,0,0
174525.275,376.208,-638.219,0,0
174785.6,365.501,-642.035,0,0
175045.925,355.204,-643.053,0,0
175306.25,347.258,-642.495,0,0
175566.575,340.078,-642.304,0,0
175826.9,332.943,-640.42,0,0
176087.225,328.042,-637.126,0,0
176347.55,325.007,-634.211,0,0
176607.875,322.919,-631.395,0,0
176868.2,322.482,-628.536,0,0
177128.525,323.833,-626.77,0,0
177388.85,325.827,-626.979,0,0
177649.175,327.303,-628.015,0,0
177909.5,329.454,-629.188,0,0
178169.825,333.005,-631.709,0,0
178430.15,337.138,-637.382,0,0
178690.475,338.924,-646.346,0,0
178950.8,337.205,-656.099,0,0
179211.125,332.59,-665.076,0,0
179471.45,326.061,-672.196,0,0
179731.775,319.059,-677.345,0,0
179992.1,312.385,-681.211,0,0
180252.425,306.168,-684.436,0,0
180512.75,300.275,-687.643,0,0
180773.075,294.234,-691.109,0,0
181033.4,287.75,-694.826,0,0
181293.725,279.72,-698.613,0,0
181554.05,270.507,-700.609,0,0
181814.375,262.057,-701.277,0,0
182074.7,253.553,-701.917,0,0
182335.025,244.337,-701.74,0,0
182595.35,235.077,-700.108,0,0
182855.675,226.327,-697.343,0,0
183116.0,218.346,-693.557,0,0
183376.325,211.608,-689.425,0,0
183636.65,205.378,-685.582,0,0
183896.975,199.125,-681.638,0,0
184157.3,192.969,-677.028,0,0
184417.625,187.584,-671.752,0,0
184677.95,183.241,-666.431,0,0
184938.275,179.586,-661.628,0,0
185198.6,175.941,-657.291,0,0
185458.925,172.097,-653.079,0,0
185719.25,167.978,-648.643,0,0
185979.575,163.862,-643.539,0,0
186239.9,160.467,-637.854,0,0
186500,157.811,-632.268,0,0
186761,155.459,-626.966,0,0
187021,153.106,-621.546,0,0
187281,151.318,-615.798,0,0
187542,150.262,-610.178,0,0
187802,149.774,-605.04,0,0
188062,149.531,-600.553,0,0
188322,149.154,-596.559,0,0
188583,148.698,-592.953,0,0
188843,147.757,-589.731,0,0
189103,146.241,-586.335,0,0
189364,144.595,-582.406,0,0
189624,143.22,-578.252,0,0
189884,141.791,-574.096,0,0
190145,140.479,-569.557,0,0
190405,139.59,-565.032,0,0
190665,138.576,-560.783,0,0
190926,137.362,-556.114,0,0
191186,136.487,-550.961,0,0
191446,136.238,-545.842,0,0
191707,136.311,-541.071,0,0
191967,136.261,-536.545,0,0
192227,136.009,-531.958,0,0
192488,135.884,-527.05,0,0
192748,136.073,-522.033,0,0
193008,136.454,-517.061,0,0
193269,137.071,-512.077,0,0
193529,137.899,-507.227,0,0
193789,138.765,-502.47,0,0
194050,139.669,-497.659,0,0
194310,140.728,-492.744,0,0
194570,142.021,-487.717,0,0
194831,143.719,-482.727,0,0
195091,145.79,-477.99,0,0
195351,147.933,-473.606,0,0
195612,150.067,-469.355,0,0
195872,152.279,-465.215,0,0
196132,154.564,-461.295,0,0
196393,156.754,-457.512,0,0
196653,158.94,-453.646,0,0
196913,161.347,-449.899,0,0
197174,163.854,-446.384,0,0
197434,166.351,-443.12,0,0
197694,168.645,-440.227,0,0
197955,170.36,-437.335,0,0
198215,171.898,-434.028,0,0
198475,173.62,-430.462,0,0
198735,175.441,-426.853,0,0
198996,177.243,-423.268,0,0
199256,178.941,-419.581,0,0
199516,180.502,-415.612,0,0
199777,182.203,-411.171,0,0
200037,184.413,-406.58,0,0
200297,186.869,-401.908,0,0
200558,189.638,-397.242,0,0
200818,192.624,-392.713,0,0
201078,195.589,-388.276,0,0
201339,198.577,-383.59,0,0
201599,201.85,-378.64,0,0
201859,205.495,-373.557,0,0
202120,209.619,-368.454,0,0
202380.025,214.269,-363.389,0,0
202640.35,219.172,-358.657,0,0
202900.675,224.268,-354.148,0,0
203161.0,229.606,-349.67,0,0
203421.325,235.194,-345.322,0,0
203681.65,241.069,-341.18,0,0
203941.975,247.12,-337.191,0,0
204202.3,253.4,-333.248,0,0
204462.625,259.987,-329.484,0,0
204722.95,266.759,-325.824,0,0
204983.275,273.79,-322.194,0,0
205243.6,281.614,-318.348,0,0
205503.925,290.435,-315.125,0,0
205764.25,299.829,-313.077,0,0
206024.575,309.047,-312.085,0,0
206284.9,318.075,-311.838,0,0
206545.225,326.673,-312.168,0,0
206805.55,335.045,-313.014,0,0
207065.875,342.754,-314.415,0,0
207326.2,349.847,-315.83,0,0
207586.525,356.363,-317.241,0,0
207846.85,362.234,-318.146,0,0
208107.175,368.097,-318.255,0,0
208367.5,374.428,-317.555,0,0
208627.825,381.613,-316.547,0,0
208888.15,389.713,-315.285,0,0
209148.475,399.094,-314.378,0,0
209408.8,409.488,-314.257,0,0
209669.125,420.48,-315.091,0,0
209929.45,432.319,-316.913,0,0
210189.775,444.826,-320.24,0,0
210450.1,457.613,-325.468,0,0
210710.425,469.661,-332.97,0,0
210970.75,480.008,-341.813,0,0
211231.075,488.977,-350.96,0,0
211491.4,497.176,-360.466,0,0
211751.725,504.516,-370.429,0,0
212012.05,510.794,-380.928,0,0
212272.375,515.81,-391.333,0,0
212532.7,520.213,-401.355,0,0
212793.025,524.417,-411.707,0,0
213053.35,527.337,-422.666,0,0
213313.675,528.635,-432.957,0,0
213574.0,529.62,-441.936,0,0
213834.325,530.993,-450.483,0,0
214094.65,532.511,-459.291,0,0
214354.975,533.627,-468.729,0,0
214615.3,533.642,-478.204,0,0
214875.625,532.874,-486.996,0,0
215135.95,531.844,-495.265,0,0
215396.275,530.494,-503.096,0,0
215656.6,529.212,-510.329,0,0
215916.925,528.141,-517.17,0,0
216177.25,527.729,-523.984,0,0
216437.575,527.719,-531.568,0,0
216697.9,527.351,-540.309,0,0
216958.225,525.696,-549.957,0,0
217218.55,522.313,-559.442,0,0
217478.875,517.716,-567.904,0,0
217739.2,512.881,-575.331,0,0
217999.525,508.11,-582.308,0,0
218259.85,502.978,-589.096,0,0
218520,497.554,-595.667,0,0
218780,491.443,-602.179,0,0
219041,484.31,-608.137,0,0
219301,476.343,-612.987,0,0
219561,468.157,-616.384,0,0
219822,459.975,-618.69,0,0
220082,452.036,-619.695,0,0
220342,444.846,-619.572,0,0
220603,438.557,-618.955,0,0
220863,432.789,-618.151,0,0
221123,427.353,-616.957,0,0
221384,422.414,-615.128,0,0
221644,418.181,-612.889,0,0
221904,414.75,-610.466,0,0
222165,412.032,-607.986,0,0
222425,410.156,-605.525,0,0
222685,408.948,-603.569,0,0
222946,407.922,-602.162,0,0
223206,406.946,-600.911,0,0
223466,406.257,-599.828,0,0
223727,405.671,-598.971,0,0
223987,405.121,-598.348,0,0
224247,404.483,-597.885,0,0
224508,403.694,-597.378,0,0
224768,402.764,-596.71,0,0
225028,401.966,-595.672,0,0
225289,401.442,-593.963,0,0
225549,401.874,-592,0,0
225809,403.32,-590.343,0,0
226070,405.329,-589.358,0,0
226330,407.617,-589.068,0,0
226590,410.03,-589.457,0,0
226851,412.225,-590.38,0,0
227111,414.203,-591.391,0,0
227371,416.313,-592.576,0,0
227632,418.587,-593.963,0,0
227892,421.175,-595.697,0,0
228152,423.919,-598.113,0,0
228413,426.56,-601.245,0,0
228673,428.838,-604.988,0,0
228933,430.705,-609.222,0,0
229193,431.983,-613.856,0,0
229454,432.483,-618.448,0,0
229714,432.793,-622.607,0,0
229974,433.481,-626.535,0,0
230235,434.632,-631.19,0,0
230495,435.468,-636.899,0,0
230755,435.296,-643.455,0,0
231016,433.833,-649.897,0,0
231276,431.611,-655.752,0,0
231536,429.304,-660.981,0,0
231797,427.199,-666.135,0,0
232057,425.132,-671.591,0,0
232317,422.826,-677.468,0,0
232578,419.859,-683.91,0,0
232838,415.897,-690.526,0,0
233098,410.984,-696.83,0,0
233359,405.458,-702.667,0,0
233619,399.395,-708.401,0,0
233879,392.257,-713.829,0,0
234140,384.304,-718.314,0,0
234400,375.994,-721.735,0,0
234660.3,367.381,-724.556,0,0
234920.625,358.218,-726.355,0,0
235180.95,348.859,-726.753,0,0
235441.275,339.986,-725.713,0,0
235701.6,332.087,-723.706,0,0
235961.925,325.09,-721.208,0,0
236222.25,318.961,-718.425,0,0
236482.575,313.758,-715.677,0,0
236742.9,309.109,-713.363,0,0
237003.225,304.641,-711.501,0,0
237263.55,300.004,-709.851,0,0
237523.875,295.122,-708.174,0,0
237784.2,290.101,-706.302,0,0
238044.525,284.905,-704.115,0,0
238304.85,279.435,-701.444,0,0
238565.175,273.998,-697.865,0,0
238825.5,269.173,-693.329,0,0
239085.825,265.399,-688.148,0,0
239346.15,262.736,-682.737,0,0
239606.475,261.422,-677.67,0,0
239866.8,260.992,-673.371,0,0
240127.125,261.195,-670.052,0,0
240387.45,261.366,-667.872,0,0
240647.775,261.126,-666.581,0,0
240908.1,260.136,-665.761,0,0
241168.425,258.63,-664.866,0,0
241428.75,256.71,-663.902,0,0
241689.075,254.57,-662.79,0,0
241949.4,252.241,-661.673,0,0
242209.725,249.312,-660.515,0,0
242470.05,245.886,-658.646,0,0
242730.375,242.541,-655.822,0,0
242990.7,239.826,-652.445,0,0
243251.025,237.653,-648.982,0,0
243511.35,235.703,-645.583,0,0
243771.675,233.831,-641.916,0,0
244032.0,232.383,-637.857,0,0
244292.325,231.673,-633.511,0,0
244552.65,231.786,-629.373,0,0
244812.975,232.678,-625.827,0,0
245073.3,233.767,-623.249,0,0
245333.625,234.558,-621.266,0,0
245593.95,234.996,-619.464,0,0
245854.275,235.333,-617.849,0,0
246114.6,235.455,-616.443,0,0
246374.925,235.27,-615.032,0,0
246635.25,234.957,-613.514,0,0
246895.575,234.478,-611.961,0,0
247155.9,233.862,-610.21,0,0
247416.225,233.273,-608.29,0,0
247676.55,232.781,-606.129,0,0
247936.875,232.475,-603.855,0,0
248197.2,232.28,-601.608,0,0
248457.525,232.244,-599.248,0,0
248717.85,232.325,-596.892,0,0
248978.175,232.546,-594.491,0,0
249238.5,232.988,-592.124,0,0
249498.825,233.515,-589.812,0,0
249759.15,234.114,-587.5,0,0
250019.475,234.894,-585.097,0,0
250279.8,235.912,-582.722,0,0
250540,237.23,-580.358,0,0
250800,238.692,-578.141,0,0
251061,240.426,-576.116,0,0
251321,242.282,-574.32,0,0
251581,244.211,-572.676,0,0
251842,246.24,-571.058,0,0
252102,248.605,-569.541,0,0
252362,251.29,-568.254,0,0
252623,254.181,-567.425,0,0
252883,257.314,-567.036,0,0
253143,260.494,-567.212,0,0
253404,263.53,-568.004,0,0
253664,266.272,-569.304,0,0
253924,268.602,-570.973,0,0
254185,270.513,-572.917,0,0
254445,272.009,-574.971,0,0
254705,273.202,-577.039,0,0
254966,274.098,-579.278,0,0
255226,274.637,-581.686,0,0
255486,274.75,-583.986,0,0
255747,274.428,-586.198,0,0
256007,273.785,-588.216,0,0
256267,272.909,-589.969,0,0
256528,271.938,-591.496,0,0
256788,270.855,-592.916,0,0
257048,269.52,-594.208,0,0
257309,268.024,-595.181,0,0
257569,266.472,-595.827,0,0
257829,264.986,-596.227,0,0
258090,263.545,-596.387,0,0
258350,262.229,-596.309,0,0
258610,261.197,-596.023,0,0
258871,260.421,-595.827,0,0
259131,259.837,-595.812,0,0
259391,259.102,-596.006,0,0
259651,258.227,-596.327,0,0
259912,256.998,-596.497,0,0
260172,255.612,-596.45,0,0
260432,254.232,-596.084,0,0
260693,252.957,-595.453,0,0
260953,251.848,-594.582,0,0
261213,250.892,-593.565,0,0
261474,250.113,-592.438,0,0
261734,249.505,-591.179,0,0
261994,249.127,-589.779,0,0
262255,249.118,-588.203,0,0
262515,249.564,-586.679,0,0
262775,250.444,-585.31,0,0
263036,251.686,-584.233,0,0
263296,253.188,-583.695,0,0
263556,254.788,-583.613,0,0
263817,256.262,-583.987,0,0
264077,257.596,-584.728,0,0
264337,258.673,-585.791,0,0
264598,259.471,-587.097,0,0
264858,259.873,-588.623,0,0
265118,259.884,-590.117,0,0
265379,259.474,-591.457,0,0
265639,258.857,-592.439,0,0
265899,258.233,-593.21,0,0
266160,257.681,-593.765,0,0
266420,257.284,-594.178,0,0
266680.25,257.084,-594.596,0,0
266940.575,257.055,-595.179,0,0
267200.9,256.95,-596.011,0,0
267461.225,256.689,-596.961,0,0
267721.55,256.251,-597.964,0,0
267981.875,255.563,-598.958,0,0
268242.2,254.741,-599.796,0,0
268502.525,253.745,-600.433,0,0
268762.85,252.763,-600.839,0,0
269023.175,251.798,-600.975,0,0
269283.5,251.035,-600.903,0,0
269543.825,250.498,-600.606,0,0
269804.15,250.194,-600.325,0,0
270064.475,250.224,-599.979,0,0
270324.8,250.571,-599.611,0,0
270585.125,251.305,-599.363,0,0
270845.45,252.39,-599.394,0,0
271105.775,253.821,-599.693,0,0
271366.1,255.646,-600.43,0,0
271626.425,257.779,-601.752,0,0
271886.75,260.076,-603.858,0,0
272147.075,262.421,-606.87,0,0
272407.4,264.417,-610.937,0,0
272667.725,265.716,-616.003,0,0
272928.05,265.947,-621.697,0,0
273188.375,265.032,-627.727,0,0
273448.7,263.044,-633.79,0,0
273709.025,260.02,-639.687,0,0
273969.35,256.059,-645.205,0,0
274229.675,251.232,-650.24,0,0
274490.0,245.863,-654.629,0,0
274750.325,239.93,-658.523,0,0
275010.65,233.511,-661.978,0,0
275270.975,226.401,-664.734,0,0
275531.3,218.719,-666.497,0,0
275791.625,210.891,-667.162,0,0
276051.95,203.192,-666.828,0,0
276312.275,195.793,-665.681,0,0
276572.6,188.655,-663.904,0,0
276832.925,181.761,-661.503,0,0
277093.25,175.103,-658.37,0,0
277353.575,169.003,-654.559,0,0
277613.9,163.544,-650.16,0,0
277874.225,158.844,-645.452,0,0
278134.55,154.811,-640.636,0,0
278394.875,151.401,-635.732,0,0
278655.2,148.542,-630.846,0,0
278915.525,146.19,-626.11,0,0
279175.85,144.219,-621.536,0,0
279436.175,142.464,-617.113,0,0
279696.5,141.047,-612.696,0,0
279956.825,139.968,-608.378,0,0
280217.15,139.202,-604.174,0,0
280477.475,138.834,-600.13,0,0
280737.8,138.783,-596.462,0,0
280998.125,138.939,-593.213,0,0
281258.45,139.05,-590.391,0,0
281518.775,138.984,-587.871,0,0
281779.1,138.722,-585.442,0,0
282039.425,138.321,-583.073,0,0
282299.75,137.77,-580.751,0,0
282560,137.025,-578.311,0,0
282820,136.195,-575.658,0,0
283081,135.414,-572.756,0,0
283341,134.814,-569.611,0,0
283601,134.477,-566.34,0,0
283862,134.388,-563.002,0,0
284122,134.602,-559.683,0,0
284382,135.062,-556.453,0,0
284643,135.761,-553.357,0,0
284903,136.65,-550.377,0,0
285163,137.663,-547.531,0,0
285424,138.925,-544.883,0,0
285684,140.327,-542.496,0,0
285944,141.758,-540.381,0,0
286205,143.195,-538.496,0,0
286465,144.584,-536.818,0,0
286725,145.928,-535.338,0,0
286986,147.153,-534.048,0,0
287246,148.248,-532.886,0,0
287506,149.146,-531.891,0,0
287767,149.819,-530.887,0,0
288027,150.259,-529.801,0,0
288287,150.618,-528.506,0,0
288548,150.961,-527.07,0,0
288808,151.373,-525.537,0,0
289068,151.851,-523.906,0,0
289329,152.401,-522.234,0,0
289589,153.036,-520.515,0,0
289849,153.743,-518.803,0,0
290109,154.44,-516.994,0,0
290370,155.327,-515.116,0,0
290630,156.396,-513.197,0,0
290890,157.672,-511.367,0,0
291151,159.093,-509.698,0,0
291411,160.586,-508.181,0,0
291671,162.089,-506.819,0,0
291932,163.548,-505.551,0,0
292192,164.965,-504.324,0,0
292452,166.395,-503.06,0,0
292713,167.886,-501.826,0,0
292973,169.465,-500.641,0,0
293233,171.094,-499.515,0,0
293494,172.752,-498.472,0,0
293754,174.429,-497.504,0,0
294014,176.1,-496.573,0,0
294275,177.798,-495.694,0,0
294535,179.477,-494.828,0,0
294795,181.219,-493.907,0,0
295056,183.08,-492.985,0,0
295316,185.073,-492.14,0,0
295576,187.126,-491.411,0,0
295837,189.23,-490.765,0,0
296097,191.4,-490.153,0,0
296357,193.663,-489.608,0,0
296618,196.04,-489.161,0,0
296878,198.523,-488.837,0,0
297138,201.069,-488.654,0,0
297399,203.701,-488.616,0,0
297659,206.405,-488.748,0,0
297919,209.16,-489.085,0,0
298180,211.884,-489.642,0,0
298440,214.547,-490.345,0,0
298700.2,217.207,-491.186,0,0
298960.525,219.849,-492.095,0,0
299220.85,222.431,-493.105,0,0
299481.175,225.027,-494.194,0,0
299741.5,227.818,-495.399,0,0
300001.825,230.627,-496.82,0,0
300262.15,233.497,-498.497,0,0
300522.475,236.371,-500.362,0,0
300782.8,239.214,-502.374,0,0
301043.125,242.22,-504.627,0,0
301303.45,245.277,-507.253,0,0
301563.775,248.354,-510.239,0,0
301824.1,251.365,-513.744,0,0
302084.425,254.36,-517.769,0,0
302344.75,257.061,-522.445,0,0
302605.075,259.29,-527.675,0,0
302865.4,260.896,-533.467,0,0
303125.725,261.672,-539.596,0,0
303386.05,261.597,-545.837,0,0
303646.375,260.647,-551.929,0,0
303906.7,259.011,-557.729,0,0
304167.025,256.809,-563.118,0,0
304427.35,254.214,-568.091,0,0
304687.675,251.286,-572.643,0,0
304948.0,248.17,-576.818,0,0
305208.325,244.918,-580.677,0,0
305468.65,241.495,-584.304,0,0
305728.975,237.884,-587.71,0,0
305989.3,234.014,-590.86,0,0
306249.625,229.941,-593.67,0,0
306509.95,225.724,-596.039,0,0
306770.275,221.443,-598.066,0,0
307030.6,217.229,-599.73,0,0
307290.925,213.012,-601.128,0,0
307551.25,208.828,-602.256,0,0
307811.575,204.662,-603.146,0,0
308071.9,200.522,-603.824,0,0
308332.225,196.366,-604.253,0,0
308592.55,192.261,-604.389,0,0
308852.875,188.188,-604.277,0,0
309113.2,184.232,-603.844,0,0
309373.525,180.406,-603.132,0,0
309633.85,176.798,-602.185,0,0
309894.175,173.458,-601.025,0,0
310154.5,170.41,-599.778,0,0
310414.825,167.586,-598.486,0,0
310675.15,164.942,-597.205,0,0
310935.475,162.435,-595.957,0,0
311195.8,160.075,-594.744,0,0
311456.125,157.76,-593.513,0,0
311716.45,155.555,-592.3,0,0
311976.775,153.419,-591.067,0,0
312237.1,151.346,-589.854,0,0
312497.425,149.286,-588.67,0,0
312757.75,147.284,-587.441,0,0
313018.075,145.292,-586.227,0,0
313278.4,143.309,-584.954,0,0
313538.725,141.329,-583.624,0,0
313799.05,139.353,-582.218,0,0
314059.375,137.46,-580.652,0,0
314319.7,135.628,-579.011,0,0
314580,133.957,-577.249,0,0
314840,132.439,-575.431,0,0
315101,131.069,-573.6,0,0
315361,129.876,-571.758,0,0
315621,128.831,-569.952,0,0
315882,127.934,-568.204,0,0
316142,127.147,-566.549,0,0
316402,126.443,-564.966,0,0
316663,125.812,-563.487,0,0
316923,125.218,-562.092,0,0
317183,124.607,-560.778,0,0
317444,124.03,-559.5,0,0
317704,123.481,-558.232,0,0
317964,122.936,-557.026,0,0
318225,122.429,-555.871,0,0
318485,121.91,-554.774,0,0
318745,121.394,-553.656,0,0
319006,120.931,-552.562,0,0
319266,120.497,-551.477,0,0
319526,120.105,-550.465,0,0
319787,119.724,-549.52,0,0
320047,119.376,-548.629,0,0
320307,118.977,-547.789,0,0
320567,118.575,-547.005,0,0
320828,118.118,-546.227,0,0
321088,117.676,-545.458,0,0
321348,117.192,-544.716,0,0
321609,116.708,-543.964,0,0
321869,116.215,-543.22,0,0
322129,115.721,-542.476,0,0
322390,115.238,-541.751,0,0
322650,114.772,-541.024,0,0
322910,114.285,-540.346,0,0
323171,113.802,-539.685,0,0
323431,113.28,-539.034,0,0
323691,112.729,-538.373,0,0
323952,112.132,-537.7,0,0
324212,111.564,-537.031,0,0
324472,110.966,-536.3,0,0
324733,110.372,-535.527,0,0
324993,109.854,-534.725,0,0
325253,109.376,-533.912,0,0
325514,108.988,-533.116,0,0
325774,108.635,-532.395,0,0
326034,108.297,-531.736,0,0
326295,107.966,-531.116,0,0
326555,107.614,-530.576,0,0
326815,107.232,-530.073,0,0
327076,106.819,-529.633,0,0
327336,106.363,-529.212,0,0
327596,105.833,-528.792,0,0
327857,105.264,-528.361,0,0
328117,104.669,-527.919,0,0
328377,104.038,-527.463,0,0
328638,103.395,-526.982,0,0
328898,102.737,-526.503,0,0
329158,102.065,-526.003,0,0
329419,101.388,-525.479,0,0
329679,100.722,-524.942,0,0
329939,100.038,-524.427,0,0
330200,99.3671,-523.899,0,0
330460,98.6655,-523.342,0,0
330720.15,97.993,-522.781,0,0
330980.475,97.3002,-522.246,0,0
331240.8,96.5662,-521.831,0,0
331501.125,95.7541,-521.374,0,0
331761.45,94.9902,-520.813,0,0
332021.775,94.164,-520.342,0,0
332282.1,93.2913,-519.794,0,0
332542.425,92.3874,-519.215,0,0
332802.75,91.4104,-518.705,0,0
333063.075,90.4286,-518.061,0,0
333323.4,89.4645,-517.416,0,0
333583.725,88.4077,-516.692,0,0
333844.05,87.3659,-515.912,0,0
334104.375,86.3051,-515.093,0,0
334364.7,85.296,-514.166,0,0
334625.025,84.3187,-513.176,0,0
334885.35,83.3783,-512.203,0,0
335145.675,82.4705,-511.32,0,0
335406.0,81.5317,-510.305,0,0
335666.325,80.5655,-509.246,0,0
335926.65,79.6917,-508.194,0,0
336186.975,78.7706,-507.087,0,0
336447.3,77.9059,-505.997,0,0
336707.625,77.0071,-504.795,0,0
336967.95,76.1636,-503.572,0,0
337228.275,75.385,-502.266,0,0
337488.6,74.6326,-500.988,0,0
337748.925,73.9259,-499.678,0,0
338009.25,73.206,-498.4,0,0
338269.575,72.6399,-497.083,0,0
338529.9,72.0593,-495.742,0,0
338790.225,71.4648,-494.473,0,0
339050.55,70.9374,-493.131,0,0
339310.875,70.3808,-491.814,0,0
339571.2,69.8446,-490.494,0,0
339831.525,69.3944,-489.161,0,0
340091.85,68.9242,-487.779,0,0
340352.175,68.434,-486.487,0,0
340612.5,68.0774,-484.992,0,0
340872.825,67.6687,-483.643,0,0
341133.15,67.3236,-482.197,0,0
341393.475,67.0487,-480.817,0,0
341653.8,66.7617,-479.44,0,0
341914.125,66.5837,-477.951,0,0
342174.45,66.42,-476.578,0,0
342434.775,66.3089,-475.179,0,0
342695.1,66.2433,-473.812,0,0
342955.425,66.1959,-472.419,0,0
343215.75,66.1997,-471.085,0,0
343476.075,66.2199,-469.754,0,0
343736.4,66.3097,-468.477,0,0
343996.725,66.4437,-467.158,0,0
344257.05,66.5895,-466.006,0,0
344517.375,66.772,-464.829,0,0
344777.7,66.9418,-463.705,0,0
345038.025,67.1698,-462.671,0,0
345298.35,67.3703,-461.638,0,0
345558.675,67.6014,-460.69,0,0
345819.0,67.7916,-459.764,0,0
346079.325,67.9542,-458.894,0,0
346339.65,68.0556,-458.048,0,0
346599.975,68.1982,-457.218,0,0
346860,68.2453,-456.481,0,0
347121,68.2828,-455.669,0,0
347381,68.2603,-454.887,0,0
347641,68.2205,-454.175,0,0
347902,68.0741,-453.419,0,0
348162,67.9163,-452.604,0,0
348422,67.7009,-451.793,0,0
348683,67.4763,-450.898,0,0
348943,67.2533,-449.942,0,0
349203,67.0402,-448.926,0,0
349464,66.88,-447.891,0,0
349724,66.7082,-446.861,0,0
349984,66.5573,-445.765,0,0
350245,66.4416,-444.72,0,0
350505,66.3098,-443.548,0,0
350765,66.2531,-442.389,0,0
351025,66.1514,-441.176,0,0
351286,66.0688,-439.955,0,0
351546,66.1893,-438.676,0,0
351806,66.3019,-437.365,0,0
352067,66.5359,-436.126,0,0
352327,66.7726,-434.876,0,0
352587,67.0769,-433.626,0,0
352848,67.4584,-432.435,0,0
353108,67.8801,-431.319,0,0
353368,68.3628,-430.24,0,0
353629,68.8456,-429.198,0,0
353889,69.3399,-428.265,0,0
354149,69.8714,-427.36,0,0
354410,70.362,-426.443,0,0
354670,70.8467,-425.673,0,0
354930,71.4091,-424.882,0,0
355191,71.9316,-424.148,0,0
355451,72.4521,-423.54,0,0
355711,73.0075,-422.952,0,0
355972,73.5267,-422.497,0,0
356232,73.8919,-422.115,0,0
356492,74.1523,-421.739,0,0
356753,74.353,-421.367,0,0
357013,74.4729,-421.034,0,0
357273,74.4997,-420.628,0,0
357534,74.4613,-420.182,0,0
357794,74.3123,-419.696,0,0
358054,74.162,-419.151,0,0
358315,73.971,-418.442,0,0
358575,73.7893,-417.78,0,0
358835,73.6127,-416.925,0,0
359096,73.4062,-416.025,0,0
359356,73.3254,-415.078,0,0
359616,73.1976,-414.02,0,0
359877,73.247,-413.016,0,0
360137,73.2985,-411.878,0,0
360397,73.3885,-410.793,0,0
360658,73.5649,-409.696,0,0
360918,73.7981,-408.548,0,0
361178,74.066,-407.461,0,0
361438,74.4427,-406.42,0,0
361699,74.8761,-405.292,0,0
361959,75.2875,-404.281,0,0
362219,75.7373,-403.308,0,0
362480,76.2677,-402.318,0,0
362740.1,76.7856,-401.397,0,0
363000.425,77.3067,-400.518,0,0
363260.75,77.8474,-399.638,0,0
363521.075,78.3728,-398.782,0,0
363781.4,78.9906,-397.916,0,0
364041.725,79.5554,-397.093,0,0
364302.05,80.227,-396.256,0,0
364562.375,80.9027,-395.473,0,0
364822.7,81.6251,-394.72,0,0
365083.025,82.3361,-394.019,0,0
365343.35,83.1901,-393.414,0,0
365603.675,83.9588,-392.871,0,0
365864.0,84.7149,-392.392,0,0
366124.325,85.4562,-392.022,0,0
366384.65,86.0922,-391.688,0,0
366644.975,86.7045,-391.303,0,0
366905.3,87.2702,-390.988,0,0
367165.625,87.8113,-390.635,0,0
367425.95,88.3782,-390.307,0,0
367686.275,88.9514,-389.948,0,0
367946.6,89.4656,-389.691,0,0
368206.925,90.0299,-389.416,0,0
368467.25,90.5095,-389.108,0,0
368727.575,91.0098,-388.87,0,0
368987.9,91.5445,-388.708,0,0
369248.225,92.0588,-388.511,0,0
369508.55,92.5194,-388.388,0,0
369768.875,92.9883,-388.327,0,0
370029.2,93.3689,-388.331,0,0
370289.525,93.6839,-388.359,0,0
370549.85,93.876,-388.449,0,0
370810.175,93.9596,-388.483,0,0
371070.5,93.9332,-388.475,0,0
371330.825,93.7586,-388.464,0,0
371591.15,93.5928,-388.294,0,0
371851.475,93.3837,-388.052,0,0
372111.8,93.1471,-387.611,0,0
372372.125,92.922,-387.143,0,0
372632.45,92.777,-386.566,0,0
372892.775,92.6571,-385.957,0,0
373153.1,92.6082,-385.293,0,0
373413.425,92.6284,-384.602,0,0
373673.75,92.6973,-383.839,0,0
373934.075,92.856,-383.118,0,0
374194.4,93.0856,-382.356,0,0
374454.725,93.3313,-381.742,0,0
374715.05,93.6148,-381.068,0,0
374975.375,93.9099,-380.435,0,0
375235.7,94.1478,-379.815,0,0
375496.025,94.5173,-379.236,0,0
375756.35,94.8608,-378.714,0,0
376016.675,95.2167,-378.2,0,0
376277.0,95.4764,-377.741,0,0
376537.325,95.7283,-377.308,0,0
376797.65,95.9023,-376.795,0,0
377057.975,96.0679,-376.315,0,0
377318.3,96.2221,-375.768,0,0
377578.625,96.3781,-375.151,0,0
377838.95,96.5779,-374.505,0,0
378099.275,96.768,-373.8,0,0
378359.6,96.9943,-373.068,0,0
378619.925,97.3062,-372.337,0,0
378880,97.6874,-371.619,0,0
379141,98.0899,-370.907,0,0
379401,98.5072,-370.202,0,0
379661,99.0338,-369.536,0,0
379922,99.5266,-368.917,0,0
380182,100.016,-368.335,0,0
380442,100.523,-367.743,0,0
380703,101.003,-367.223,0,0
380963,101.491,-366.691,0,0
381223,101.959,-366.167,0,0
381483,102.417,-365.63,0,0
381744,102.886,-365.075,0,0
382004,103.343,-364.493,0,0
382264,103.891,-363.958,0,0
382525,104.394,-363.344,0,0
382785,104.952,-362.789,0,0
383045,105.549,-362.251,0,0
383306,106.138,-361.794,0,0
383566,106.717,-361.289,0,0
383826,107.338,-360.822,0,0
384087,107.932,-360.298,0,0
384347,108.589,-359.848,0,0
384607,109.217,-359.41,0,0
384868,109.88,-359.013,0,0
385128,110.475,-358.734,0,0
385388,111.053,-358.388,0,0
385649,111.589,-358.069,0,0
385909,112.109,-357.729,0,0
386169,112.648,-357.291,0,0
386430,113.197,-356.886,0,0
386690,113.723,-356.483,0,0
386950,114.286,-356.088,0,0
387211,114.846,-355.672,0,0
387471,115.351,-355.269,0,0
387731,115.938,-354.834,0,0
387992,116.436,-354.357,0,0
388252,116.995,-353.822,0,0
388512,117.606,-353.235,0,0
388773,118.273,-352.61,0,0
389033,119.08,-351.962,0,0
389293,119.98,-351.378,0,0
389554,120.938,-350.819,0,0
389814,121.972,-350.375,0,0
390074,123.016,-350.004,0,0
390335,124.086,-349.743,0,0
390595,125.132,-349.535,0,0
390855,126.136,-349.398,0,0
391116,127.187,-349.313,0,0
391376,128.085,-349.252,0,0
391636,128.989,-349.167,0,0
391896,129.927,-349.1,0,0
392157,130.809,-349.09,0,0
392417,131.677,-349.01,0,0
392677,132.583,-348.976,0,0
392938,133.441,-348.981,0,0
393198,134.307,-348.977,0,0
393458,135.107,-348.964,0,0
393719,135.864,-348.967,0,0
393979,136.655,-348.89,0,0
394239,137.473,-348.771,0,0
394500,138.284,-348.61,0,0
394760.05,139.211,-348.418,0,0
395020.375,140.134,-348.186,0,0
395280.7,141.232,-347.971,0,0
395541.025,142.36,-347.785,0,0
395801.35,143.607,-347.592,0,0
396061.675,144.887,-347.451,0,0
396322.0,146.298,-347.367,0,0
396582.325,147.807,-347.381,0,0
396842.65,149.379,-347.452,0,0
397102.975,151.078,-347.648,0,0
397363.3,152.809,-347.994,0,0
397623.625,154.582,-348.491,0,0
397883.95,156.365,-349.114,0,0
398144.275,158.185,-349.859,0,0
398404.6,160.024,-350.804,0,0
398664.925,161.882,-351.969,0,0
398925.25,163.686,-353.292,0,0
399185.575,165.428,-354.836,0,0
399445.9,167.12,-356.58,0,0
399706.225,168.583,-358.579,0,0
399966.55,169.936,-360.758,0,0
400006.6,170.071,-361.116,0,0