File: Accelerated corrosion test data/2025-10-17_06-53-44/sample_4.csv
Frequency (Hz),Impedance (ohms),Phase (Radians),Temperature (C),Humidity (%)
10000.0,261.552,-11926.8,0,0
10260.325,258.677,-11627.3,0,0
10520.65,248.627,-11342,0,0
10780.975,243.179,-11069.7,0,0
11041.3,238.034,-10809.8,0,0
11301.625,232.491,-10565.9,0,0
11561.95,227.1,-10328.9,0,0
11822.275,222.785,-10102.9,0,0
12082.6,217.796,-9886.6,0,0
12342.925,213.549,-9679.11,0,0
12603.25,212.004,-9478.68,0,0
12863.575,207,-9291.22,0,0
13123.9,206.274,-9112.29,0,0
13384.225,197.988,-8932.13,0,0
13644.55,194.87,-8760.65,0,0
13904.875,192.238,-8594.68,0,0
14165.2,193.019,-8430.37,0,0
14425.525,198.355,-8284.74,0,0
14685.8,199.35,-8167.76,0,0
14946.175,180.992,-8011.1,0,0
15206.5,179.574,-7865.75,0,0
15466.825,188.162,-7720.19,0,0
15727.15,185.733,-7622.9,0,0
15987.5,184.569,-7505.45,0,0
16247.8,169.556,-7375.92,0,0
16508.125,190.893,-7248.9,0,0
16768.45,177.396,-7146.52,0,0
17028.775,169.873,-7059.08,0,0
17289.1,159.371,-6944.88,0,0
17549.425,157.834,-6840.17,0,0
17809.75,154.986,-6738.85,0,0
18070.075,151.575,-6639.41,0,0
18330.4,153.16,-6543.3,0,0
18590.725,152.19,-6454.74,0,0
18851.05,149.018,-6369.2,0,0
19111.375,144.517,-6280.41,0,0
19371.7,141.909,-6194.57,0,0
19632.025,140.672,-6110.17,0,0
19892.35,143.01,-6029.02,0,0
20152.675,142.675,-5952.11,0,0
20413.0,139.724,-5877.92,0,0
20673.3,139.946,-5803.05,0,0
20933.65,136.25,-5728.86,0,0
21193.975,139.85,-5654.22,0,0
21454.3,150.592,-5587.39,0,0
21714.625,145.704,-5531.5,0,0
21974.9,148.462,-5459.76,0,0
22235.275,148.302,-5414.96,0,0
22495.6,134.919,-5357.5,0,0
22755.925,127.862,-5292.77,0,0
23016.25,124.352,-5230.18,0,0
23276.6,121.654,-5169.55,0,0
23536.9,120.267,-5111.86,0,0
23797.225,118.008,-5054.87,0,0
24057.55,116.493,-4999.12,0,0
24317.875,115.339,-4944.5,0,0
24578.2,114.201,-4890.68,0,0
24838.525,113.02,-4837.96,0,0
25098.85,113.706,-4786.52,0,0
25359.175,112.56,-4739.17,0,0
25619.5,111.183,-4690.03,0,0
25879.8,110.298,-4644.92,0,0
26140.1,107.446,-4596.87,0,0
26400.5,106.302,-4550.31,0,0
26660.8,105.461,-4503.57,0,0
26921.1,105.46,-4459.5,0,0
27181.4,104.662,-4413.98,0,0
27441.8,105.054,-4369.54,0,0
27702.1,109.038,-4324.75,0,0
27962.4,115.04,-4284.53,0,0
28222.7,119.654,-4255.62,0,0
28483.1,112.545,-4220.8,0,0
28743.4,110.065,-4179.22,0,0
29003.7,111.633,-4138.89,0,0
29264,116.886,-4106.34,0,0
29524.4,112.505,-4075.99,0,0
29784.7,108.913,-4042.77,0,0
30045,106.722,-4008.19,0,0
30305.3,101.185,-3973.36,0,0
30565.7,99.2185,-3937.16,0,0
30826,98.0826,-3902.83,0,0
31086.3,97.2658,-3868.45,0,0
31346.6,98.4308,-3834.99,0,0
31607,97.0112,-3804.48,0,0
31867.3,96.6384,-3772.04,0,0
32127.6,99.2345,-3741.04,0,0
32387.9,97.7523,-3715.25,0,0
32648.3,96.2777,-3685.76,0,0
32908.6,94.2398,-3658.32,0,0
33168.9,91.9051,-3628.99,0,0
33429.2,89.4429,-3600.01,0,0
33689.6,88.0183,-3571.21,0,0
33949.9,86.8575,-3542.43,0,0
34210.2,86.861,-3514.73,0,0
34470.5,85.8408,-3488.74,0,0
34730.9,84.1989,-3461.31,0,0
34991.2,83.9192,-3434.36,0,0
35251.5,83.6822,-3408.58,0,0
35511.8,82.8077,-3383.19,0,0
35772.2,82.3231,-3357.89,0,0
36032.5,81.2901,-3333.27,0,0
36292.8,80.3467,-3308.02,0,0
36553.1,79.9599,-3283.59,0,0
36813.5,80.2249,-3259.53,0,0
37073.8,80.4577,-3236.43,0,0
37334.1,79.1001,-3213.79,0,0
37594.4,78.5164,-3190.31,0,0
37854.8,78.3007,-3168,0,0
38115.1,77.7309,-3146.18,0,0
38375.4,76.7437,-3123.61,0,0
38635.7,76.5564,-3101.42,0,0
38896.1,77.1411,-3079.71,0,0
39156.4,76.4186,-3058.93,0,0
39416.7,75.958,-3037.82,0,0
39677,76.0244,-3016.14,0,0
39937.4,76.4994,-2995.04,0,0
40197.7,78.2162,-2974.64,0,0
40458,79.7924,-2956.03,0,0
40718.3,79.0833,-2938.56,0,0
40978.7,78.4176,-2918.64,0,0
41239,80.183,-2900.13,0,0
41499.3,81.8737,-2883.78,0,0
41759.6,78.1286,-2867.68,0,0
42020,77.0571,-2848.96,0,0
42280.275,75.8372,-2829.43,0,0
42540.6,78.131,-2811.47,0,0
42800.925,77.7873,-2797.42,0,0
43061.25,74.8928,-2779.39,0,0
43321.575,75.1852,-2762.07,0,0
43581.9,74.1134,-2745.66,0,0
43842.225,73.2462,-2728.22,0,0
44102.55,73.4356,-2712.19,0,0
44362.875,71.8864,-2695.25,0,0
44623.2,71.9642,-2678.34,0,0
44883.525,71.8425,-2662.76,0,0
45143.85,71.0269,-2646.88,0,0
45404.175,70.326,-2630.38,0,0
45664.5,70.8462,-2613.61,0,0
45924.825,72.3043,-2599.38,0,0
46185.15,70.9608,-2585.55,0,0
46445.475,69.9198,-2568.95,0,0
46705.8,71.0943,-2554.24,0,0
46966.125,71.1152,-2540.13,0,0
47226.45,71.3398,-2525.59,0,0
47486.775,71.222,-2512.74,0,0
47747.1,69.7571,-2499.28,0,0
48007.425,69.028,-2484.92,0,0
48267.75,67.8827,-2471.49,0,0
48528.075,67.3687,-2457.26,0,0
48788.4,66.7466,-2443.48,0,0
49048.725,65.6577,-2429.6,0,0
49309.05,65.8487,-2415.39,0,0
49569.375,65.2449,-2402.68,0,0
49829.7,64.4716,-2388.64,0,0
50090.025,64.3898,-2375.37,0,0
50350.35,64.1364,-2361.98,0,0
50610.675,63.8025,-2348.93,0,0
50871.0,63.7369,-2335.8,0,0
51131.325,63.6133,-2322.86,0,0
51391.65,63.5112,-2309.85,0,0
51651.975,63.5247,-2297.05,0,0
51912.3,63.3608,-2284.5,0,0
52172.625,63.7135,-2271.57,0,0
52432.95,63.9056,-2259.61,0,0
52693.275,64.0584,-2246.46,0,0
52953.6,65.06,-2233.9,0,0
53213.925,65.9488,-2221.95,0,0
53474.25,67.2189,-2209.84,0,0
53734.575,68.7068,-2198.12,0,0
53994.9,71.0376,-2186.71,0,0
54255.225,73.5371,-2177.03,0,0
54515.55,75.4328,-2168.66,0,0
54775.875,75.4976,-2160.93,0,0
55036.2,74.0189,-2152.35,0,0
55296.525,73.3986,-2142.74,0,0
55556.85,71.745,-2134.06,0,0
55817.175,69.6401,-2123.63,0,0
56077.5,68.1024,-2112.94,0,0
56337.825,66.8656,-2102.29,0,0
56598.15,65.7022,-2090.92,0,0
56858.475,65.3874,-2079.67,0,0
57118.8,65.687,-2068.71,0,0
57379.125,65.9275,-2058.2,0,0
57639.45,65.9401,-2047.99,0,0
57899.775,66.0294,-2037.61,0,0
58160.1,66.2981,-2027.08,0,0
58420.4,67.4616,-2016.62,0,0
58680.7,68.0569,-2008.32,0,0
58941.1,67.3015,-1997.78,0,0
59201.4,68.3287,-1987.03,0,0
59461.7,70.1889,-1976.7,0,0
59722,72.577,-1967.74,0,0
59982.4,75.272,-1959.74,0,0
60242.7,76.3843,-1953.04,0,0
60503,76.8891,-1945.2,0,0
60763.3,79.4723,-1937.56,0,0
61023.7,80.4361,-1934.07,0,0
61284,78.2992,-1929.2,0,0
61544.3,74.5301,-1923.35,0,0
61804.6,71.0328,-1913.66,0,0
62065,69.8489,-1904.61,0,0
62325.3,68.7067,-1896.72,0,0
62585.6,65.7882,-1888.04,0,0
62845.9,64.8323,-1877.6,0,0
63106.3,64.3938,-1868.75,0,0
63366.6,63.899,-1859.38,0,0
63626.9,64.1043,-1850.09,0,0
63887.2,64.2523,-1842.33,0,0
64147.6,63.048,-1833.37,0,0
64407.9,63.5189,-1824.1,0,0
64668.2,64.1678,-1815.62,0,0
64928.5,64.6081,-1807.65,0,0
65188.9,64.8188,-1799.71,0,0
65449.2,64.9497,-1791.69,0,0
65709.5,64.992,-1783.3,0,0
65969.8,66.3216,-1774.89,0,0
66230.2,67.0595,-1767.75,0,0
66490.5,67.6929,-1760.36,0,0
66750.8,68.204,-1753.17,0,0
67011.1,68.8665,-1745.63,0,0
67271.5,70.0216,-1738.54,0,0
67531.8,71.1387,-1732.02,0,0
67792.1,72.0638,-1725.72,0,0
68052.4,72.9493,-1719.98,0,0
68312.8,73.4323,-1714.28,0,0
68573.1,73.746,-1709.28,0,0
68833.4,73.2299,-1704.69,0,0
69093.7,71.4775,-1699.63,0,0
69354.1,69.3607,-1693.95,0,0
69614.4,67.2544,-1686.8,0,0
69874.7,66.2628,-1679.55,0,0
70135,65.3366,-1672.67,0,0
70395.4,63.8967,-1665.41,0,0
70655.7,63.7006,-1657.25,0,0
70916,64.8804,-1650.62,0,0
71176.3,64.499,-1645.07,0,0
71436.7,64.0545,-1638.63,0,0
71697,63.7539,-1633.16,0,0
71957.3,62.1133,-1627.52,0,0
72217.6,60.3469,-1620.62,0,0
72478,59.0845,-1613.42,0,0
72738.3,58.2557,-1606.1,0,0
72998.6,57.5597,-1598.91,0,0
73258.9,56.9325,-1591.32,0,0
73519.3,57.2844,-1583.73,0,0
73779.6,57.5935,-1576.8,0,0
74039.9,58.11,-1570.15,0,0
74300.225,58.0495,-1563.74,0,0
74560.55,58.3107,-1556.87,0,0
74820.875,58.8743,-1550.22,0,0
75081.2,59.4958,-1543.88,0,0
75341.525,60.3926,-1537.84,0,0
75601.85,60.7638,-1532.16,0,0
75862.175,61.0192,-1526.28,0,0
76122.5,61.4657,-1520.25,0,0
76382.825,62.0619,-1514.77,0,0
76643.15,62.1341,-1509.28,0,0
76903.475,62.0474,-1503.46,0,0
77163.8,62.8477,-1496.96,0,0
77424.125,64.0155,-1491.78,0,0
77684.45,64.9249,-1486.86,0,0
77944.775,65.5595,-1482.54,0,0
78205.1,65.4405,-1478.24,0,0
78465.425,65.3143,-1473.69,0,0
78725.75,64.7256,-1469.3,0,0
78986.075,63.8296,-1464.54,0,0
79246.4,62.9563,-1459.36,0,0
79506.725,62.201,-1453.98,0,0
79767.05,61.608,-1448.5,0,0
80027.375,61.1923,-1443.05,0,0
80287.7,60.834,-1437.52,0,0
80548.025,60.6556,-1432.04,0,0
80808.35,60.5733,-1426.66,0,0
81068.675,60.5694,-1421.49,0,0
81329.0,60.4838,-1416.43,0,0
81589.325,60.3247,-1411.41,0,0
81849.65,60.0938,-1406.44,0,0
82109.975,59.8227,-1401.41,0,0
82370.3,59.557,-1396.39,0,0
82630.625,59.3383,-1391.33,0,0
82890.95,59.0938,-1386.38,0,0
83151.275,58.8296,-1381.47,0,0
83411.6,58.4952,-1376.41,0,0
83671.925,58.2106,-1371.46,0,0
83932.25,58.0041,-1366.4,0,0
84192.575,57.8649,-1361.46,0,0
84452.9,57.6324,-1356.54,0,0
84713.225,57.5031,-1351.57,0,0
84973.55,57.3039,-1346.69,0,0
85233.875,57.1366,-1341.84,0,0
85494.2,56.9971,-1337.1,0,0
85754.525,56.78,-1332.37,0,0
86014.85,56.4871,-1327.52,0,0
86275.175,56.3775,-1322.68,0,0
86535.5,56.3205,-1317.86,0,0
86795.825,56.219,-1313.32,0,0
87056.15,55.9897,-1308.77,0,0
87316.475,55.8324,-1304.12,0,0
87576.8,55.6198,-1299.56,0,0
87837.125,55.2766,-1295.06,0,0
88097.45,54.762,-1290.71,0,0
88357.775,54.1354,-1285.77,0,0
88618.1,53.8383,-1280.7,0,0
88878.425,53.7301,-1275.92,0,0
89138.75,53.4697,-1271.14,0,0
89399.075,53.4089,-1266.33,0,0
89659.4,53.3578,-1261.43,0,0
89919.725,53.4093,-1256.81,0,0
90180,53.403,-1252.23,0,0
90440.4,53.3535,-1247.55,0,0
90700.7,53.3203,-1242.97,0,0
90961,53.2267,-1238.41,0,0
91221.3,53.1117,-1233.72,0,0
91481.7,53.1069,-1229.07,0,0
91742,53.2962,-1224.36,0,0
92002.3,53.5313,-1219.79,0,0
92262.6,53.943,-1215.25,0,0
92523,54.277,-1210.99,0,0
92783.3,54.5677,-1206.84,0,0
93043.6,54.8218,-1202.73,0,0
93303.9,54.9307,-1198.84,0,0
93564.3,54.8846,-1194.88,0,0
93824.6,54.6802,-1190.93,0,0
94084.9,54.438,-1186.97,0,0
94345.2,54.0619,-1182.91,0,0
94605.6,53.506,-1178.65,0,0
94865.9,53.1162,-1174.07,0,0
95126.2,52.9958,-1169.55,0,0
95386.5,52.7913,-1165.05,0,0
95646.9,52.7918,-1160.52,0,0
95907.2,52.8834,-1155.99,0,0
96167.5,52.9552,-1151.59,0,0
96427.8,53.1498,-1147.19,0,0
96688.2,53.3668,-1142.84,0,0
96948.5,53.4651,-1138.57,0,0
97208.8,53.6214,-1134.2,0,0
97469.1,53.7808,-1129.95,0,0
97729.5,53.8996,-1125.61,0,0
97989.8,54.1601,-1121.24,0,0
98250.1,54.5297,-1116.85,0,0
98510.4,54.8524,-1112.63,0,0
98770.8,55.2509,-1108.32,0,0
99031.1,55.7204,-1104.01,0,0
99291.4,56.3465,-1099.8,0,0
99551.7,56.994,-1095.81,0,0
99812.1,57.3824,-1091.77,0,0
100072,57.883,-1087.55,0,0
100333,58.7445,-1083.38,0,0
100593,59.9668,-1079.54,0,0
100853,60.9868,-1076.27,0,0
101114,61.5243,-1073.08,0,0
101374,62.2074,-1069.84,0,0
101634,62.8486,-1067.01,0,0
101895,62.8071,-1064.53,0,0
102155,62.1024,-1061.82,0,0
102415,60.9564,-1058.44,0,0
102676,59.9157,-1054.55,0,0
102936,59.0504,-1050.21,0,0
103196,58.418,-1045.64,0,0
103457,58.0267,-1040.75,0,0
103717,58.0443,-1035.77,0,0
103977,58.4731,-1030.86,0,0
104238,58.9992,-1026.15,0,0
104498,59.6364,-1021.34,0,0
104758,60.581,-1016.66,0,0
105019,61.6812,-1012.11,0,0
105279,62.9025,-1007.73,0,0
105539,64.127,-1003.53,0,0
105800,65.4451,-999.393,0,0
106060,66.7746,-995.373,0,0
106320.175,68.211,-991.479,0,0
106580.5,69.6491,-987.652,0,0
106840.825,71.1432,-984.032,0,0
107101.15,72.4923,-980.483,0,0
107361.475,73.8045,-977.002,0,0
107621.8,75.0759,-973.408,0,0
107882.125,76.4984,-969.732,0,0
108142.45,78.1183,-966.193,0,0
108402.775,79.8707,-962.741,0,0
108663.1,81.7096,-959.607,0,0
108923.425,83.4651,-956.528,0,0
109183.75,85.404,-953.618,0,0
109444.075,87.2884,-950.992,0,0
109704.4,88.9415,-948.622,0,0
109964.725,90.4056,-946.253,0,0
110225.05,91.9243,-943.886,0,0
110485.375,93.3786,-941.62,0,0
110745.7,94.6579,-939.441,0,0
111006.025,95.9399,-937.27,0,0
111266.35,97.1078,-935.269,0,0
111526.675,98.0645,-933.03,0,0
111787.0,99.1613,-930.954,0,0
112047.325,100.275,-928.887,0,0
112307.65,101.353,-926.971,0,0
112567.975,102.289,-925.08,0,0
112828.3,103.173,-923.254,0,0
113088.625,104.026,-921.426,0,0
113348.95,104.803,-919.635,0,0
113609.275,105.436,-917.914,0,0
113869.6,106.084,-916.182,0,0
114129.925,106.51,-914.448,0,0
114390.25,107.011,-912.669,0,0
114650.575,107.496,-910.918,0,0
114910.9,107.963,-909.271,0,0
115171.225,108.279,-907.68,0,0
115431.55,108.541,-906.107,0,0
115691.875,108.52,-904.498,0,0
115952.2,108.549,-902.765,0,0
116212.525,108.605,-901.05,0,0
116472.85,108.47,-899.353,0,0
116733.175,108.273,-897.592,0,0
116993.5,107.951,-895.733,0,0
117253.825,107.547,-893.746,0,0
117514.15,107.093,-891.665,0,0
117774.475,106.649,-889.377,0,0
118034.8,106.275,-886.84,0,0
118295.125,106.213,-884.249,0,0
118555.45,106.173,-881.709,0,0
118815.775,106.135,-878.988,0,0
119076.1,106.373,-875.963,0,0
119336.425,107.34,-872.945,0,0
119596.75,109.027,-870.56,0,0
119857.075,110.515,-869.123,0,0
120117.4,111.89,-868.277,0,0
120377.725,112.588,-867.975,0,0
120638.05,112.635,-867.988,0,0
120898.375,111.672,-867.908,0,0
121158.7,110.138,-867.141,0,0
121419.025,108.537,-865.721,0,0
121679.35,107.025,-863.869,0,0
121939.675,105.597,-861.814,0,0
122200.0,104.343,-859.495,0,0
122460,103.236,-857.053,0,0
122721,102.292,-854.486,0,0
122981,101.561,-851.956,0,0
123241,100.796,-849.505,0,0
123502,100.056,-846.984,0,0
123762,99.3785,-844.387,0,0
124022,98.7792,-841.804,0,0
124283,98.2469,-839.257,0,0
124543,97.721,-836.714,0,0
124803,97.2492,-834.097,0,0
125064,96.9107,-831.52,0,0
125324,96.6686,-829.131,0,0
125584,96.341,-826.771,0,0
125845,96.0581,-824.505,0,0
126105,95.7023,-822.428,0,0
126365,95.1247,-820.404,0,0
126626,94.4042,-818.333,0,0
126886,93.5621,-816.083,0,0
127146,92.7137,-813.795,0,0
127406,91.9984,-811.435,0,0
127667,91.1802,-809.236,0,0
127927,90.2974,-807.039,0,0
128187,89.1922,-804.879,0,0
128448,87.8001,-802.508,0,0
128708,86.4577,-799.912,0,0
128968,85.077,-797.217,0,0
129229,83.6057,-794.361,0,0
129489,82.1887,-791.255,0,0
129749,80.8613,-788.066,0,0
130010,79.5104,-784.636,0,0
130270,78.4048,-781.021,0,0
130530,77.4584,-777.464,0,0
130791,76.5297,-773.888,0,0
131051,75.6685,-770.188,0,0
131311,74.9078,-766.429,0,0
131572,74.339,-762.612,0,0
131832,73.8286,-758.899,0,0
132092,73.3463,-755.147,0,0
132353,72.9319,-751.323,0,0
132613,72.5965,-747.479,0,0
132873,72.3725,-743.668,0,0
133134,72.2467,-739.894,0,0
133394,72.1092,-736.098,0,0
133654,72.0043,-732.301,0,0
133915,72.0064,-728.482,0,0
134175,72.0766,-724.696,0,0
134435,72.1897,-720.898,0,0
134696,72.3387,-717.122,0,0
134956,72.5221,-713.343,0,0
135216,72.8091,-709.53,0,0
135477,73.1768,-705.771,0,0
135737,73.59,-702.076,0,0
135997,74.0108,-698.413,0,0
136258,74.424,-694.746,0,0
136518,74.9999,-691.097,0,0
136778,75.601,-687.541,0,0
137039,76.2027,-684.112,0,0
137299,76.7055,-680.768,0,0
137559,77.0505,-677.382,0,0
137819,77.3789,-673.918,0,0
138080,77.665,-670.383,0,0
138340.125,78.0131,-666.717,0,0
138600.45,78.4188,-662.991,0,0
138860.775,78.8978,-659.268,0,0
139121.1,79.3699,-655.479,0,0
139381.425,79.9907,-651.617,0,0
139641.75,80.7196,-647.803,0,0
139902.075,81.4673,-644.005,0,0
140162.4,82.2178,-640.202,0,0
140422.725,83.063,-636.351,0,0
140683.05,83.9859,-632.479,0,0
140943.375,84.9978,-628.622,0,0
141203.7,86.0993,-624.801,0,0
141464.025,87.2634,-621.094,0,0
141724.35,88.4238,-617.399,0,0
141984.675,89.6145,-613.691,0,0
142245.0,90.8533,-610.051,0,0
142505.325,92.0552,-606.419,0,0
142765.65,93.2708,-602.787,0,0
143025.975,94.5366,-599.079,0,0
143286.3,95.9066,-595.49,0,0
143546.625,97.2439,-591.878,0,0
143806.95,98.5731,-588.273,0,0
144067.275,99.8599,-584.641,0,0
144327.6,101.242,-580.908,0,0
144587.925,102.708,-577.198,0,0
144848.25,104.182,-573.483,0,0
145108.575,105.712,-569.715,0,0
145368.9,107.361,-565.886,0,0
145629.225,109.13,-562.106,0,0
145889.55,110.916,-558.381,0,0
146149.875,112.751,-554.615,0,0
146410.2,114.696,-550.889,0,0
146670.525,116.726,-547.176,0,0
146930.85,118.81,-543.544,0,0
147191.175,120.909,-539.927,0,0
147451.5,123.034,-536.312,0,0
147711.825,125.21,-532.705,0,0
147972.15,127.431,-529.095,0,0
148232.475,129.697,-525.436,0,0
148492.8,132.111,-521.774,0,0
148753.125,134.602,-518.158,0,0
149013.45,137.18,-514.571,0,0
149273.775,139.789,-511.069,0,0
149534.1,142.358,-507.511,0,0
149794.425,145.02,-503.817,0,0
150054.75,147.936,-500.075,0,0
150315.075,151.04,-496.435,0,0
150575.4,154.244,-492.874,0,0
150835.725,157.516,-489.294,0,0
151096.05,161.08,-485.711,0,0
151356.375,164.863,-482.331,0,0
151616.7,168.753,-479.14,0,0
151877.025,172.668,-476.074,0,0
152137.35,176.72,-472.947,0,0
152397.675,181.222,-469.999,0,0
152658.0,185.949,-467.563,0,0
152918.325,190.498,-465.545,0,0
153178.65,194.976,-463.6,0,0
153438.975,199.572,-461.877,0,0
153699.3,204.124,-460.514,0,0
153959.625,208.539,-459.434,0,0
154219.95,212.795,-458.575,0,0
154480,216.851,-457.996,0,0
154741,220.502,-457.697,0,0
155001,223.606,-457.055,0,0
155261,226.811,-455.992,0,0
155522,230.306,-454.897,0,0
155782,234.178,-454.001,0,0
156042,237.899,-453.708,0,0
156303,241.179,-453.482,0,0
156563,244.087,-453.291,0,0
156823,246.805,-452.722,0,0
157084,249.548,-451.957,0,0
157344,252.404,-451.116,0,0
157604,255.237,-450.283,0,0
157864,258.165,-449.279,0,0
158125,261.283,-448.084,0,0
158385,264.555,-446.923,0,0
158645,268.095,-445.873,0,0
158906,271.851,-444.753,0,0
159166,276.162,-443.804,0,0
159426,280.867,-443.662,0,0
159687,285.341,-444.328,0,0
159947,289.294,-445.212,0,0
160207,292.942,-446.364,0,0
160468,296.536,-447.683,0,0
160728,299.739,-449.557,0,0
160988,302.127,-451.56,0,0
161249,303.767,-453.282,0,0
161509,305.276,-454.439,0,0
161769,306.775,-455.283,0,0
162030,308.266,-456.106,0,0
162290,309.557,-456.769,0,0
162550,310.772,-457.275,0,0
162811,311.713,-457.768,0,0
163071,312.579,-457.798,0,0
163331,313.446,-457.474,0,0
163592,314.561,-456.966,0,0
163852,315.652,-456.261,0,0
164112,316.78,-455.232,0,0
164373,318.129,-453.832,0,0
164633,320.056,-452.261,0,0
164893,322.349,-450.852,0,0
165154,324.618,-449.555,0,0
165414,326.921,-448.067,0,0
165674,329.466,-446.206,0,0
165935,332.951,-444.151,0,0
166195,336.919,-442.438,0,0
166455,341.392,-441.014,0,0
166716,346.271,-439.765,0,0
166976,351.898,-439.16,0,0
167236,357.788,-439.327,0,0
167497,363.718,-440.395,0,0
167757,369.622,-441.91,0,0
168017,375.47,-444.26,0,0
168277,381.014,-447.337,0,0
168538,386.096,-450.827,0,0
168798,390.922,-454.496,0,0
169058,395.921,-458.675,0,0
169319,400.709,-463.922,0,0
169579,404.472,-469.848,0,0
169839,407.709,-475.82,0,0
170100,410.767,-482.273,0,0
170360.075,413.131,-489.623,0,0
170620.4,414.306,-497.571,0,0
170880.725,414.157,-505.766,0,0
171141.05,412.501,-513.79,0,0
171401.375,409.705,-520.934,0,0
171661.7,406.563,-527.423,0,0
171922.025,402.807,-533.869,0,0
172182.35,397.916,-539.712,0,0
172442.675,392.523,-544.678,0,0
172703.0,386.581,-549.054,0,0
172963.325,379.978,-552.49,0,0
173223.65,373.132,-554.789,0,0
173483.975,366.342,-556.248,0,0
173744.3,359.475,-556.773,0,0
174004.625,352.948,-556.449,0,0
174264.95,346.684,-555.545,0,0
174525.275,340.588,-554.051,0,0
174785.6,334.979,-551.914,0,0
175045.925,329.651,-549.541,0,0
175306.25,324.335,-546.762,0,0
175566.575,319.242,-543.172,0,0
175826.9,314.852,-538.986,0,0
176087.225,311.057,-534.696,0,0
176347.55,307.69,-530.118,0,0
176607.875,304.885,-525.321,0,0
176868.2,302.611,-520.493,0,0
177128.525,300.8,-515.665,0,0
177388.85,299.381,-510.893,0,0
177649.175,298.296,-506.169,0,0
177909.5,297.586,-501.578,0,0
178169.825,297.06,-497.219,0,0
178430.15,296.648,-492.942,0,0
178690.475,296.381,-488.667,0,0
178950.8,296.27,-484.354,0,0
179211.125,296.451,-480.009,0,0
179471.45,296.918,-475.779,0,0
179731.775,297.641,-471.701,0,0
179992.1,298.507,-467.93,0,0
180252.425,299.327,-464.308,0,0
180512.75,300.23,-460.819,0,0
180773.075,301.062,-457.426,0,0
181033.4,301.963,-454.079,0,0
181293.725,302.814,-450.827,0,0
181554.05,303.631,-447.608,0,0
181814.375,304.442,-444.399,0,0
182074.7,305.177,-441.202,0,0
182335.025,305.845,-437.985,0,0
182595.35,306.44,-434.708,0,0
182855.675,306.994,-431.303,0,0
183116.0,307.51,-427.73,0,0
183376.325,308.051,-423.964,0,0
183636.65,308.685,-420.048,0,0
183896.975,309.44,-415.973,0,0
184157.3,310.286,-411.712,0,0
184417.625,311.296,-407.34,0,0
184677.95,312.482,-402.873,0,0
184938.275,313.78,-398.285,0,0
185198.6,315.282,-393.576,0,0
185458.925,317.017,-388.845,0,0
185719.25,318.926,-384.104,0,0
185979.575,320.87,-379.345,0,0
186239.9,322.939,-374.444,0,0
186500,325.187,-369.381,0,0
186761,327.666,-364.354,0,0
187021,330.276,-359.14,0,0
187281,333.12,-353.903,0,0
187542,336.142,-348.533,0,0
187802,339.368,-343.115,0,0
188062,342.951,-337.497,0,0
188322,346.707,-331.945,0,0
188583,350.803,-326.367,0,0
188843,355.11,-320.701,0,0
189103,359.739,-314.96,0,0
189364,364.675,-309.242,0,0
189624,369.907,-303.466,0,0
189884,375.51,-297.726,0,0
190145,381.572,-292.007,0,0
190405,388.007,-286.392,0,0
190665,394.839,-280.866,0,0
190926,401.911,-275.611,0,0
191186,409.32,-270.404,0,0
191446,417.086,-265.213,0,0
191707,425.306,-260.283,0,0
191967,433.863,-255.513,0,0
192227,442.849,-251.005,0,0
192488,452.229,-246.791,0,0
192748,461.936,-242.938,0,0
193008,471.955,-239.365,0,0
193269,482.267,-236.183,0,0
193529,492.779,-233.418,0,0
193789,503.525,-230.962,0,0
194050,514.468,-228.772,0,0
194310,525.751,-227.015,0,0
194570,537.13,-225.701,0,0
194831,548.602,-224.627,0,0
195091,560.275,-223.814,0,0
195351,572.077,-223.341,0,0
195612,584.097,-223.046,0,0
195872,596.476,-222.978,0,0
196132,609.223,-223.285,0,0
196393,622.355,-223.962,0,0
196653,635.825,-225.111,0,0
196913,649.688,-226.694,0,0
197174,664.04,-228.876,0,0
197434,678.763,-231.809,0,0
197694,693.735,-235.476,0,0
197955,709.036,-239.913,0,0
198215,724.597,-245.245,0,0
198475,740.313,-251.437,0,0
198735,756.27,-258.572,0,0
198996,772.459,-266.892,0,0
199256,788.645,-276.585,0,0
199516,804.539,-287.705,0,0
199777,819.991,-300.249,0,0
200037,834.598,-313.961,0,0
200297,848.447,-328.81,0,0
200558,861.502,-344.843,0,0
200818,873.203,-361.933,0,0
201078,883.654,-379.723,0,0
201339,892.875,-398.095,0,0
201599,900.973,-417.007,0,0
201859,907.39,-436.419,0,0
202120,912.405,-455.564,0,0
202380.025,916.565,-474.404,0,0
202640.35,919.484,-493.446,0,0
202900.675,921.211,-511.926,0,0
203161.0,922.468,-529.791,0,0
203421.325,923.715,-547.589,0,0
203681.65,924.265,-566.23,0,0
203941.975,923.518,-585.357,0,0
204202.3,920.945,-604.234,0,0
204462.625,916.992,-622.114,0,0
204722.95,912.56,-638.69,0,0
204983.275,907.944,-655.017,0,0
205243.6,902.601,-671.113,0,0
205503.925,896.573,-686.556,0,0
205764.25,890.26,-701.214,0,0
206024.575,883.839,-715.352,0,0
206284.9,877.136,-729.223,0,0
206545.225,870.355,-742.7,0,0
206805.55,863.533,-756.422,0,0
207065.875,856.173,-770.462,0,0
207326.2,847.648,-784.849,0,0
207586.525,837.628,-798.933,0,0
207846.85,826.453,-811.993,0,0
208107.175,814.331,-823.917,0,0
208367.5,801.775,-834.626,0,0
208627.825,788.927,-844.251,0,0
208888.15,775.506,-853.042,0,0
209148.475,761.912,-860.363,0,0
209408.8,748.454,-866.426,0,0
209669.125,735.432,-871.419,0,0
209929.45,722.759,-875.921,0,0
210189.775,710.3,-879.508,0,0
210450.1,698.361,-882.21,0,0
210710.425,686.751,-884.375,0,0
210970.75,675.451,-886.057,0,0
211231.075,664.687,-887.075,0,0
211491.4,654.356,-887.692,0,0
211751.725,644.512,-887.886,0,0
212012.05,635.19,-887.654,0,0
212272.375,626.381,-887.105,0,0
212532.7,618.252,-886.427,0,0
212793.025,610.698,-885.743,0,0
213053.35,603.139,-885.257,0,0
213313.675,595.603,-884.355,0,0
213574.0,588.552,-882.997,0,0
213834.325,581.997,-881.378,0,0
214094.65,576.175,-879.354,0,0
214354.975,571.32,-877.368,0,0
214615.3,567.352,-875.788,0,0
214875.625,563.744,-874.879,0,0
215135.95,560.679,-874.623,0,0
215396.275,557.49,-875.15,0,0
215656.6,554.089,-876.274,0,0
215916.925,550.293,-877.701,0,0
216177.25,545.984,-879.361,0,0
216437.575,541.255,-880.873,0,0
216697.9,536.062,-882.093,0,0
216958.225,530.851,-882.846,0,0
217218.55,525.981,-883.268,0,0
217478.875,521.367,-883.616,0,0
217739.2,516.838,-884.176,0,0
217999.525,512.236,-884.75,0,0
218259.85,507.777,-885.239,0,0
218520,503.219,-885.76,0,0
218780,498.822,-886.237,0,0
219041,494.485,-886.691,0,0
219301,490.248,-887.331,0,0
219561,485.941,-888.057,0,0
219822,481.386,-888.815,0,0
220082,476.841,-889.561,0,0
220342,472.051,-890.174,0,0
220603,467.261,-890.806,0,0
220863,462.363,-891.147,0,0
221123,457.484,-891.216,0,0
221384,452.851,-891.216,0,0
221644,448.231,-891.185,0,0
221904,443.633,-891.198,0,0
222165,439.092,-891.175,0,0
222425,434.505,-891.043,0,0
222685,429.909,-890.758,0,0
222946,425.562,-890.367,0,0
223206,421.354,-890.113,0,0
223466,417.136,-889.823,0,0
223727,413.054,-889.589,0,0
223987,409.057,-889.346,0,0
224247,405.044,-889.356,0,0
224508,401.076,-889.608,0,0
224768,396.724,-889.889,0,0
225028,392.269,-890.358,0,0
225289,387.605,-890.527,0,0
225549,382.667,-890.846,0,0
225809,377.739,-890.836,0,0
226070,372.519,-890.775,0,0
226330,367.217,-890.366,0,0
226590,361.991,-889.922,0,0
226851,356.568,-889.269,0,0
227111,351.128,-888.577,0,0
227371,345.516,-887.588,0,0
227632,339.883,-886.436,0,0
227892,334.163,-884.956,0,0
228152,328.47,-883.257,0,0
228413,322.746,-881.071,0,0
228673,317.281,-878.671,0,0
228933,311.94,-875.842,0,0
229193,306.901,-872.824,0,0
229454,302.154,-869.812,0,0
229714,297.504,-866.603,0,0
229974,293.143,-863.387,0,0
230235,288.95,-859.984,0,0
230495,284.95,-856.499,0,0
230755,281.088,-853.039,0,0
231016,277.424,-849.467,0,0
231276,274.03,-845.887,0,0
231536,270.805,-842.313,0,0
231797,267.741,-838.765,0,0
232057,264.777,-835.276,0,0
232317,261.975,-831.766,0,0
232578,259.279,-828.279,0,0
232838,256.717,-824.74,0,0
233098,254.357,-821.186,0,0
233359,252.165,-817.774,0,0
233619,250.013,-814.425,0,0
233879,247.935,-811.114,0,0
234140,245.93,-807.792,0,0
234400,244.07,-804.462,0,0
234660.3,242.238,-801.152,0,0
234920.625,240.762,-798.032,0,0
235180.95,239.19,-794.903,0,0
235441.275,237.699,-791.92,0,0
235701.6,236.244,-788.949,0,0
235961.925,234.708,-786.102,0,0
236222.25,233.162,-783.141,0,0
236482.575,231.694,-780.148,0,0
236742.9,230.306,-777.124,0,0
237003.225,228.968,-774.057,0,0
237263.55,227.736,-770.933,0,0
237523.875,226.706,-767.754,0,0
237784.2,225.808,-764.599,0,0
238044.525,225.187,-761.517,0,0
238304.85,224.717,-758.595,0,0
238565.175,224.369,-755.829,0,0
238825.5,223.992,-753.17,0,0
239085.825,223.795,-750.678,0,0
239346.15,223.577,-748.322,0,0
239606.475,223.314,-746.054,0,0
239866.8,223.106,-743.915,0,0
240127.125,222.925,-741.959,0,0
240387.45,222.7,-739.942,0,0
240647.775,222.469,-738.164,0,0
240908.1,222.2,-736.374,0,0
241168.425,221.945,-734.738,0,0
241428.75,221.566,-733.126,0,0
241689.075,221.242,-731.527,0,0
241949.4,220.903,-730.094,0,0
242209.725,220.48,-728.745,0,0
242470.05,219.957,-727.452,0,0
242730.375,219.361,-726.181,0,0
242990.7,218.676,-724.945,0,0
243251.025,217.929,-723.696,0,0
243511.35,217.1,-722.518,0,0
243771.675,216.214,-721.311,0,0
244032.0,215.21,-720.135,0,0
244292.325,214.065,-718.861,0,0
244552.65,212.824,-717.538,0,0
244812.975,211.515,-716.039,0,0
245073.3,210.171,-714.472,0,0
245333.625,208.846,-712.732,0,0
245593.95,207.633,-710.855,0,0
245854.275,206.431,-708.917,0,0
246114.6,205.338,-706.958,0,0
246374.925,204.265,-705.001,0,0
246635.25,203.25,-702.893,0,0
246895.575,202.299,-700.747,0,0
247155.9,201.461,-698.474,0,0
247416.225,200.846,-696.26,0,0
247676.55,200.335,-694.135,0,0
247936.875,199.853,-692.125,0,0
248197.2,199.396,-690.227,0,0
248457.525,198.866,-688.326,0,0
248717.85,198.362,-686.419,0,0
248978.175,197.845,-684.495,0,0
249238.5,197.439,-682.563,0,0
249498.825,197.015,-680.609,0,0
249759.15,196.726,-678.775,0,0
250019.475,196.436,-677.029,0,0
250279.8,196.06,-675.337,0,0
250540,195.742,-673.668,0,0
250800,195.412,-672.145,0,0
251061,194.989,-670.624,0,0
251321,194.44,-669.166,0,0
251581,193.75,-667.704,0,0
251842,192.977,-666.223,0,0
252102,192.084,-664.666,0,0
252362,191.05,-663.036,0,0
252623,189.965,-661.177,0,0
252883,188.841,-659.17,0,0
253143,187.713,-656.925,0,0
253404,186.701,-654.502,0,0
253664,185.831,-651.959,0,0
253924,185.091,-649.397,0,0
254185,184.466,-646.795,0,0
254445,183.746,-644.218,0,0
254705,183.138,-641.5,0,0
254966,182.518,-638.671,0,0
255226,181.926,-635.611,0,0
255486,181.418,-632.501,0,0
255747,181.093,-629.094,0,0
256007,180.967,-625.56,0,0
256267,181.081,-621.938,0,0
256528,181.484,-618.31,0,0
256788,182.055,-614.63,0,0
257048,182.853,-610.915,0,0
257309,183.852,-607.16,0,0
257569,185.159,-603.424,0,0
257829,186.746,-599.791,0,0
258090,188.497,-596.227,0,0
258350,190.44,-592.744,0,0
258610,192.561,-589.239,0,0
258871,195.06,-585.75,0,0
259131,197.931,-582.476,0,0
259391,201.072,-579.526,0,0
259651,204.377,-576.909,0,0
259912,207.602,-574.511,0,0
260172,210.885,-572.346,0,0
260432,214.221,-570.208,0,0
260693,217.79,-568.161,0,0
260953,221.569,-566.196,0,0
261213,225.632,-564.55,0,0
261474,229.847,-563.35,0,0
261734,234.064,-562.514,0,0
261994,238.174,-561.991,0,0
262255,242.153,-561.599,0,0
262515,246.207,-561.233,0,0
262775,250.493,-561.039,0,0
263036,254.968,-561.22,0,0
263296,259.53,-561.872,0,0
263556,264.009,-562.945,0,0
263817,268.373,-564.438,0,0
264077,272.49,-566.276,0,0
264337,276.425,-568.355,0,0
264598,280.204,-570.689,0,0
264858,283.78,-573.408,0,0
265118,287.052,-576.332,0,0
265379,290.054,-579.406,0,0
265639,292.768,-582.557,0,0
265899,295.308,-585.785,0,0
266160,297.734,-589.207,0,0
266420,299.931,-592.803,0,0
266680.25,301.866,-596.505,0,0
266940.575,303.59,-600.264,0,0
267200.9,305.246,-604.173,0,0
267461.225,306.776,-608.416,0,0
267721.55,307.9,-612.943,0,0
267981.875,308.588,-617.605,0,0
268242.2,308.935,-622.437,0,0
268502.525,308.773,-627.449,0,0
268762.85,308.006,-632.498,0,0
269023.175,306.526,-637.429,0,0
269283.5,304.435,-642.131,0,0
269543.825,301.764,-646.319,0,0
269804.15,298.713,-649.738,0,0
270064.475,295.618,-652.365,0,0
270324.8,292.852,-654.559,0,0
270585.125,290.269,-656.508,0,0
270845.45,287.991,-658.244,0,0
271105.775,285.845,-659.934,0,0
271366.1,283.783,-661.674,0,0
271626.425,281.748,-663.415,0,0
271886.75,279.737,-665.064,0,0
272147.075,277.815,-666.785,0,0
272407.4,275.912,-668.589,0,0
272667.725,273.93,-670.478,0,0
272928.05,271.757,-672.421,0,0
273188.375,269.437,-674.282,0,0
273448.7,267.061,-676.157,0,0
273709.025,264.509,-678.087,0,0
273969.35,261.783,-679.886,0,0
274229.675,258.852,-681.68,0,0
274490.0,255.788,-683.446,0,0
274750.325,252.355,-685.126,0,0
275010.65,248.7,-686.664,0,0
275270.975,244.696,-687.841,0,0
275531.3,240.568,-688.611,0,0
275791.625,236.449,-688.963,0,0
276051.95,232.383,-689.095,0,0
276312.275,228.342,-689.024,0,0
276572.6,224.216,-688.769,0,0
276832.925,219.968,-688.202,0,0
277093.25,215.654,-687.28,0,0
277353.575,211.367,-685.876,0,0
277613.9,207.22,-684.036,0,0
277874.225,203.324,-681.768,0,0
278134.55,199.741,-679.118,0,0
278394.875,196.515,-676.11,0,0
278655.2,193.753,-672.811,0,0
278915.525,191.529,-669.331,0,0
279175.85,189.924,-665.869,0,0
279436.175,188.899,-662.584,0,0
279696.5,188.201,-659.564,0,0
279956.825,187.877,-656.789,0,0
280217.15,187.83,-654.459,0,0
280477.475,187.819,-652.574,0,0
280737.8,187.698,-650.927,0,0
280998.125,187.472,-649.469,0,0
281258.45,187.156,-648.197,0,0
281518.775,186.677,-646.953,0,0
281779.1,186.062,-645.65,0,0
282039.425,185.426,-644.193,0,0
282299.75,184.913,-642.587,0,0
282560,184.698,-640.904,0,0
282820,184.729,-639.358,0,0
283081,184.977,-638.024,0,0
283341,185.324,-636.996,0,0
283601,185.647,-636.289,0,0
283862,185.818,-635.906,0,0
284122,185.745,-635.686,0,0
284382,185.44,-635.515,0,0
284643,184.895,-635.316,0,0
284903,184.317,-635.025,0,0
285163,183.634,-634.843,0,0
285424,182.702,-634.654,0,0
285684,181.635,-634.399,0,0
285944,180.378,-634.005,0,0
286205,178.968,-633.45,0,0
286465,177.434,-632.689,0,0
286725,175.927,-631.592,0,0
286986,174.535,-630.329,0,0
287246,173.25,-628.971,0,0
287506,171.943,-627.525,0,0
287767,170.623,-625.92,0,0
288027,169.36,-624.065,0,0
288287,168.186,-621.983,0,0
288548,167.143,-619.636,0,0
288808,166.38,-616.983,0,0
289068,166.007,-614.107,0,0
289329,166.107,-611.129,0,0
289589,166.701,-608.222,0,0
289849,167.699,-605.455,0,0
290109,169.075,-602.992,0,0
290370,170.715,-600.777,0,0
290630,172.604,-598.784,0,0
290890,174.7,-597.17,0,0
291151,176.938,-595.873,0,0
291411,179.317,-594.855,0,0
291671,181.781,-594.191,0,0
291932,184.324,-593.926,0,0
292192,186.868,-594.037,0,0
292452,189.36,-594.535,0,0
292713,191.757,-595.472,0,0
292973,193.956,-596.815,0,0
293233,195.861,-598.495,0,0
293494,197.442,-600.429,0,0
293754,198.686,-602.576,0,0
294014,199.574,-604.816,0,0
294275,200.224,-607.125,0,0
294535,200.557,-609.649,0,0
294795,200.53,-612.205,0,0
295056,200.116,-614.795,0,0
295316,199.356,-617.331,0,0
295576,198.196,-619.75,0,0
295837,196.765,-622.04,0,0
296097,194.99,-624.118,0,0
296357,192.926,-625.924,0,0
296618,190.706,-627.417,0,0
296878,188.353,-628.542,0,0
297138,186.009,-629.375,0,0
297399,183.711,-629.974,0,0
297659,181.46,-630.363,0,0
297919,179.279,-630.592,0,0
298180,177.135,-630.63,0,0
298440,175.111,-630.557,0,0
298700.2,173.208,-630.375,0,0
298960.525,171.395,-630.162,0,0
299220.85,169.625,-629.907,0,0
299481.175,167.939,-629.633,0,0
299741.5,166.266,-629.355,0,0
300001.825,164.588,-629.097,0,0
300262.15,162.875,-628.749,0,0
300522.475,161.161,-628.332,0,0
300782.8,159.523,-627.927,0,0
301043.125,157.819,-627.436,0,0
301303.45,156.092,-626.863,0,0
301563.775,154.432,-626.213,0,0
301824.1,152.834,-625.468,0,0
302084.425,151.306,-624.652,0,0
302344.75,149.856,-623.868,0,0
302605.075,148.458,-623.068,0,0
302865.4,147.073,-622.298,0,0
303125.725,145.651,-621.508,0,0
303386.05,144.213,-620.688,0,0
303646.375,142.772,-619.761,0,0
303906.7,141.36,-618.806,0,0
304167.025,139.994,-617.767,0,0
304427.35,138.673,-616.656,0,0
304687.675,137.4,-615.526,0,0
304948.0,136.174,-614.298,0,0
305208.325,135.073,-613.061,0,0
305468.65,134.097,-611.814,0,0
305728.975,133.121,-610.588,0,0
305989.3,132.229,-609.355,0,0
306249.625,131.359,-608.098,0,0
306509.95,130.563,-606.85,0,0
306770.275,129.841,-605.613,0,0
307030.6,129.204,-604.376,0,0
307290.925,128.632,-603.169,0,0
307551.25,128.114,-602.015,0,0
307811.575,127.659,-600.906,0,0
308071.9,127.235,-599.846,0,0
308332.225,126.866,-598.819,0,0
308592.55,126.532,-597.885,0,0
308852.875,126.237,-597.069,0,0
309113.2,125.87,-596.322,0,0
309373.525,125.505,-595.662,0,0
309633.85,125.044,-595.035,0,0
309894.175,124.55,-594.454,0,0
310154.5,123.953,-593.826,0,0
310414.825,123.31,-593.206,0,0
310675.15,122.599,-592.582,0,0
310935.475,121.854,-591.895,0,0
311195.8,121.085,-591.118,0,0
311456.125,120.349,-590.301,0,0
311716.45,119.614,-589.414,0,0
311976.775,118.95,-588.502,0,0
312237.1,118.326,-587.558,0,0
312497.425,117.716,-586.645,0,0
312757.75,117.132,-585.723,0,0
313018.075,116.544,-584.782,0,0
313278.4,116.007,-583.78,0,0
313538.725,115.53,-582.746,0,0
313799.05,115.135,-581.75,0,0
314059.375,114.806,-580.762,0,0
314319.7,114.51,-579.851,0,0
314580,114.218,-579.02,0,0
314840,114.032,-578.182,0,0
315101,113.784,-577.344,0,0
315361,113.468,-576.585,0,0
315621,113.355,-575.868,0,0
315882,113.088,-575.182,0,0
316142,112.941,-574.437,0,0
316402,112.642,-573.895,0,0
316663,112.429,-573.227,0,0
316923,112.263,-572.678,0,0
317183,112.017,-572.149,0,0
317444,111.859,-571.623,0,0
317704,111.524,-571.277,0,0
317964,111.321,-570.81,0,0
318225,111.037,-570.441,0,0
318485,110.73,-570.141,0,0
318745,110.352,-569.864,0,0
319006,110.045,-569.589,0,0
319266,109.71,-569.44,0,0
319526,109.267,-569.247,0,0
319787,108.669,-569.12,0,0
320047,108.022,-569.046,0,0
320307,107.404,-568.981,0,0
320567,106.59,-568.863,0,0
320828,105.726,-568.787,0,0
321088,104.854,-568.569,0,0
321348,103.71,-568.462,0,0
321609,102.61,-568.269,0,0
321869,101.338,-568.03,0,0
322129,100.011,-567.627,0,0
322390,98.6186,-567.107,0,0
322650,97.126,-566.505,0,0
322910,95.6572,-565.65,0,0
323171,94.1654,-564.692,0,0
323431,92.8048,-563.593,0,0
323691,91.4873,-562.266,0,0
323952,90.3389,-560.962,0,0
324212,89.2577,-559.664,0,0
324472,88.2697,-558.228,0,0
324733,87.4239,-556.736,0,0
324993,86.6826,-555.386,0,0
325253,86.0021,-553.972,0,0
325514,85.3497,-552.667,0,0
325774,84.8428,-551.408,0,0
326034,84.2242,-550.086,0,0
326295,83.604,-548.845,0,0
326555,83.0098,-547.506,0,0
326815,82.3303,-546.301,0,0
327076,81.7916,-545.031,0,0
327336,81.2505,-543.598,0,0
327596,80.7772,-542.231,0,0
327857,80.314,-540.872,0,0
328117,79.7819,-539.427,0,0
328377,79.4405,-537.988,0,0
328638,79.098,-536.562,0,0
328898,78.8829,-535.069,0,0
329158,78.5747,-533.591,0,0
329419,78.4461,-532.175,0,0
329679,78.3403,-530.705,0,0
329939,78.354,-529.304,0,0
330200,78.4209,-527.832,0,0
330460,78.5641,-526.497,0,0
330720.15,78.7284,-525.262,0,0
330980.475,78.9997,-524.03,0,0
331240.8,79.2275,-522.918,0,0
331501.125,79.5235,-521.852,0,0
331761.45,79.8643,-520.803,0,0
332021.775,80.1284,-519.885,0,0
332282.1,80.4362,-519.089,0,0
332542.425,80.6391,-518.295,0,0
332802.75,80.8685,-517.558,0,0
333063.075,81.1199,-517.029,0,0
333323.4,81.1756,-516.473,0,0
333583.725,81.2605,-515.949,0,0
333844.05,81.2006,-515.421,0,0
334104.375,81.0515,-514.866,0,0
334364.7,80.8794,-514.307,0,0
334625.025,80.6363,-513.76,0,0
334885.35,80.3845,-513.132,0,0
335145.675,80.1012,-512.479,0,0
335406.0,79.7427,-511.875,0,0
335666.325,79.401,-511.238,0,0
335926.65,78.9025,-510.365,0,0
336186.975,78.4523,-509.597,0,0
336447.3,78.0258,-508.697,0,0
336707.625,77.6113,-507.702,0,0
336967.95,77.1317,-506.592,0,0
337228.275,76.7686,-505.546,0,0
337488.6,76.4134,-504.425,0,0
337748.925,76.2095,-503.215,0,0
338009.25,75.9729,-502.052,0,0
338269.575,75.7991,-500.825,0,0
338529.9,75.6493,-499.624,0,0
338790.225,75.5572,-498.393,0,0
339050.55,75.5154,-497.084,0,0
339310.875,75.5385,-495.812,0,0
339571.2,75.6379,-494.476,0,0
339831.525,75.7144,-493.218,0,0
340091.85,75.8614,-491.898,0,0
340352.175,76.1285,-490.644,0,0
340612.5,76.4423,-489.341,0,0
340872.825,76.8604,-488.013,0,0
341133.15,77.3244,-486.729,0,0
341393.475,77.9209,-485.526,0,0
341653.8,78.5789,-484.341,0,0
341914.125,79.2547,-483.227,0,0
342174.45,80.1069,-482.272,0,0
342434.775,80.9783,-481.338,0,0
342695.1,81.9124,-480.558,0,0
342955.425,82.7988,-479.874,0,0
343215.75,83.6634,-479.363,0,0
343476.075,84.578,-478.983,0,0
343736.4,85.4078,-478.61,0,0
343996.725,86.1747,-478.419,0,0
344257.05,86.883,-478.204,0,0
344517.375,87.5132,-478.194,0,0
344777.7,88.1464,-478.185,0,0
345038.025,88.6226,-478.195,0,0
345298.35,89.0294,-478.254,0,0
345558.675,89.3684,-478.343,0,0
345819.0,89.6444,-478.397,0,0
346079.325,89.8172,-478.609,0,0
346339.65,89.9109,-478.636,0,0
346599.975,89.9901,-478.7,0,0
346860,89.9689,-478.824,0,0
347121,89.8513,-478.905,0,0
347381,89.7823,-478.892,0,0
347641,89.6027,-478.95,0,0
347902,89.3243,-478.898,0,0
348162,89.0733,-478.858,0,0
348422,88.7385,-478.801,0,0
348683,88.3995,-478.63,0,0
348943,88.0148,-478.478,0,0
349203,87.626,-478.197,0,0
349464,87.2747,-477.864,0,0
349724,86.8536,-477.585,0,0
349984,86.4241,-477.239,0,0
350245,86.0553,-476.848,0,0
350505,85.5988,-476.433,0,0
350765,85.2363,-475.987,0,0
351025,84.8449,-475.449,0,0
351286,84.4121,-475.015,0,0
351546,84.0296,-474.426,0,0
351806,83.6675,-473.83,0,0
352067,83.279,-473.211,0,0
352327,82.9886,-472.533,0,0
352587,82.5566,-471.812,0,0
352848,82.2348,-471.069,0,0
353108,82.0393,-470.304,0,0
353368,81.9264,-469.478,0,0
353629,81.8202,-468.7,0,0
353889,81.7452,-467.965,0,0
354149,81.7613,-467.247,0,0
354410,81.8304,-466.57,0,0
354670,81.8485,-465.956,0,0
354930,81.8652,-465.4,0,0
355191,81.8477,-464.851,0,0
355451,81.8023,-464.302,0,0
355711,81.751,-463.806,0,0
355972,81.7182,-463.303,0,0
356232,81.653,-462.816,0,0
356492,81.5776,-462.278,0,0
356753,81.4471,-461.809,0,0
357013,81.3425,-461.303,0,0
357273,81.1808,-460.824,0,0
357534,81.0447,-460.291,0,0
357794,80.9226,-459.846,0,0
358054,80.6942,-459.339,0,0
358315,80.5058,-458.732,0,0
358575,80.2647,-458.184,0,0
358835,80.0191,-457.53,0,0
359096,79.785,-456.897,0,0
359356,79.5452,-456.291,0,0
359616,79.3915,-455.603,0,0
359877,79.1598,-454.856,0,0
360137,78.9712,-454.141,0,0
360397,78.789,-453.332,0,0
360658,78.648,-452.463,0,0
360918,78.5336,-451.637,0,0
361178,78.5007,-450.793,0,0
361438,78.5013,-449.906,0,0
361699,78.5419,-449.102,0,0
361959,78.6729,-448.281,0,0
362219,78.774,-447.497,0,0
362480,78.9045,-446.721,0,0
362740.1,79.0466,-446.068,0,0
363000.425,79.1596,-445.371,0,0
363260.75,79.3061,-444.688,0,0
363521.075,79.4456,-444.058,0,0
363781.4,79.5549,-443.379,0,0
364041.725,79.6347,-442.764,0,0
364302.05,79.7727,-442.185,0,0
364562.375,79.7641,-441.528,0,0
364822.7,79.7924,-440.941,0,0
365083.025,79.8041,-440.301,0,0
365343.35,79.7589,-439.555,0,0
365603.675,79.6799,-438.811,0,0
365864.0,79.6851,-438.056,0,0
366124.325,79.639,-437.167,0,0
366384.65,79.707,-436.225,0,0
366644.975,79.7737,-435.217,0,0
366905.3,79.96,-434.27,0,0
367165.625,80.257,-433.278,0,0
367425.95,80.5671,-432.263,0,0
367686.275,80.9542,-431.334,0,0
367946.6,81.3888,-430.329,0,0
368206.925,81.8692,-429.421,0,0
368467.25,82.3903,-428.436,0,0
368727.575,83.0718,-427.512,0,0
368987.9,83.7328,-426.653,0,0
369248.225,84.4832,-425.854,0,0
369508.55,85.2761,-425.099,0,0
369768.875,86.1138,-424.397,0,0
370029.2,86.8674,-423.699,0,0
370289.525,87.8205,-423.073,0,0
370549.85,88.6876,-422.483,0,0
370810.175,89.6661,-421.972,0,0
371070.5,90.7621,-421.561,0,0
371330.825,91.8447,-421.143,0,0
371591.15,93.0253,-420.943,0,0
371851.475,94.1294,-420.84,0,0
372111.8,95.2949,-420.856,0,0
372372.125,96.3629,-421.027,0,0
372632.45,97.3656,-421.269,0,0
372892.775,98.4217,-421.594,0,0
373153.1,99.3484,-422.119,0,0
373413.425,100.116,-422.685,0,0
373673.75,100.812,-423.353,0,0
373934.075,101.388,-424.074,0,0
374194.4,101.847,-424.84,0,0
374454.725,102.176,-425.633,0,0
374715.05,102.259,-426.394,0,0
374975.375,102.267,-427.069,0,0
375235.7,102.141,-427.655,0,0
375496.025,101.959,-428.152,0,0
375756.35,101.812,-428.535,0,0
376016.675,101.629,-428.824,0,0
376277.0,101.423,-429.106,0,0
376537.325,101.284,-429.394,0,0
376797.65,101.172,-429.59,0,0
377057.975,100.92,-429.845,0,0
377318.3,100.812,-430.073,0,0
377578.625,100.626,-430.191,0,0
377838.95,100.456,-430.373,0,0
378099.275,100.31,-430.563,0,0
378359.6,100.157,-430.706,0,0
378619.925,99.9599,-430.919,0,0
378880,99.7175,-431.047,0,0
379141,99.4543,-431.255,0,0
379401,99.1484,-431.435,0,0
379661,98.8003,-431.461,0,0
379922,98.5668,-431.561,0,0
380182,98.2325,-431.582,0,0
380442,97.9024,-431.564,0,0
380703,97.6314,-431.6,0,0
380963,97.2306,-431.595,0,0
381223,96.8391,-431.434,0,0
381483,96.562,-431.269,0,0
381744,96.3019,-430.97,0,0
382004,96.2404,-430.672,0,0
382264,96.2199,-430.443,0,0
382525,96.4075,-430.222,0,0
382785,96.578,-430.218,0,0
383045,96.8925,-430.364,0,0
383306,97.1454,-430.7,0,0
383566,97.2554,-431.187,0,0
383826,97.2058,-431.81,0,0
384087,97.0055,-432.463,0,0
384347,96.6654,-433.084,0,0
384607,96.1544,-433.705,0,0
384868,95.52,-434.296,0,0
385128,94.7967,-434.884,0,0
385388,93.9449,-435.354,0,0
385649,92.9892,-435.723,0,0
385909,91.9059,-436.035,0,0
386169,90.7692,-436.257,0,0
386430,89.6306,-436.254,0,0
386690,88.4087,-436.158,0,0
386950,87.1449,-435.888,0,0
387211,85.8848,-435.486,0,0
387471,84.7842,-434.95,0,0
387731,83.6839,-434.222,0,0
387992,82.7202,-433.435,0,0
388252,81.882,-432.539,0,0
388512,81.167,-431.615,0,0
388773,80.5656,-430.649,0,0
389033,80.0724,-429.646,0,0
389293,79.7308,-428.652,0,0
389554,79.541,-427.69,0,0
389814,79.5206,-426.826,0,0
390074,79.5894,-426.032,0,0
390335,79.7675,-425.393,0,0
390595,79.9916,-424.883,0,0
390855,80.1925,-424.56,0,0
391116,80.4187,-424.364,0,0
391376,80.5531,-424.336,0,0
391636,80.5835,-424.416,0,0
391896,80.4983,-424.622,0,0
392157,80.2313,-424.84,0,0
392417,79.848,-425.127,0,0
392677,79.2606,-425.359,0,0
392938,78.5382,-425.558,0,0
393198,77.7049,-425.579,0,0
393458,76.7914,-425.552,0,0
393719,75.888,-425.379,0,0
393979,74.8405,-425.176,0,0
394239,73.8799,-424.802,0,0
394500,72.8276,-424.313,0,0
394760.05,71.9158,-423.736,0,0
395020.375,70.9891,-423.067,0,0
395280.7,70.1099,-422.315,0,0
395541.025,69.2847,-421.517,0,0
395801.35,68.5182,-420.687,0,0
396061.675,67.8886,-419.833,0,0
396322.0,67.175,-418.89,0,0
396582.325,66.5951,-418.017,0,0
396842.65,66.0186,-417.142,0,0
397102.975,65.5062,-416.284,0,0
397363.3,65.0092,-415.342,0,0
397623.625,64.5488,-414.46,0,0
397883.95,64.0836,-413.541,0,0
398144.275,63.6005,-412.622,0,0
398404.6,63.2271,-411.686,0,0
398664.925,62.7859,-410.683,0,0
398925.25,62.4157,-409.678,0,0
399185.575,62.0695,-408.681,0,0
399445.9,61.8017,-407.669,0,0
399706.225,61.542,-406.668,0,0
399966.55,61.2425,-405.647,0,0
400006.6,61.2491,-405.519,0,0