File: Accelerated corrosion test data/2025-10-05_06-00-04/sample_3.csv
Frequency (Hz),Impedance (ohms),Phase (Radians),Temperature (C),Humidity (%)
10000.0,250.855,-11781.4,0,0
10260.325,244.316,-11483.9,0,0
10520.65,238.786,-11201.9,0,0
10780.975,234.39,-10932.4,0,0
11041.3,228.64,-10680.8,0,0
11301.625,223.456,-10435.2,0,0
11561.95,218.757,-10201.8,0,0
11822.275,214.033,-9979.04,0,0
12082.6,211.015,-9765.38,0,0
12342.925,208.328,-9559.52,0,0
12603.25,202.548,-9365.61,0,0
12863.575,198.478,-9175.83,0,0
13123.9,199.365,-8993.02,0,0
13384.225,192.414,-8824.57,0,0
13644.55,188.755,-8656.1,0,0
13904.875,184.819,-8493.7,0,0
14165.2,184.968,-8336.57,0,0
14425.525,180.197,-8189.15,0,0
14685.8,178.76,-8043.46,0,0
14946.175,176.131,-7904.56,0,0
15206.5,172.579,-7764.85,0,0
15466.825,178.17,-7626.66,0,0
15727.15,194.305,-7519.39,0,0
15987.5,174.237,-7411.94,0,0
16247.8,167.568,-7282.45,0,0
16508.125,161.631,-7170.37,0,0
16768.45,163.633,-7049.05,0,0
17028.775,157.739,-6951.53,0,0
17289.1,160.208,-6837.99,0,0
17549.425,156.075,-6745.88,0,0
17809.75,156.648,-6641.1,0,0
18070.075,164.019,-6552.69,0,0
18330.4,151.09,-6461.87,0,0
18590.725,148.508,-6369.38,0,0
18851.05,144.807,-6279.62,0,0
19111.375,146.234,-6190,0,0
19371.7,145.329,-6107.83,0,0
19632.025,145.731,-6024.61,0,0
19892.35,147.789,-5942.15,0,0
20152.675,148.115,-5869.3,0,0
20413.0,156.573,-5787.97,0,0
20673.3,164.995,-5723.36,0,0
20933.65,161.469,-5668.85,0,0
21193.975,164.203,-5604.62,0,0
21454.3,145.562,-5544.84,0,0
21714.625,137.959,-5470.11,0,0
21974.9,141.016,-5402.96,0,0
22235.275,138.22,-5345.03,0,0
22495.6,137.327,-5282.72,0,0
22755.925,129.17,-5223.52,0,0
23016.25,127.712,-5164.13,0,0
23276.6,127.479,-5101.96,0,0
23536.9,129.581,-5055.84,0,0
23797.225,121.369,-4997.74,0,0
24057.55,118.961,-4940.64,0,0
24317.875,118.748,-4884.52,0,0
24578.2,117.432,-4835.32,0,0
24838.525,117.885,-4781.66,0,0
25098.85,116.109,-4735.61,0,0
25359.175,114.124,-4685.77,0,0
25619.5,113.968,-4638.37,0,0
25879.8,110.645,-4591.02,0,0
26140.1,108.183,-4544.18,0,0
26400.5,107.631,-4497.27,0,0
26660.8,107.922,-4452.6,0,0
26921.1,107.901,-4407.67,0,0
27181.4,107.974,-4367.26,0,0
27441.8,106.749,-4323.28,0,0
27702.1,108.403,-4283.92,0,0
27962.4,105.258,-4244.93,0,0
28222.7,103.667,-4202.15,0,0
28483.1,109.479,-4158.38,0,0
28743.4,112.434,-4123.73,0,0
29003.7,115.332,-4093.66,0,0
29264,106.747,-4061.67,0,0
29524.4,109.829,-4022.66,0,0
29784.7,104.361,-3989.94,0,0
30045,102.617,-3955.73,0,0
30305.3,100.392,-3919.04,0,0
30565.7,102.586,-3884.56,0,0
30826,100.597,-3852.21,0,0
31086.3,102.377,-3819.45,0,0
31346.6,98.9663,-3789.74,0,0
31607,97.3407,-3755.43,0,0
31867.3,97.9619,-3721.42,0,0
32127.6,100.95,-3688.39,0,0
32387.9,109.048,-3659.49,0,0
32648.3,112.525,-3641.48,0,0
32908.6,103.159,-3618.08,0,0
33168.9,100.91,-3590.07,0,0
33429.2,99.544,-3562.89,0,0
33689.6,94.2346,-3536.18,0,0
33949.9,90.836,-3506.55,0,0
34210.2,90.5756,-3478.34,0,0
34470.5,89.705,-3451.96,0,0
34730.9,88.165,-3425.87,0,0
34991.2,86.6829,-3399.33,0,0
35251.5,85.6007,-3373.35,0,0
35511.8,84.7015,-3348.1,0,0
35772.2,84.0741,-3323.06,0,0
36032.5,83.1044,-3298.38,0,0
36292.8,82.6905,-3273.8,0,0
36553.1,82.454,-3249.66,0,0
36813.5,81.8258,-3226.87,0,0
37073.8,80.7835,-3203.37,0,0
37334.1,80.5814,-3180.4,0,0
37594.4,79.8204,-3157.73,0,0
37854.8,79.4083,-3135.83,0,0
38115.1,78.7354,-3113.88,0,0
38375.4,78.1898,-3092.25,0,0
38635.7,77.7122,-3070.46,0,0
38896.1,77.6063,-3049.36,0,0
39156.4,77.2533,-3028.75,0,0
39416.7,76.8469,-3008.48,0,0
39677,76.5815,-2988.22,0,0
39937.4,75.7014,-2968.27,0,0
40197.7,75.3643,-2948.43,0,0
40458,75.1674,-2929.1,0,0
40718.3,74.7363,-2909.53,0,0
40978.7,74.4023,-2890.26,0,0
41239,74.1209,-2871.28,0,0
41499.3,74.4651,-2852.84,0,0
41759.6,74.4726,-2834.5,0,0
42020,73.7283,-2817.02,0,0
42280.275,73.5569,-2798.99,0,0
42540.6,73.3405,-2781.68,0,0
42800.925,73.0176,-2764.49,0,0
43061.25,72.7636,-2747.44,0,0
43321.575,72.01,-2730.53,0,0
43581.9,71.7635,-2713.08,0,0
43842.225,71.6547,-2696.09,0,0
44102.55,71.8891,-2679.73,0,0
44362.875,71.9292,-2664.06,0,0
44623.2,71.3895,-2648.2,0,0
44883.525,71.0076,-2632.3,0,0
45143.85,70.8315,-2616.69,0,0
45404.175,70.6669,-2601.24,0,0
45664.5,70.0184,-2585.5,0,0
45924.825,71.001,-2569.98,0,0
46185.15,70.4709,-2556.12,0,0
46445.475,70.1914,-2541.09,0,0
46705.8,69.7679,-2525.94,0,0
46966.125,70.0386,-2511.45,0,0
47226.45,69.6255,-2497.4,0,0
47486.775,69.3219,-2482.7,0,0
47747.1,69.9234,-2468.3,0,0
48007.425,70.6738,-2455.52,0,0
48267.75,70.4621,-2442.59,0,0
48528.075,69.4727,-2429.52,0,0
48788.4,69.3762,-2416.06,0,0
49048.725,68.6453,-2403.06,0,0
49309.05,67.8213,-2389.68,0,0
49569.375,67.8554,-2376.49,0,0
49829.7,67.6652,-2363.51,0,0
50090.025,67.1558,-2350.91,0,0
50350.35,66.6613,-2338.13,0,0
50610.675,66.4918,-2324.96,0,0
50871.0,66.3981,-2312.51,0,0
51131.325,66.2658,-2299.95,0,0
51391.65,66.118,-2287.54,0,0
51651.975,66.1905,-2275.3,0,0
51912.3,66.1954,-2263.36,0,0
52172.625,66.018,-2251.54,0,0
52432.95,66.0063,-2239.34,0,0
52693.275,66.2704,-2227.44,0,0
52953.6,66.5874,-2215.64,0,0
53213.925,67.1789,-2203.96,0,0
53474.25,68.0049,-2193.27,0,0
53734.575,68.0913,-2182.52,0,0
53994.9,68.3958,-2171.62,0,0
54255.225,69.1704,-2160.93,0,0
54515.55,70.103,-2151.36,0,0
54775.875,69.7563,-2142.54,0,0
55036.2,68.6139,-2132.53,0,0
55296.525,68.2196,-2122.89,0,0
55556.85,66.8632,-2113.44,0,0
55817.175,65.075,-2103.03,0,0
56077.5,64.3085,-2092.43,0,0
56337.825,63.4371,-2081.85,0,0
56598.15,62.5643,-2071.28,0,0
56858.475,61.7319,-2060.74,0,0
57118.8,61.2816,-2049.75,0,0
57379.125,61.1594,-2039.23,0,0
57639.45,61.1901,-2028.84,0,0
57899.775,61.3026,-2018.79,0,0
58160.1,61.1787,-2008.71,0,0
58420.4,61.1795,-1998.9,0,0
58680.7,61.1346,-1988.75,0,0
58941.1,61.3168,-1979.04,0,0
59201.4,61.4634,-1969.25,0,0
59461.7,61.786,-1959.58,0,0
59722,62.0624,-1950.1,0,0
59982.4,62.1687,-1940.65,0,0
60242.7,62.4785,-1931.44,0,0
60503,62.6692,-1922.15,0,0
60763.3,63.087,-1912.79,0,0
61023.7,63.5248,-1903.88,0,0
61284,63.8717,-1894.83,0,0
61544.3,64.3847,-1885.67,0,0
61804.6,64.9359,-1877.19,0,0
62065,65.289,-1868.44,0,0
62325.3,65.6342,-1859.54,0,0
62585.6,66.2526,-1850.74,0,0
62845.9,66.7771,-1841.88,0,0
63106.3,67.9197,-1833.11,0,0
63366.6,68.8405,-1824.77,0,0
63626.9,69.7027,-1815.87,0,0
63887.2,71.4276,-1807.39,0,0
64147.6,72.9528,-1799.14,0,0
64407.9,74.8024,-1791.02,0,0
64668.2,77.2669,-1782.75,0,0
64928.5,80.1767,-1775.63,0,0
65188.9,84.4535,-1769.21,0,0
65449.2,87.0547,-1765.11,0,0
65709.5,88.7287,-1760.72,0,0
65969.8,91.394,-1757.28,0,0
66230.2,91.6477,-1756.97,0,0
66490.5,86.8204,-1755.42,0,0
66750.8,81.3558,-1749.52,0,0
67011.1,77.5459,-1740.34,0,0
67271.5,76.5047,-1732.22,0,0
67531.8,74.7115,-1724.37,0,0
67792.1,74.8002,-1715.8,0,0
68052.4,74.9408,-1708.08,0,0
68312.8,75.8203,-1700.85,0,0
68573.1,76.4503,-1694.9,0,0
68833.4,76.3965,-1688.79,0,0
69093.7,76.4922,-1682.24,0,0
69354.1,76.9034,-1676.56,0,0
69614.4,76.6635,-1671.17,0,0
69874.7,76.0012,-1665.55,0,0
70135,75.0261,-1660.11,0,0
70395.4,73.9071,-1654,0,0
70655.7,73.0454,-1647.93,0,0
70916,71.8562,-1641.8,0,0
71176.3,70.7079,-1635.33,0,0
71436.7,69.9148,-1628.69,0,0
71697,69.235,-1621.87,0,0
71957.3,69.0566,-1614.93,0,0
72217.6,69.185,-1608.71,0,0
72478,69.2305,-1602.51,0,0
72738.3,69.2601,-1596.71,0,0
72998.6,69.141,-1591.18,0,0
73258.9,68.6127,-1585.59,0,0
73519.3,68.0136,-1579.91,0,0
73779.6,67.6449,-1574.19,0,0
74039.9,67.1063,-1568.68,0,0
74300.225,66.2935,-1563.12,0,0
74560.55,65.6104,-1557.35,0,0
74820.875,64.8278,-1551.66,0,0
75081.2,64.1031,-1545.88,0,0
75341.525,63.2919,-1540.09,0,0
75601.85,62.5846,-1534.33,0,0
75862.175,61.8738,-1528.52,0,0
76122.5,61.1825,-1522.57,0,0
76382.825,60.5699,-1516.72,0,0
76643.15,60.0401,-1510.79,0,0
76903.475,59.5305,-1505.01,0,0
77163.8,59.0786,-1499.23,0,0
77424.125,58.6365,-1493.5,0,0
77684.45,58.1113,-1487.83,0,0
77944.775,57.6177,-1482.08,0,0
78205.1,57.0846,-1476.36,0,0
78465.425,56.6802,-1470.69,0,0
78725.75,56.242,-1464.96,0,0
78986.075,55.8865,-1459.29,0,0
79246.4,55.498,-1453.67,0,0
79506.725,55.114,-1448.04,0,0
79767.05,54.888,-1442.49,0,0
80027.375,54.5654,-1436.85,0,0
80287.7,54.3874,-1431.35,0,0
80548.025,54.1631,-1425.86,0,0
80808.35,53.8767,-1420.31,0,0
81068.675,53.7648,-1414.94,0,0
81329.0,53.5335,-1409.49,0,0
81589.325,53.2993,-1404.1,0,0
81849.65,53.2063,-1398.72,0,0
82109.975,53.1327,-1393.45,0,0
82370.3,52.9063,-1388.2,0,0
82630.625,52.8612,-1382.9,0,0
82890.95,52.823,-1377.64,0,0
83151.275,52.7409,-1372.47,0,0
83411.6,52.6789,-1367.31,0,0
83671.925,52.6081,-1362.26,0,0
83932.25,52.5719,-1357.04,0,0
84192.575,52.5421,-1352.05,0,0
84452.9,52.4543,-1347,0,0
84713.225,52.4068,-1341.95,0,0
84973.55,52.3817,-1336.91,0,0
85233.875,52.4315,-1331.88,0,0
85494.2,52.4887,-1326.95,0,0
85754.525,52.5027,-1322.05,0,0
86014.85,52.4711,-1317.15,0,0
86275.175,52.5562,-1312.37,0,0
86535.5,52.5775,-1307.52,0,0
86795.825,52.6405,-1302.72,0,0
87056.15,52.6857,-1297.81,0,0
87316.475,52.8038,-1293,0,0
87576.8,52.844,-1288.17,0,0
87837.125,52.9794,-1283.43,0,0
88097.45,53.2146,-1278.69,0,0
88357.775,53.354,-1274.02,0,0
88618.1,53.4568,-1269.23,0,0
88878.425,53.6466,-1264.44,0,0
89138.75,53.9733,-1259.64,0,0
89399.075,54.4226,-1254.96,0,0
89659.4,54.951,-1250.36,0,0
89919.725,55.4144,-1245.8,0,0
90180,55.9197,-1241.55,0,0
90440.4,56.307,-1237.33,0,0
90700.7,56.8957,-1232.91,0,0
90961,57.2256,-1228.71,0,0
91221.3,57.6951,-1224.39,0,0
91481.7,58.3183,-1220.12,0,0
91742,58.928,-1216.1,0,0
92002.3,59.4131,-1212.12,0,0
92262.6,60.0317,-1208.02,0,0
92523,60.8023,-1204.21,0,0
92783.3,61.4937,-1200.59,0,0
93043.6,62.0476,-1196.9,0,0
93303.9,62.835,-1193.37,0,0
93564.3,63.6018,-1190.2,0,0
93824.6,64.0722,-1187.22,0,0
94084.9,64.443,-1184.4,0,0
94345.2,64.3254,-1181.64,0,0
94605.6,64.2166,-1178.82,0,0
94865.9,63.9239,-1176.33,0,0
95126.2,62.5743,-1174.02,0,0
95386.5,60.6787,-1170.46,0,0
95646.9,59.3146,-1166.11,0,0
95907.2,58.6046,-1161.69,0,0
96167.5,58.0827,-1157.43,0,0
96427.8,57.694,-1153.05,0,0
96688.2,57.6246,-1148.67,0,0
96948.5,57.7277,-1144.64,0,0
97208.8,57.6126,-1140.69,0,0
97469.1,57.6661,-1136.72,0,0
97729.5,57.6459,-1132.9,0,0
97989.8,57.6428,-1129.13,0,0
98250.1,57.5062,-1125.34,0,0
98510.4,57.5041,-1121.54,0,0
98770.8,57.4982,-1117.77,0,0
99031.1,57.4457,-1114.11,0,0
99291.4,57.2574,-1110.57,0,0
99551.7,56.9409,-1106.85,0,0
99812.1,56.6966,-1103.02,0,0
100072,56.6096,-1099.16,0,0
100333,56.4089,-1095.35,0,0
100593,56.2502,-1091.48,0,0
100853,56.0551,-1087.46,0,0
101114,55.9774,-1083.43,0,0
101374,55.9423,-1079.37,0,0
101634,56.0882,-1075.23,0,0
101895,56.3222,-1071.16,0,0
102155,56.6506,-1067.07,0,0
102415,57.0459,-1062.92,0,0
102676,57.8564,-1058.8,0,0
102936,58.9118,-1055.11,0,0
103196,59.7494,-1051.75,0,0
103457,60.3546,-1048.47,0,0
103717,60.9488,-1045.06,0,0
103977,61.7185,-1041.56,0,0
104238,62.818,-1038.34,0,0
104498,63.8972,-1035.73,0,0
104758,64.5467,-1033.55,0,0
105019,64.6107,-1031.22,0,0
105279,64.4734,-1028.59,0,0
105539,64.4287,-1025.91,0,0
105800,64.3528,-1023.34,0,0
106060,64.0888,-1020.83,0,0
106320.175,63.5102,-1018.11,0,0
106580.5,62.9066,-1015.13,0,0
106840.825,62.3708,-1012.13,0,0
107101.15,61.7197,-1009.07,0,0
107361.475,61.0662,-1005.81,0,0
107621.8,60.476,-1002.28,0,0
107882.125,60.0099,-998.783,0,0
108142.45,59.6349,-995.217,0,0
108402.775,59.264,-991.659,0,0
108663.1,58.9388,-988.131,0,0
108923.425,58.6365,-984.426,0,0
109183.75,58.3608,-980.593,0,0
109444.075,58.3178,-976.757,0,0
109704.4,58.4885,-972.992,0,0
109964.725,58.5665,-969.307,0,0
110225.05,58.6707,-965.569,0,0
110485.375,58.8703,-961.8,0,0
110745.7,59.2798,-957.954,0,0
111006.025,59.9227,-954.248,0,0
111266.35,60.7253,-950.941,0,0
111526.675,61.0027,-947.783,0,0
111787.0,61.4134,-944.335,0,0
112047.325,61.8844,-941.093,0,0
112307.65,62.3487,-937.872,0,0
112567.975,62.8141,-934.721,0,0
112828.3,63.1168,-931.639,0,0
113088.625,63.3604,-928.38,0,0
113348.95,63.7162,-925.164,0,0
113609.275,64.1068,-922.011,0,0
113869.6,64.3673,-918.76,0,0
114129.925,64.7137,-915.489,0,0
114390.25,65.0508,-912.273,0,0
114650.575,65.3145,-908.95,0,0
114910.9,65.7346,-905.506,0,0
115171.225,66.2397,-902.067,0,0
115431.55,66.8981,-898.726,0,0
115691.875,67.5162,-895.448,0,0
115952.2,68.1965,-892.119,0,0
116212.525,68.9418,-888.866,0,0
116472.85,69.6746,-885.495,0,0
116733.175,70.6864,-882.124,0,0
116993.5,71.789,-879.075,0,0
117253.825,72.7018,-876.144,0,0
117514.15,73.4639,-873.001,0,0
117774.475,74.6096,-869.548,0,0
118034.8,76.3144,-866.431,0,0
118295.125,77.9633,-863.759,0,0
118555.45,79.6417,-861.384,0,0
118815.775,81.0439,-859.405,0,0
119076.1,82.0023,-857.236,0,0
119336.425,83.1569,-854.749,0,0
119596.75,84.9362,-852.452,0,0
119857.075,86.8626,-851.092,0,0
120117.4,87.9847,-850.337,0,0
120377.725,88.4089,-849.51,0,0
120638.05,88.4468,-848.329,0,0
120898.375,88.4054,-846.951,0,0
121158.7,88.2239,-845.49,0,0
121419.025,87.7849,-843.954,0,0
121679.35,87.0753,-842.065,0,0
121939.675,86.3483,-839.63,0,0
122200.0,86.0924,-836.916,0,0
122460,86.032,-834.262,0,0
122721,86.1635,-831.636,0,0
122981,86.311,-829.09,0,0
123241,86.6667,-826.49,0,0
123502,87.1734,-824.175,0,0
123762,87.4798,-822.052,0,0
124022,87.6355,-819.812,0,0
124283,87.883,-817.516,0,0
124543,88.2011,-815.298,0,0
124803,88.5293,-813.182,0,0
125064,88.8242,-811.044,0,0
125324,88.9861,-809.068,0,0
125584,89.1694,-807.045,0,0
125845,89.3133,-805.04,0,0
126105,89.4377,-803.113,0,0
126365,89.4789,-801.291,0,0
126626,89.2837,-799.446,0,0
126886,88.9566,-797.506,0,0
127146,88.6072,-795.325,0,0
127406,88.3922,-793.314,0,0
127667,88.0354,-791.131,0,0
127927,87.6599,-788.876,0,0
128187,87.3383,-786.553,0,0
128448,86.9396,-784.38,0,0
128708,86.3442,-781.977,0,0
128968,85.8382,-779.39,0,0
129229,85.5364,-776.628,0,0
129489,85.3587,-773.925,0,0
129749,85.1292,-771.207,0,0
130010,85.0303,-768.398,0,0
130270,85.1467,-765.534,0,0
130530,85.3564,-762.788,0,0
130791,85.8114,-760.234,0,0
131051,86.207,-758.016,0,0
131311,86.3028,-755.887,0,0
131572,86.2736,-753.669,0,0
131832,86.2092,-751.468,0,0
132092,86.0332,-749.258,0,0
132353,85.7748,-746.902,0,0
132613,85.5354,-744.369,0,0
132873,85.4914,-741.872,0,0
133134,85.4539,-739.519,0,0
133394,85.2998,-737.179,0,0
133654,85.1192,-734.793,0,0
133915,84.8917,-732.378,0,0
134175,84.5833,-729.887,0,0
134435,84.3585,-727.316,0,0
134696,84.1503,-724.868,0,0
134956,83.8149,-722.341,0,0
135216,83.4154,-719.574,0,0
135477,83.2159,-716.77,0,0
135737,83.0902,-714.069,0,0
135997,82.8551,-711.453,0,0
136258,82.5896,-708.647,0,0
136518,82.2894,-705.749,0,0
136778,82.0977,-702.731,0,0
137039,82.117,-699.63,0,0
137299,82.266,-696.679,0,0
137559,82.4546,-693.676,0,0
137819,82.6835,-690.908,0,0
138080,82.83,-688.073,0,0
138340.125,83.1126,-685.203,0,0
138600.45,83.5702,-682.549,0,0
138860.775,83.8294,-680.219,0,0
139121.1,83.7335,-677.834,0,0
139381.425,83.549,-675.2,0,0
139641.75,83.4198,-672.518,0,0
139902.075,83.216,-669.785,0,0
140162.4,83.0088,-666.863,0,0
140422.725,82.9578,-663.838,0,0
140683.05,83.062,-660.871,0,0
140943.375,83.148,-658.089,0,0
141203.7,83.0746,-655.321,0,0
141464.025,82.9327,-652.452,0,0
141724.35,82.7161,-649.478,0,0
141984.675,82.5303,-646.394,0,0
142245.0,82.4046,-643.208,0,0
142505.325,82.3849,-639.974,0,0
142765.65,82.3499,-636.783,0,0
143025.975,82.2721,-633.484,0,0
143286.3,82.265,-630.087,0,0
143546.625,82.2909,-626.701,0,0
143806.95,82.3803,-623.179,0,0
144067.275,82.5578,-619.632,0,0
144327.6,82.829,-616.109,0,0
144587.925,83.082,-612.592,0,0
144848.25,83.3897,-608.993,0,0
145108.575,83.7814,-605.369,0,0
145368.9,84.1632,-601.773,0,0
145629.225,84.5979,-598.139,0,0
145889.55,85.0327,-594.438,0,0
146149.875,85.4857,-590.652,0,0
146410.2,86.0748,-586.802,0,0
146670.525,86.7327,-582.937,0,0
146930.85,87.4727,-579.039,0,0
147191.175,88.2852,-575.125,0,0
147451.5,89.1589,-571.19,0,0
147711.825,90.0945,-567.194,0,0
147972.15,91.18,-563.126,0,0
148232.475,92.4131,-559.137,0,0
148492.8,93.6472,-555.229,0,0
148753.125,94.8687,-551.227,0,0
149013.45,96.2155,-547.147,0,0
149273.775,97.6594,-543.03,0,0
149534.1,99.2273,-538.851,0,0
149794.425,101.026,-534.556,0,0
150054.75,103.138,-530.347,0,0
150315.075,105.455,-526.338,0,0
150575.4,107.842,-522.496,0,0
150835.725,110.333,-518.784,0,0
151096.05,112.93,-515.267,0,0
151356.375,115.518,-511.904,0,0
151616.7,118.133,-508.69,0,0
151877.025,120.7,-505.599,0,0
152137.35,123.257,-502.593,0,0
152397.675,125.866,-499.655,0,0
152658.0,128.476,-496.943,0,0
152918.325,130.975,-494.32,0,0
153178.65,133.451,-491.893,0,0
153438.975,135.607,-489.604,0,0
153699.3,137.499,-487.093,0,0
153959.625,139.525,-484.457,0,0
154219.95,141.55,-481.892,0,0
154480,143.57,-479.425,0,0
154741,145.18,-477.096,0,0
155001,146.359,-474.358,0,0
155261,147.597,-470.938,0,0
155522,149.507,-466.944,0,0
155782,152.156,-463.497,0,0
156042,154.677,-460.63,0,0
156303,156.683,-457.791,0,0
156563,158.497,-454.378,0,0
156823,160.765,-450.524,0,0
157084,163.661,-446.748,0,0
157344,166.968,-443.233,0,0
157604,170.472,-440.443,0,0
157864,173.698,-438.095,0,0
158125,176.537,-435.854,0,0
158385,179.295,-433.805,0,0
158645,181.487,-432.135,0,0
158906,182.674,-430.25,0,0
159166,183.399,-427.132,0,0
159426,184.724,-423.049,0,0
159687,186.327,-419.173,0,0
159947,187.481,-414.777,0,0
160207,189.241,-409.17,0,0
160468,192.164,-403.318,0,0
160728,195.612,-397.326,0,0
160988,200.246,-391.391,0,0
161249,205.618,-386.484,0,0
161509,210.288,-382.258,0,0
161769,214.764,-377.188,0,0
162030,220.24,-371.343,0,0
162290,227.025,-366.087,0,0
162550,233.986,-361.679,0,0
162811,241.202,-357.607,0,0
163071,248.599,-353.729,0,0
163331,256.461,-350.201,0,0
163592,264.315,-346.784,0,0
163852,273.039,-343.573,0,0
164112,282.426,-341.056,0,0
164373,291.919,-339.513,0,0
164633,301.032,-338.158,0,0
164893,310.814,-336.6,0,0
165154,322.173,-335.685,0,0
165414,334.377,-337.129,0,0
165674,345.469,-340.696,0,0
165935,355.019,-344.589,0,0
166195,364.783,-348.298,0,0
166455,374.825,-353.572,0,0
166716,383.451,-360.202,0,0
166976,390.82,-366.782,0,0
167236,397.787,-373.664,0,0
167497,403.796,-380.828,0,0
167757,409.288,-387.945,0,0
168017,414.513,-395.219,0,0
168277,419.367,-403.278,0,0
168538,422.536,-412.158,0,0
168798,424.26,-420.158,0,0
169058,425.59,-427.278,0,0
169319,427.351,-433.78,0,0
169579,429.614,-441.635,0,0
169839,429.786,-451.083,0,0
170100,427.058,-459.672,0,0
170360.075,423.166,-465.797,0,0
170620.4,419.524,-470.179,0,0
170880.725,416.384,-473.775,0,0
171141.05,413.18,-476.784,0,0
171401.375,409.885,-478.63,0,0
171661.7,407.438,-479.252,0,0
171922.025,406.319,-479.705,0,0
172182.35,405.51,-480.497,0,0
172442.675,405.151,-481.122,0,0
172703.0,404.793,-481.997,0,0
172963.325,404.666,-482.012,0,0
173223.65,406.065,-481.711,0,0
173483.975,408.691,-482.818,0,0
173744.3,410.596,-485.423,0,0
174004.625,411.848,-487.961,0,0
174264.95,413.292,-490.108,0,0
174525.275,415.587,-493.161,0,0
174785.6,417.203,-497.741,0,0
175045.925,417.576,-502.433,0,0
175306.25,417.269,-506.844,0,0
175566.575,416.952,-511.104,0,0
175826.9,416.156,-516.048,0,0
176087.225,414.104,-521.005,0,0
176347.55,411.149,-525.159,0,0
176607.875,408.192,-528.267,0,0
176868.2,405.766,-531.393,0,0
177128.525,402.781,-535.158,0,0
177388.85,398.619,-538.583,0,0
177649.175,393.938,-541.024,0,0
177909.5,389.188,-543.041,0,0
178169.825,383.582,-544.635,0,0
178430.15,377.241,-544.463,0,0
178690.475,371.826,-542.472,0,0
178950.8,367.661,-539.787,0,0
179211.125,364.584,-536.806,0,0
179471.45,362.352,-534.177,0,0
179731.775,360.129,-531.702,0,0
179992.1,358.264,-528.594,0,0
180252.425,357.606,-525.175,0,0
180512.75,358.033,-522.426,0,0
180773.075,359.004,-520.541,0,0
181033.4,359.835,-519.638,0,0
181293.725,360.239,-518.905,0,0
181554.05,360.93,-518.11,0,0
181814.375,362.08,-517.914,0,0
182074.7,363.408,-519.146,0,0
182335.025,363.385,-521.687,0,0
182595.35,361.366,-523.942,0,0
182855.675,358.43,-524.955,0,0
183116.0,355.674,-525.084,0,0
183376.325,353.127,-524.67,0,0
183636.65,350.585,-524.419,0,0
183896.975,347.796,-523.791,0,0
184157.3,344.853,-522.833,0,0
184417.625,341.853,-521.379,0,0
184677.95,339.001,-519.461,0,0
184938.275,336.408,-517.375,0,0
185198.6,333.671,-515.082,0,0
185458.925,330.972,-512.243,0,0
185719.25,328.487,-509.045,0,0
185979.575,326.161,-505.48,0,0
186239.9,324.04,-501.401,0,0
186500,322.381,-496.695,0,0
186761,321.599,-491.608,0,0
187021,321.775,-486.528,0,0
187281,322.652,-481.955,0,0
187542,323.711,-477.973,0,0
187802,324.911,-474.168,0,0
188062,326.22,-470.538,0,0
188322,327.755,-467.093,0,0
188583,329.571,-464.005,0,0
188843,331.237,-461.568,0,0
189103,332.176,-459.251,0,0
189364,332.816,-456.347,0,0
189624,333.726,-452.954,0,0
189884,335.178,-449.315,0,0
190145,337.287,-445.941,0,0
190405,339.519,-443.072,0,0
190665,341.6,-440.581,0,0
190926,343.391,-438.116,0,0
191186,345.186,-435.442,0,0
191446,347.03,-432.787,0,0
191707,348.841,-430.073,0,0
191967,350.684,-427.2,0,0
192227,352.782,-424.218,0,0
192488,354.993,-421.359,0,0
192748,357.087,-418.454,0,0
193008,359.109,-415.266,0,0
193269,361.402,-411.544,0,0
193529,364.3,-407.614,0,0
193789,367.714,-403.719,0,0
194050,371.537,-399.902,0,0
194310,375.829,-395.94,0,0
194570,381.141,-392.06,0,0
194831,387.397,-388.879,0,0
195091,394.187,-386.707,0,0
195351,401.024,-385.826,0,0
195612,407.301,-385.746,0,0
195872,412.93,-386.137,0,0
196132,418.413,-386.513,0,0
196393,423.878,-387.182,0,0
196653,429.447,-388.233,0,0
196913,435.035,-390.348,0,0
197174,439.455,-393.508,0,0
197434,442.368,-396.797,0,0
197694,444.166,-398.689,0,0
197955,446.429,-399.521,0,0
198215,449.397,-400.58,0,0
198475,452.188,-402.265,0,0
198735,454.213,-404.218,0,0
198996,455.221,-405.589,0,0
199256,456.234,-405.601,0,0
199516,458.24,-405.074,0,0
199777,461.038,-404.935,0,0
200037,463.979,-405.732,0,0
200297,465.938,-407.09,0,0
200558,466.879,-407.856,0,0
200818,467.543,-407.627,0,0
201078,468.626,-406.379,0,0
201339,470.513,-404.76,0,0
201599,472.864,-403.151,0,0
201859,475.478,-401.631,0,0
202120,478.184,-399.816,0,0
202380.025,481.369,-397.507,0,0
202640.35,485.611,-395.018,0,0
202900.675,490.769,-393.085,0,0
203161.0,496.327,-391.746,0,0
203421.325,502.12,-390.906,0,0
203681.65,508.343,-390.481,0,0
203941.975,514.829,-390.902,0,0
204202.3,521.197,-392.099,0,0
204462.625,527.379,-393.725,0,0
204722.95,533.309,-395.749,0,0
204983.275,539.194,-398.183,0,0
205243.6,544.832,-401.292,0,0
205503.925,549.897,-404.957,0,0
205764.25,554.099,-409.116,0,0
206024.575,557.277,-413.204,0,0
206284.9,559.389,-416.825,0,0
206545.225,560.74,-419.177,0,0
206805.55,562.527,-420.22,0,0
207065.875,565.089,-420.566,0,0
207326.2,568.388,-420.73,0,0
207586.525,572.441,-420.799,0,0
207846.85,577.204,-421.163,0,0
208107.175,582.312,-421.931,0,0
208367.5,587.638,-422.737,0,0
208627.825,593.549,-423.834,0,0
208888.15,599.897,-425.455,0,0
209148.475,606.47,-427.593,0,0
209408.8,613.267,-430.23,0,0
209669.125,620.259,-433.589,0,0
209929.45,627.176,-437.589,0,0
210189.775,633.865,-442.347,0,0
210450.1,640.106,-447.383,0,0
210710.425,646.173,-452.771,0,0
210970.75,651.945,-458.505,0,0
211231.075,657.409,-464.398,0,0
211491.4,662.779,-470.527,0,0
211751.725,668.008,-476.88,0,0
212012.05,672.963,-483.518,0,0
212272.375,677.666,-490.458,0,0
212532.7,682.099,-497.595,0,0
212793.025,686.355,-504.746,0,0
213053.35,690.538,-512.149,0,0
213313.675,694.569,-519.89,0,0
213574.0,698.406,-527.984,0,0
213834.325,701.925,-536.495,0,0
214094.65,704.696,-545.277,0,0
214354.975,707.082,-554.084,0,0
214615.3,708.99,-562.501,0,0
214875.625,711.098,-570.954,0,0
215135.95,713.366,-579.858,0,0
215396.275,714.984,-589.325,0,0
215656.6,715.99,-598.764,0,0
215916.925,716.659,-608.188,0,0
216177.25,717.114,-617.777,0,0
216437.575,717.375,-627.623,0,0
216697.9,717.137,-637.791,0,0
216958.225,715.9,-648.311,0,0
217218.55,713.616,-658.451,0,0
217478.875,710.737,-667.85,0,0
217739.2,707.802,-676.845,0,0
217999.525,704.72,-685.584,0,0
218259.85,701.414,-694.115,0,0
218520,697.992,-702.709,0,0
218780,694.166,-711.086,0,0
219041,689.686,-719.3,0,0
219301,684.758,-726.457,0,0
219561,680.05,-732.974,0,0
219822,675.972,-739.046,0,0
220082,672.647,-745.127,0,0
220342,669.822,-751.954,0,0
220603,666.769,-759.797,0,0
220863,663.03,-768.356,0,0
221123,657.924,-777.163,0,0
221384,651.835,-785.542,0,0
221644,645.059,-793.142,0,0
221904,638.171,-800.2,0,0
222165,630.865,-807.121,0,0
222425,622.928,-813.793,0,0
222685,614.675,-819.649,0,0
222946,606.019,-825.039,0,0
223206,596.806,-829.852,0,0
223466,587.167,-833.77,0,0
223727,577.417,-836.391,0,0
223987,568.029,-837.78,0,0
224247,559.426,-838.382,0,0
224508,551.551,-838.318,0,0
224768,544.27,-837.831,0,0
225028,537.698,-836.99,0,0
225289,532.001,-835.912,0,0
225549,527.289,-834.975,0,0
225809,523.345,-834.356,0,0
226070,519.874,-834.239,0,0
226330,516.91,-834.872,0,0
226590,513.757,-836.117,0,0
226851,510.443,-837.804,0,0
227111,507.092,-839.895,0,0
227371,503.332,-842.251,0,0
227632,499.196,-844.89,0,0
227892,494.539,-847.378,0,0
228152,489.591,-849.884,0,0
228413,484.465,-852.129,0,0
228673,479.239,-854.27,0,0
228933,473.684,-856.357,0,0
229193,467.884,-858.093,0,0
229454,462.001,-859.573,0,0
229714,456.078,-860.688,0,0
229974,450.233,-861.645,0,0
230235,444.388,-862.333,0,0
230495,438.697,-862.858,0,0
230755,432.735,-863.341,0,0
231016,426.713,-863.505,0,0
231276,420.92,-863.297,0,0
231536,415.465,-862.825,0,0
231797,410.047,-862.358,0,0
232057,404.71,-861.802,0,0
232317,399.583,-861.158,0,0
232578,394.503,-860.455,0,0
232838,389.612,-859.748,0,0
233098,384.715,-858.979,0,0
233359,379.842,-858.15,0,0
233619,375.086,-857.17,0,0
233879,370.482,-856.152,0,0
234140,366.103,-855.36,0,0
234400,361.587,-854.565,0,0
234660.3,357.039,-853.681,0,0
234920.625,352.412,-852.602,0,0
235180.95,347.952,-851.768,0,0
235441.275,343.578,-850.869,0,0
235701.6,339.048,-850.147,0,0
235961.925,334.274,-849.459,0,0
236222.25,329.341,-848.374,0,0
236482.575,324.194,-847.181,0,0
236742.9,319.058,-845.575,0,0
237003.225,314.14,-843.734,0,0
237263.55,309.459,-841.759,0,0
237523.875,304.807,-839.887,0,0
237784.2,300.083,-837.95,0,0
238044.525,295.263,-835.785,0,0
238304.85,290.448,-833.462,0,0
238565.175,285.722,-830.83,0,0
238825.5,280.935,-827.878,0,0
239085.825,276.488,-824.571,0,0
239346.15,272.228,-821.22,0,0
239606.475,268.234,-817.593,0,0
239866.8,264.677,-813.871,0,0
240127.125,261.352,-810.02,0,0
240387.45,258.278,-806.341,0,0
240647.775,255.465,-802.834,0,0
240908.1,252.666,-799.265,0,0
241168.425,249.975,-795.749,0,0
241428.75,247.487,-792.121,0,0
241689.075,245.089,-788.578,0,0
241949.4,242.779,-784.998,0,0
242209.725,240.648,-781.22,0,0
242470.05,238.902,-777.417,0,0
242730.375,237.415,-773.886,0,0
242990.7,236.028,-770.496,0,0
243251.025,234.631,-767.142,0,0
243511.35,233.522,-763.882,0,0
243771.675,232.574,-760.68,0,0
244032.0,231.785,-757.586,0,0
244292.325,230.934,-754.997,0,0
244552.65,230.218,-752.389,0,0
244812.975,229.345,-749.986,0,0
245073.3,228.457,-747.593,0,0
245333.625,227.606,-745.162,0,0
245593.95,226.63,-742.893,0,0
245854.275,225.711,-740.641,0,0
246114.6,224.738,-738.4,0,0
246374.925,223.689,-736.109,0,0
246635.25,222.721,-733.807,0,0
246895.575,221.719,-731.528,0,0
247155.9,220.803,-729.22,0,0
247416.225,219.937,-726.928,0,0
247676.55,219.049,-724.51,0,0
247936.875,218.292,-722.169,0,0
248197.2,217.554,-719.73,0,0
248457.525,216.975,-717.26,0,0
248717.85,216.645,-714.717,0,0
248978.175,216.473,-712.367,0,0
249238.5,216.55,-710.244,0,0
249498.825,216.615,-708.38,0,0
249759.15,216.688,-706.788,0,0
250019.475,216.628,-705.405,0,0
250279.8,216.531,-704.094,0,0
250540,216.172,-703.076,0,0
250800,215.636,-702.028,0,0
251061,214.931,-701.104,0,0
251321,214.045,-700.113,0,0
251581,212.92,-699.065,0,0
251842,211.599,-697.918,0,0
252102,210.136,-696.644,0,0
252362,208.538,-695.169,0,0
252623,206.794,-693.472,0,0
252883,205.045,-691.448,0,0
253143,203.394,-689.208,0,0
253404,201.8,-686.722,0,0
253664,200.289,-683.908,0,0
253924,199.024,-680.952,0,0
254185,198.073,-677.869,0,0
254445,197.282,-674.679,0,0
254705,196.811,-671.457,0,0
254966,196.408,-668.211,0,0
255226,196.207,-664.968,0,0
255486,196.25,-661.637,0,0
255747,196.518,-658.163,0,0
256007,197.135,-654.719,0,0
256267,198.097,-651.331,0,0
256528,199.45,-648.138,0,0
256788,201.011,-645.233,0,0
257048,202.729,-642.563,0,0
257309,204.595,-640.16,0,0
257569,206.572,-638.04,0,0
257829,208.562,-636.218,0,0
258090,210.505,-634.64,0,0
258350,212.301,-633.273,0,0
258610,213.878,-631.899,0,0
258871,215.49,-630.436,0,0
259131,217.196,-628.774,0,0
259391,219.199,-627.145,0,0
259651,221.583,-625.585,0,0
259912,224.273,-624.322,0,0
260172,227.169,-623.584,0,0
260432,230.076,-623.245,0,0
260693,232.929,-623.18,0,0
260953,235.742,-623.407,0,0
261213,238.819,-623.914,0,0
261474,241.844,-624.982,0,0
261734,244.793,-626.648,0,0
261994,247.323,-628.914,0,0
262255,249.351,-631.581,0,0
262515,250.86,-634.486,0,0
262775,251.776,-637.544,0,0
263036,252.223,-640.608,0,0
263296,252.191,-643.548,0,0
263556,251.862,-646.456,0,0
263817,251.163,-649.239,0,0
264077,250.181,-651.996,0,0
264337,248.792,-654.654,0,0
264598,247.08,-657.141,0,0
264858,245.015,-659.436,0,0
265118,242.632,-661.427,0,0
265379,239.971,-663.191,0,0
265639,237.163,-664.587,0,0
265899,234.158,-665.638,0,0
266160,231.038,-666.31,0,0
266420,227.903,-666.56,0,0
266680.25,224.792,-666.542,0,0
266940.575,221.641,-666.171,0,0
267200.9,218.603,-665.442,0,0
267461.225,215.751,-664.384,0,0
267721.55,213.074,-663.039,0,0
267981.875,210.692,-661.587,0,0
268242.2,208.467,-659.976,0,0
268502.525,206.414,-658.246,0,0
268762.85,204.581,-656.41,0,0
269023.175,202.918,-654.494,0,0
269283.5,201.549,-652.471,0,0
269543.825,200.314,-650.532,0,0
269804.15,199.272,-648.589,0,0
270064.475,198.402,-646.795,0,0
270324.8,197.497,-644.937,0,0
270585.125,196.745,-643.069,0,0
270845.45,195.98,-641.191,0,0
271105.775,195.543,-639.195,0,0
271366.1,195.23,-637.383,0,0
271626.425,195.027,-635.588,0,0
271886.75,194.805,-633.816,0,0
272147.075,194.909,-632.104,0,0
272407.4,195.068,-630.586,0,0
272667.725,195.272,-629.263,0,0
272928.05,195.389,-628.052,0,0
273188.375,195.418,-626.965,0,0
273448.7,195.285,-625.769,0,0
273709.025,195.109,-624.456,0,0
273969.35,195.03,-623.096,0,0
274229.675,195.029,-621.614,0,0
274490.0,195.102,-620.038,0,0
274750.325,195.43,-618.456,0,0
275010.65,195.925,-616.882,0,0
275270.975,196.467,-615.304,0,0
275531.3,197.304,-613.837,0,0
275791.625,198.282,-612.426,0,0
276051.95,199.48,-611.097,0,0
276312.275,200.91,-609.975,0,0
276572.6,202.435,-609.063,0,0
276832.925,204.147,-608.43,0,0
277093.25,205.92,-608.112,0,0
277353.575,207.721,-608.131,0,0
277613.9,209.426,-608.5,0,0
277874.225,210.985,-609.149,0,0
278134.55,212.383,-610.009,0,0
278394.875,213.655,-611.09,0,0
278655.2,214.734,-612.41,0,0
278915.525,215.539,-613.978,0,0
279175.85,215.953,-615.675,0,0
279436.175,216.072,-617.337,0,0
279696.5,215.882,-619.033,0,0
279956.825,215.528,-620.631,0,0
280217.15,214.845,-622.144,0,0
280477.475,214.003,-623.602,0,0
280737.8,212.974,-624.875,0,0
280998.125,211.803,-626.018,0,0
281258.45,210.577,-626.97,0,0
281518.775,209.344,-627.785,0,0
281779.1,208.061,-628.587,0,0
282039.425,206.683,-629.357,0,0
282299.75,205.166,-630.053,0,0
282560,203.573,-630.624,0,0
282820,201.84,-631.065,0,0
283081,200.046,-631.302,0,0
283341,198.239,-631.339,0,0
283601,196.502,-631.27,0,0
283862,194.757,-631.081,0,0
284122,193.029,-630.733,0,0
284382,191.365,-630.327,0,0
284643,189.752,-629.849,0,0
284903,188.175,-629.285,0,0
285163,186.621,-628.661,0,0
285424,185.013,-627.936,0,0
285684,183.453,-627.053,0,0
285944,181.894,-626.075,0,0
286205,180.493,-624.937,0,0
286465,179.132,-623.713,0,0
286725,177.901,-622.353,0,0
286986,176.795,-620.881,0,0
287246,175.887,-619.329,0,0
287506,175.212,-617.721,0,0
287767,174.749,-616.094,0,0
288027,174.532,-614.582,0,0
288287,174.523,-613.218,0,0
288548,174.652,-612.006,0,0
288808,174.842,-611.048,0,0
289068,175.057,-610.286,0,0
289329,175.207,-609.71,0,0
289589,175.265,-609.258,0,0
289849,175.22,-608.875,0,0
290109,175.053,-608.58,0,0
290370,174.791,-608.216,0,0
290630,174.532,-607.853,0,0
290890,174.244,-607.55,0,0
291151,173.894,-607.248,0,0
291411,173.453,-606.998,0,0
291671,172.911,-606.706,0,0
291932,172.263,-606.321,0,0
292192,171.553,-605.809,0,0
292452,170.883,-605.142,0,0
292713,170.298,-604.375,0,0
292973,169.79,-603.532,0,0
293233,169.377,-602.67,0,0
293494,169.056,-601.736,0,0
293754,168.859,-600.78,0,0
294014,168.808,-599.795,0,0
294275,168.911,-598.873,0,0
294535,169.174,-598.07,0,0
294795,169.534,-597.363,0,0
295056,170.028,-596.807,0,0
295316,170.548,-596.422,0,0
295576,171.168,-596.219,0,0
295837,171.701,-596.274,0,0
296097,172.187,-596.48,0,0
296357,172.507,-596.851,0,0
296618,172.712,-597.307,0,0
296878,172.802,-597.849,0,0
297138,172.772,-598.472,0,0
297399,172.613,-599.146,0,0
297659,172.322,-599.857,0,0
297919,171.863,-600.592,0,0
298180,171.223,-601.315,0,0
298440,170.462,-601.999,0,0
298700.2,169.558,-602.607,0,0
298960.525,168.574,-603.102,0,0
299220.85,167.555,-603.525,0,0
299481.175,166.447,-603.879,0,0
299741.5,165.32,-604.182,0,0
300001.825,164.144,-604.41,0,0
300262.15,162.926,-604.588,0,0
300522.475,161.692,-604.701,0,0
300782.8,160.408,-604.76,0,0
301043.125,159.096,-604.762,0,0
301303.45,157.742,-604.67,0,0
301563.775,156.361,-604.532,0,0
301824.1,154.985,-604.289,0,0
302084.425,153.584,-603.995,0,0
302344.75,152.186,-603.61,0,0
302605.075,150.803,-603.134,0,0
302865.4,149.434,-602.58,0,0
303125.725,148.127,-601.958,0,0
303386.05,146.867,-601.289,0,0
303646.375,145.635,-600.601,0,0
303906.7,144.435,-599.87,0,0
304167.025,143.262,-599.099,0,0
304427.35,142.094,-598.298,0,0
304687.675,140.968,-597.421,0,0
304948.0,139.921,-596.545,0,0
305208.325,138.874,-595.615,0,0
305468.65,137.893,-594.672,0,0
305728.975,136.931,-593.721,0,0
305989.3,135.999,-592.686,0,0
306249.625,135.141,-591.655,0,0
306509.95,134.33,-590.581,0,0
306770.275,133.601,-589.483,0,0
307030.6,132.959,-588.375,0,0
307290.925,132.406,-587.307,0,0
307551.25,131.909,-586.24,0,0
307811.575,131.486,-585.236,0,0
308071.9,131.135,-584.284,0,0
308332.225,130.828,-583.416,0,0
308592.55,130.564,-582.626,0,0
308852.875,130.264,-581.938,0,0
309113.2,129.969,-581.338,0,0
309373.525,129.594,-580.774,0,0
309633.85,129.182,-580.269,0,0
309894.175,128.71,-579.84,0,0
310154.5,128.17,-579.354,0,0
310414.825,127.544,-578.896,0,0
310675.15,126.898,-578.383,0,0
310935.475,126.187,-577.87,0,0
311195.8,125.463,-577.312,0,0
311456.125,124.717,-576.719,0,0
311716.45,123.953,-576.109,0,0
311976.775,123.155,-575.488,0,0
312237.1,122.305,-574.85,0,0
312497.425,121.4,-574.155,0,0
312757.75,120.458,-573.357,0,0
313018.075,119.513,-572.457,0,0
313278.4,118.587,-571.463,0,0
313538.725,117.707,-570.4,0,0
313799.05,116.873,-569.22,0,0
314059.375,116.125,-567.972,0,0
314319.7,115.452,-566.658,0,0
314580,114.845,-565.259,0,0
314840,114.435,-563.932,0,0
315101,113.978,-562.543,0,0
315361,113.83,-561.121,0,0
315621,113.71,-559.777,0,0
315882,113.689,-558.498,0,0
316142,113.793,-557.236,0,0
316402,113.979,-556.131,0,0
316663,114.146,-555.105,0,0
316923,114.376,-554.067,0,0
317183,114.627,-553.274,0,0
317444,114.878,-552.605,0,0
317704,115.098,-551.816,0,0
317964,115.234,-551.218,0,0
318225,115.43,-550.713,0,0
318485,115.47,-550.167,0,0
318745,115.475,-549.67,0,0
319006,115.57,-549.17,0,0
319266,115.469,-548.644,0,0
319526,115.38,-548.136,0,0
319787,115.332,-547.752,0,0
320047,115.231,-547.182,0,0
320307,115.202,-546.64,0,0
320567,115.154,-546.062,0,0
320828,115.138,-545.471,0,0
321088,115.248,-544.939,0,0
321348,115.228,-544.483,0,0
321609,115.365,-543.981,0,0
321869,115.492,-543.539,0,0
322129,115.65,-543.12,0,0
322390,115.857,-542.807,0,0
322650,115.991,-542.635,0,0
322910,116.203,-542.513,0,0
323171,116.332,-542.456,0,0
323431,116.316,-542.446,0,0
323691,116.352,-542.588,0,0
323952,116.28,-542.689,0,0
324212,116.021,-542.863,0,0
324472,115.804,-543.127,0,0
324733,115.411,-543.218,0,0
324993,114.924,-543.398,0,0
325253,114.452,-543.541,0,0
325514,113.946,-543.669,0,0
325774,113.219,-543.742,0,0
326034,112.555,-543.785,0,0
326295,111.83,-543.821,0,0
326555,111.055,-543.806,0,0
326815,110.222,-543.687,0,0
327076,109.379,-543.565,0,0
327336,108.47,-543.438,0,0
327596,107.535,-543.072,0,0
327857,106.611,-542.719,0,0
328117,105.807,-542.327,0,0
328377,104.935,-541.925,0,0
328638,104.129,-541.478,0,0
328898,103.301,-541.024,0,0
329158,102.505,-540.46,0,0
329419,101.712,-540.023,0,0
329679,100.91,-539.529,0,0
329939,100.133,-539.014,0,0
330200,99.3332,-538.474,0,0
330460,98.5244,-538.041,0,0
330720.15,97.7165,-537.442,0,0
330980.475,96.8927,-536.917,0,0
331240.8,95.9636,-536.352,0,0
331501.125,95.1489,-535.76,0,0
331761.45,94.2375,-535.133,0,0
332021.775,93.3458,-534.516,0,0
332282.1,92.4353,-533.808,0,0
332542.425,91.547,-532.998,0,0
332802.75,90.7226,-532.206,0,0
333063.075,89.7906,-531.405,0,0
333323.4,88.9031,-530.558,0,0
333583.725,88.0395,-529.706,0,0
333844.05,87.1825,-528.827,0,0
334104.375,86.2705,-527.834,0,0
334364.7,85.498,-526.809,0,0
334625.025,84.6649,-525.726,0,0
334885.35,83.8475,-524.697,0,0
335145.675,83.1406,-523.517,0,0
335406.0,82.5289,-522.319,0,0
335666.325,81.8269,-521.132,0,0
335926.65,81.2897,-519.906,0,0
336186.975,80.667,-518.707,0,0
336447.3,80.2255,-517.446,0,0
336707.625,79.7608,-516.177,0,0
336967.95,79.3956,-514.997,0,0
337228.275,78.9966,-513.737,0,0
337488.6,78.6164,-512.549,0,0
337748.925,78.2521,-511.355,0,0
338009.25,77.8583,-510.21,0,0
338269.575,77.6183,-508.987,0,0
338529.9,77.2739,-507.694,0,0
338790.225,77.025,-506.468,0,0
339050.55,76.8328,-505.191,0,0
339310.875,76.6034,-503.822,0,0
339571.2,76.4561,-502.487,0,0
339831.525,76.4049,-501.114,0,0
340091.85,76.4043,-499.742,0,0
340352.175,76.4678,-498.373,0,0
340612.5,76.717,-497.007,0,0
340872.825,76.989,-495.772,0,0
341133.15,77.3311,-494.519,0,0
341393.475,77.6915,-493.442,0,0
341653.8,78.1436,-492.217,0,0
341914.125,78.6064,-491.289,0,0
342174.45,79.1686,-490.343,0,0
342434.775,79.7193,-489.513,0,0
342695.1,80.1937,-488.824,0,0
342955.425,80.7249,-488.133,0,0
343215.75,81.265,-487.551,0,0
343476.075,81.6888,-487.103,0,0
343736.4,82.0328,-486.633,0,0
343996.725,82.3742,-486.256,0,0
344257.05,82.6629,-485.876,0,0
344517.375,82.874,-485.559,0,0
344777.7,83.0665,-485.227,0,0
345038.025,83.1306,-484.916,0,0
345298.35,83.1703,-484.65,0,0
345558.675,83.1413,-484.208,0,0
345819.0,83.0205,-483.897,0,0
346079.325,82.9752,-483.44,0,0
346339.65,82.904,-483.072,0,0
346599.975,82.8239,-482.619,0,0
346860,82.7048,-482.146,0,0
347121,82.6169,-481.607,0,0
347381,82.4737,-481.178,0,0
347641,82.3281,-480.654,0,0
347902,82.2133,-480.073,0,0
348162,82.0398,-479.558,0,0
348422,81.881,-478.937,0,0
348683,81.8268,-478.334,0,0
348943,81.686,-477.632,0,0
349203,81.6123,-476.978,0,0
349464,81.5166,-476.273,0,0
349724,81.5509,-475.536,0,0
349984,81.5809,-474.782,0,0
350245,81.7076,-474.107,0,0
350505,81.8451,-473.45,0,0
350765,82.0939,-472.773,0,0
351025,82.3643,-472.17,0,0
351286,82.6254,-471.647,0,0
351546,82.9747,-471.181,0,0
351806,83.2967,-470.815,0,0
352067,83.5805,-470.537,0,0
352327,83.7915,-470.316,0,0
352587,83.9896,-470.15,0,0
352848,84.1045,-470.045,0,0
353108,84.2234,-469.968,0,0
353368,84.1114,-469.884,0,0
353629,83.9378,-469.851,0,0
353889,83.7607,-469.76,0,0
354149,83.462,-469.615,0,0
354410,83.1513,-469.397,0,0
354670,82.8182,-469.181,0,0
354930,82.3814,-468.924,0,0
355191,81.9788,-468.543,0,0
355451,81.5925,-468.125,0,0
355711,81.1982,-467.649,0,0
355972,80.9029,-467.162,0,0
356232,80.5748,-466.657,0,0
356492,80.2633,-466.159,0,0
356753,79.9194,-465.599,0,0
357013,79.6226,-464.999,0,0
357273,79.333,-464.403,0,0
357534,78.9991,-463.844,0,0
357794,78.7286,-463.236,0,0
358054,78.4954,-462.597,0,0
358315,78.251,-461.925,0,0
358575,78,-461.234,0,0
358835,77.7461,-460.454,0,0
359096,77.6245,-459.78,0,0
359356,77.4864,-459.042,0,0
359616,77.3823,-458.352,0,0
359877,77.3192,-457.635,0,0
360137,77.3666,-456.927,0,0
360397,77.3815,-456.26,0,0
360658,77.3549,-455.589,0,0
360918,77.3758,-454.966,0,0
361178,77.3996,-454.442,0,0
361438,77.3825,-453.789,0,0
361699,77.3948,-453.194,0,0
361959,77.3976,-452.603,0,0
362219,77.3884,-452.041,0,0
362480,77.3393,-451.457,0,0
362740.1,77.351,-450.836,0,0
363000.425,77.4133,-450.22,0,0
363260.75,77.4657,-449.53,0,0
363521.075,77.5399,-448.918,0,0
363781.4,77.7109,-448.276,0,0
364041.725,77.9399,-447.645,0,0
364302.05,78.1392,-447.104,0,0
364562.375,78.4621,-446.572,0,0
364822.7,78.8014,-446.117,0,0
365083.025,79.0558,-445.795,0,0
365343.35,79.3916,-445.551,0,0
365603.675,79.6938,-445.354,0,0
365864.0,79.8794,-445.301,0,0
366124.325,80.0285,-445.276,0,0
366384.65,80.0552,-445.241,0,0
366644.975,79.9595,-445.28,0,0
366905.3,79.7951,-445.286,0,0
367165.625,79.5873,-445.262,0,0
367425.95,79.2088,-445.184,0,0
367686.275,78.7423,-445.014,0,0
367946.6,78.2498,-444.834,0,0
368206.925,77.7283,-444.504,0,0
368467.25,77.1574,-444.125,0,0
368727.575,76.6007,-443.619,0,0
368987.9,75.9957,-442.95,0,0
369248.225,75.4999,-442.194,0,0
369508.55,75.0656,-441.275,0,0
369768.875,74.8959,-440.306,0,0
370029.2,74.7147,-439.35,0,0
370289.525,74.764,-438.367,0,0
370549.85,74.9462,-437.408,0,0
370810.175,75.1944,-436.576,0,0
371070.5,75.5721,-435.892,0,0
371330.825,76.0008,-435.293,0,0
371591.15,76.4143,-434.88,0,0
371851.475,76.8038,-434.561,0,0
372111.8,77.1156,-434.352,0,0
372372.125,77.3244,-434.249,0,0
372632.45,77.4413,-434.157,0,0
372892.775,77.3896,-434.115,0,0
373153.1,77.3214,-434.07,0,0
373413.425,77.1381,-433.969,0,0
373673.75,76.8885,-433.873,0,0
373934.075,76.5332,-433.685,0,0
374194.4,76.1589,-433.375,0,0
374454.725,75.7552,-433.052,0,0
374715.05,75.3504,-432.653,0,0
374975.375,74.9662,-432.179,0,0
375235.7,74.5796,-431.606,0,0
375496.025,74.2575,-431.041,0,0
375756.35,73.9094,-430.391,0,0
376016.675,73.6203,-429.693,0,0
376277.0,73.3491,-428.993,0,0
376537.325,73.1772,-428.209,0,0
376797.65,73.0817,-427.422,0,0
377057.975,73.007,-426.656,0,0
377318.3,73.0178,-425.884,0,0
377578.625,73.0579,-425.139,0,0
377838.95,73.1767,-424.472,0,0
378099.275,73.3017,-423.828,0,0
378359.6,73.4196,-423.2,0,0
378619.925,73.5644,-422.594,0,0
378880,73.7099,-421.97,0,0
379141,73.9142,-421.44,0,0
379401,74.144,-420.948,0,0
379661,74.3174,-420.44,0,0
379922,74.5533,-420.012,0,0
380182,74.7386,-419.608,0,0
380442,74.9127,-419.257,0,0
380703,75.0384,-418.973,0,0
380963,75.1282,-418.566,0,0
381223,75.2696,-418.271,0,0
381483,75.4025,-417.96,0,0
381744,75.4266,-417.659,0,0
382004,75.5818,-417.373,0,0
382264,75.6029,-417.159,0,0
382525,75.6405,-416.873,0,0
382785,75.6685,-416.656,0,0
383045,75.6523,-416.445,0,0
383306,75.538,-416.265,0,0
383566,75.516,-415.991,0,0
383826,75.3695,-415.79,0,0
384087,75.2082,-415.514,0,0
384347,75.0002,-415.261,0,0
384607,74.811,-415.007,0,0
384868,74.589,-414.711,0,0
385128,74.3431,-414.373,0,0
385388,74.0793,-414.006,0,0
385649,73.8187,-413.613,0,0
385909,73.5024,-413.148,0,0
386169,73.2493,-412.716,0,0
386430,73.0308,-412.186,0,0
386690,72.7459,-411.658,0,0
386950,72.5463,-411.061,0,0
387211,72.3448,-410.575,0,0
387471,72.1011,-409.979,0,0
387731,71.9555,-409.429,0,0
387992,71.7665,-408.85,0,0
388252,71.5355,-408.203,0,0
388512,71.3821,-407.579,0,0
388773,71.1959,-406.897,0,0
389033,71.034,-406.151,0,0
389293,70.9197,-405.425,0,0
389554,70.8168,-404.683,0,0
389814,70.776,-403.883,0,0
390074,70.7788,-403.113,0,0
390335,70.814,-402.262,0,0
390595,70.8905,-401.464,0,0
390855,71.033,-400.694,0,0
391116,71.2333,-399.921,0,0
391376,71.3939,-399.126,0,0
391636,71.6543,-398.353,0,0
391896,71.9309,-397.635,0,0
392157,72.2633,-396.853,0,0
392417,72.6672,-396.147,0,0
392677,73.1003,-395.489,0,0
392938,73.5174,-394.877,0,0
393198,74.0398,-394.332,0,0
393458,74.5246,-393.849,0,0
393719,75.0677,-393.348,0,0
393979,75.5791,-392.941,0,0
394239,76.0884,-392.595,0,0
394500,76.5783,-392.284,0,0
394760.05,77.0713,-391.999,0,0
395020.375,77.552,-391.793,0,0
395280.7,78.0257,-391.592,0,0
395541.025,78.4652,-391.483,0,0
395801.35,78.9433,-391.346,0,0
396061.675,79.3229,-391.319,0,0
396322.0,79.7155,-391.344,0,0
396582.325,80.055,-391.358,0,0
396842.65,80.302,-391.391,0,0
397102.975,80.5754,-391.442,0,0
397363.3,80.8076,-391.566,0,0
397623.625,80.9715,-391.645,0,0
397883.95,81.1189,-391.792,0,0
398144.275,81.1813,-391.896,0,0
398404.6,81.2247,-392.061,0,0
398664.925,81.1825,-392.189,0,0
398925.25,81.1141,-392.316,0,0
399185.575,80.9747,-392.387,0,0
399445.9,80.8317,-392.459,0,0
399706.225,80.6921,-392.509,0,0
399966.55,80.4819,-392.517,0,0
400006.6,80.4176,-392.491,0,0