File: Accelerated corrosion test data/2025-10-05_06-00-04/sample_2.csv
Frequency (Hz),Impedance (ohms),Phase (Radians),Temperature (C),Humidity (%)
10000.0,226.088,-11393.7,0,0
10260.325,220.596,-11107.1,0,0
10520.65,214.873,-10834,0,0
10780.975,210.534,-10574.3,0,0
11041.3,205.416,-10327.4,0,0
11301.625,200.806,-10090.8,0,0
11561.95,197.615,-9864,0,0
11822.275,194.493,-9652.65,0,0
12082.6,192.197,-9446.92,0,0
12342.925,185.135,-9249.81,0,0
12603.25,181.012,-9059.04,0,0
12863.575,177.545,-8876.02,0,0
13123.9,176,-8703.64,0,0
13384.225,171.012,-8532.35,0,0
13644.55,168.721,-8368.09,0,0
13904.875,183.178,-8212.65,0,0
14165.2,164.349,-8070.78,0,0
14425.525,160.802,-7921.9,0,0
14685.8,161.485,-7777.11,0,0
14946.175,159.946,-7649.65,0,0
15206.5,165.406,-7523.56,0,0
15466.825,160.101,-7390.89,0,0
15727.15,149.661,-7280.22,0,0
15987.5,146.356,-7158.93,0,0
16247.8,145.738,-7044.16,0,0
16508.125,141.643,-6934.9,0,0
16768.45,139.206,-6827.21,0,0
17028.775,137.885,-6723.1,0,0
17289.1,136.382,-6622.49,0,0
17549.425,132.923,-6524.21,0,0
17809.75,131.234,-6428.67,0,0
18070.075,129.073,-6336.74,0,0
18330.4,127.776,-6245.68,0,0
18590.725,126.656,-6157.47,0,0
18851.05,125.321,-6072.02,0,0
19111.375,127.731,-5990.55,0,0
19371.7,127.056,-5912.77,0,0
19632.025,121.939,-5835.62,0,0
19892.35,119.235,-5758.15,0,0
20152.675,117.739,-5682.56,0,0
20413.0,116.882,-5608.55,0,0
20673.3,116.141,-5536.35,0,0
20933.65,116.755,-5465.09,0,0
21193.975,122.055,-5397.86,0,0
21454.3,128.079,-5333.54,0,0
21714.625,127.269,-5278.84,0,0
21974.9,119.854,-5216.4,0,0
22235.275,118.323,-5162.36,0,0
22495.6,113.811,-5101.87,0,0
22755.925,110.48,-5040.89,0,0
23016.25,111.276,-4985.66,0,0
23276.6,111.968,-4929.91,0,0
23536.9,107.295,-4876.14,0,0
23797.225,105.508,-4821.98,0,0
24057.55,106.035,-4770.99,0,0
24317.875,101.69,-4720.82,0,0
24578.2,100.276,-4669.87,0,0
24838.525,98.6269,-4619.91,0,0
25098.85,98.1284,-4571.17,0,0
25359.175,97.248,-4524.39,0,0
25619.5,96.4508,-4477.96,0,0
25879.8,95.5647,-4431.41,0,0
26140.1,94.9476,-4386.76,0,0
26400.5,95.2846,-4343.44,0,0
26660.8,95.561,-4302.39,0,0
26921.1,93.9507,-4259.84,0,0
27181.4,92.9598,-4220.29,0,0
27441.8,91.6003,-4180.15,0,0
27702.1,89.8449,-4140.39,0,0
27962.4,88.7202,-4099.91,0,0
28222.7,89.5486,-4061.06,0,0
28483.1,89.2305,-4023.96,0,0
28743.4,87.6278,-3987.05,0,0
29003.7,89.5141,-3948.9,0,0
29264,90.0926,-3914.58,0,0
29524.4,92.0919,-3877.55,0,0
29784.7,96.2985,-3849.05,0,0
30045,91.9078,-3817.62,0,0
30305.3,93.1108,-3784.32,0,0
30565.7,90.6246,-3757.37,0,0
30826,87.2787,-3724.67,0,0
31086.3,85.9394,-3692.39,0,0
31346.6,84.1833,-3662.08,0,0
31607,83.9953,-3630.22,0,0
31867.3,82.8379,-3601.62,0,0
32127.6,81.2892,-3571.28,0,0
32387.9,81.5074,-3540.82,0,0
32648.3,82.8088,-3513.09,0,0
32908.6,82.7067,-3486.79,0,0
33168.9,80.9396,-3460.18,0,0
33429.2,79.4158,-3433.08,0,0
33689.6,78.7829,-3406.18,0,0
33949.9,78.0542,-3380.39,0,0
34210.2,76.6409,-3354.31,0,0
34470.5,75.7327,-3328.02,0,0
34730.9,75.1425,-3302.58,0,0
34991.2,74.5017,-3277.65,0,0
35251.5,73.782,-3253.22,0,0
35511.8,73.3597,-3229.05,0,0
35772.2,73.1228,-3205.14,0,0
36032.5,72.5783,-3181.61,0,0
36292.8,71.9915,-3158.38,0,0
36553.1,71.2553,-3135.4,0,0
36813.5,70.8865,-3112.85,0,0
37073.8,70.748,-3090.67,0,0
37334.1,70.42,-3068.86,0,0
37594.4,70.0896,-3046.99,0,0
37854.8,69.7238,-3025.77,0,0
38115.1,69.4331,-3004.98,0,0
38375.4,68.7252,-2984.5,0,0
38635.7,68.2106,-2964.11,0,0
38896.1,68.0036,-2943.47,0,0
39156.4,67.5478,-2923.82,0,0
39416.7,67.2261,-2903.98,0,0
39677,66.7879,-2884.47,0,0
39937.4,66.1867,-2865.37,0,0
40197.7,66.0155,-2846.36,0,0
40458,65.6404,-2827.5,0,0
40718.3,65.4338,-2808.79,0,0
40978.7,65.6333,-2790.76,0,0
41239,65.0774,-2772.8,0,0
41499.3,65.0688,-2754.91,0,0
41759.6,64.7711,-2737.63,0,0
42020,64.4402,-2720.1,0,0
42280.275,64.3362,-2703.21,0,0
42540.6,63.9985,-2686.62,0,0
42800.925,63.6357,-2669.73,0,0
43061.25,63.2112,-2653.18,0,0
43321.575,63.0824,-2636.9,0,0
43581.9,63.0342,-2620.59,0,0
43842.225,62.3079,-2604.77,0,0
44102.55,62.5092,-2588.95,0,0
44362.875,62.5054,-2573.37,0,0
44623.2,62.0201,-2558.22,0,0
44883.525,61.4326,-2542.98,0,0
45143.85,61.2017,-2527.48,0,0
45404.175,61.6678,-2512.49,0,0
45664.5,61.2159,-2497.93,0,0
45924.825,61.0228,-2483.13,0,0
46185.15,61.5017,-2469.04,0,0
46445.475,60.8022,-2455.27,0,0
46705.8,60.3735,-2440.84,0,0
46966.125,60.4512,-2426.51,0,0
47226.45,60.3235,-2412.61,0,0
47486.775,60.6418,-2399.19,0,0
47747.1,60.2343,-2386.22,0,0
48007.425,59.9985,-2372.59,0,0
48267.75,60.4044,-2358.92,0,0
48528.075,61.3867,-2346.76,0,0
48788.4,60.4324,-2334.66,0,0
49048.725,59.9738,-2322.16,0,0
49309.05,59.8621,-2309.95,0,0
49569.375,58.8153,-2297.68,0,0
49829.7,58.3178,-2285.11,0,0
50090.025,57.9562,-2272.62,0,0
50350.35,57.4919,-2260.48,0,0
50610.675,57.1316,-2248.01,0,0
50871.0,57.3163,-2236.15,0,0
51131.325,57.2189,-2224.48,0,0
51391.65,56.9233,-2213.03,0,0
51651.975,56.2479,-2201.47,0,0
51912.3,55.8624,-2189.88,0,0
52172.625,55.4165,-2178.4,0,0
52432.95,55.1358,-2166.93,0,0
52693.275,54.8224,-2155.72,0,0
52953.6,54.7785,-2144.44,0,0
53213.925,54.4943,-2133.26,0,0
53474.25,54.3727,-2122.32,0,0
53734.575,54.2026,-2111.44,0,0
53994.9,53.8841,-2100.68,0,0
54255.225,53.8887,-2090.01,0,0
54515.55,53.8756,-2079.31,0,0
54775.875,53.9077,-2068.96,0,0
55036.2,53.6363,-2058.68,0,0
55296.525,53.5805,-2048.3,0,0
55556.85,53.6809,-2038.18,0,0
55817.175,53.5644,-2027.99,0,0
56077.5,53.5835,-2018.08,0,0
56337.825,53.3921,-2008.13,0,0
56598.15,53.3601,-1998.29,0,0
56858.475,53.4219,-1988.34,0,0
57118.8,53.5462,-1978.72,0,0
57379.125,53.6683,-1969.37,0,0
57639.45,53.4776,-1959.86,0,0
57899.775,53.6791,-1950.35,0,0
58160.1,53.809,-1941.31,0,0
58420.4,53.6129,-1932.06,0,0
58680.7,53.7147,-1922.78,0,0
58941.1,53.8929,-1913.65,0,0
59201.4,53.9968,-1904.62,0,0
59461.7,54.1842,-1895.66,0,0
59722,54.4713,-1886.61,0,0
59982.4,55.099,-1877.73,0,0
60242.7,55.7633,-1869.53,0,0
60503,55.9729,-1861.52,0,0
60763.3,55.8619,-1853.39,0,0
61023.7,56.0412,-1844.68,0,0
61284,56.775,-1836.2,0,0
61544.3,57.7976,-1828.54,0,0
61804.6,58.4548,-1821.41,0,0
62065,58.5961,-1814.79,0,0
62325.3,57.6356,-1807.86,0,0
62585.6,57.0383,-1800.16,0,0
62845.9,56.8859,-1792.53,0,0
63106.3,56.7882,-1785.77,0,0
63366.6,55.6492,-1778.46,0,0
63626.9,54.8495,-1770.87,0,0
63887.2,54.2683,-1763.07,0,0
64147.6,53.6584,-1755.53,0,0
64407.9,52.8833,-1748.04,0,0
64668.2,52.5231,-1740.16,0,0
64928.5,51.9502,-1732.75,0,0
65188.9,51.4946,-1725.13,0,0
65449.2,50.5937,-1717.6,0,0
65709.5,50.2664,-1709.32,0,0
65969.8,50.4254,-1701.5,0,0
66230.2,50.441,-1693.99,0,0
66490.5,50.4649,-1686.35,0,0
66750.8,50.5689,-1679.06,0,0
67011.1,50.5723,-1671.66,0,0
67271.5,50.9689,-1664.01,0,0
67531.8,51.472,-1656.95,0,0
67792.1,52.1119,-1650.04,0,0
68052.4,52.7602,-1643.26,0,0
68312.8,53.0484,-1637.05,0,0
68573.1,53.3031,-1630.41,0,0
68833.4,53.5168,-1623.8,0,0
69093.7,54.2028,-1617.24,0,0
69354.1,54.6526,-1611.57,0,0
69614.4,54.7177,-1605.48,0,0
69874.7,55.412,-1599.64,0,0
70135,55.4575,-1594.58,0,0
70395.4,54.9175,-1589.3,0,0
70655.7,54.1155,-1584.09,0,0
70916,52.784,-1578.13,0,0
71176.3,52.1978,-1571.86,0,0
71436.7,51.7883,-1566,0,0
71697,50.9145,-1560.33,0,0
71957.3,49.8441,-1554.63,0,0
72217.6,48.4575,-1548.21,0,0
72478,47.545,-1541.46,0,0
72738.3,46.9599,-1534.87,0,0
72998.6,46.325,-1528.28,0,0
73258.9,45.9951,-1521.84,0,0
73519.3,45.3665,-1515.47,0,0
73779.6,44.928,-1508.89,0,0
74039.9,44.7269,-1502.14,0,0
74300.225,44.7483,-1495.68,0,0
74560.55,44.8721,-1489.32,0,0
74820.875,44.8632,-1483.01,0,0
75081.2,44.9337,-1476.65,0,0
75341.525,45.1252,-1470.47,0,0
75601.85,45.4366,-1464.33,0,0
75862.175,45.7493,-1458.26,0,0
76122.5,46.2286,-1452.23,0,0
76382.825,46.6566,-1446.38,0,0
76643.15,47.0837,-1440.7,0,0
76903.475,47.467,-1434.92,0,0
77163.8,47.9857,-1429.28,0,0
77424.125,48.6426,-1423.64,0,0
77684.45,49.3526,-1418.28,0,0
77944.775,50.0169,-1412.95,0,0
78205.1,50.8029,-1407.85,0,0
78465.425,51.5825,-1403.06,0,0
78725.75,52.1308,-1398.44,0,0
78986.075,52.6829,-1393.89,0,0
79246.4,52.9737,-1389.77,0,0
79506.725,52.8874,-1385.38,0,0
79767.05,52.8659,-1381.17,0,0
80027.375,52.4823,-1376.96,0,0
80287.7,51.6735,-1372.64,0,0
80548.025,50.925,-1367.81,0,0
80808.35,50.2393,-1362.82,0,0
81068.675,49.774,-1357.75,0,0
81329.0,49.2939,-1352.78,0,0
81589.325,48.9101,-1347.64,0,0
81849.65,48.633,-1342.64,0,0
82109.975,48.3446,-1337.52,0,0
82370.3,48.1614,-1332.43,0,0
82630.625,47.8803,-1327.34,0,0
82890.95,47.7145,-1322.15,0,0
83151.275,47.7366,-1317.02,0,0
83411.6,47.8795,-1311.94,0,0
83671.925,48.0684,-1306.99,0,0
83932.25,48.2808,-1302.07,0,0
84192.575,48.5177,-1297.32,0,0
84452.9,48.7574,-1292.67,0,0
84713.225,48.7743,-1288.07,0,0
84973.55,48.8508,-1283.42,0,0
85233.875,48.9953,-1278.7,0,0
85494.2,49.2416,-1273.91,0,0
85754.525,49.5405,-1269.42,0,0
86014.85,49.7736,-1265.06,0,0
86275.175,49.932,-1260.74,0,0
86535.5,50.0701,-1256.4,0,0
86795.825,49.9733,-1252.04,0,0
87056.15,50.2128,-1247.46,0,0
87316.475,50.6876,-1243.01,0,0
87576.8,50.9625,-1239.07,0,0
87837.125,50.7885,-1235.16,0,0
88097.45,50.6795,-1230.84,0,0
88357.775,50.7311,-1226.43,0,0
88618.1,51.0464,-1222.27,0,0
88878.425,50.7011,-1218.35,0,0
89138.75,50.4858,-1213.84,0,0
89399.075,50.7444,-1209.43,0,0
89659.4,50.8883,-1205.05,0,0
89919.725,51.3691,-1200.81,0,0
90180,51.6482,-1197.04,0,0
90440.4,51.6567,-1193.12,0,0
90700.7,51.2396,-1189.21,0,0
90961,51.1442,-1184.53,0,0
91221.3,51.6748,-1180.16,0,0
91481.7,52.177,-1176.07,0,0
91742,52.4876,-1172.04,0,0
92002.3,52.6269,-1167.98,0,0
92262.6,53.1918,-1163.81,0,0
92523,53.9723,-1159.95,0,0
92783.3,54.4034,-1156.54,0,0
93043.6,54.8211,-1152.81,0,0
93303.9,55.487,-1149.34,0,0
93564.3,55.861,-1146.37,0,0
93824.6,55.9396,-1143.04,0,0
94084.9,55.8876,-1139.99,0,0
94345.2,55.4666,-1136.93,0,0
94605.6,54.7631,-1133.08,0,0
94865.9,54.8842,-1129.1,0,0
95126.2,54.8474,-1125.69,0,0
95386.5,54.4552,-1122.06,0,0
95646.9,53.9983,-1118.04,0,0
95907.2,54.1158,-1113.63,0,0
96167.5,54.7845,-1109.38,0,0
96427.8,55.8608,-1105.78,0,0
96688.2,56.6102,-1102.77,0,0
96948.5,56.8977,-1099.78,0,0
97208.8,57.1146,-1096.59,0,0
97469.1,57.5847,-1093.52,0,0
97729.5,57.9012,-1090.89,0,0
97989.8,57.911,-1088.19,0,0
98250.1,57.689,-1085.55,0,0
98510.4,57.3515,-1082.77,0,0
98770.8,57.0206,-1079.95,0,0
99031.1,56.6541,-1077.38,0,0
99291.4,55.7604,-1074.87,0,0
99551.7,54.4937,-1071.95,0,0
99812.1,53.1531,-1068.65,0,0
100072,51.9816,-1064.72,0,0
100333,51.296,-1060.71,0,0
100593,50.9914,-1056.82,0,0
100853,50.7492,-1053.42,0,0
101114,50.1502,-1050.14,0,0
101374,49.2612,-1046.65,0,0
101634,48.2547,-1042.83,0,0
101895,47.4537,-1038.69,0,0
102155,47.0278,-1034.32,0,0
102415,46.9579,-1030.22,0,0
102676,46.6707,-1026.4,0,0
102936,46.2946,-1022.32,0,0
103196,46.1406,-1018.08,0,0
103457,46.0461,-1013.97,0,0
103717,45.9394,-1009.71,0,0
103977,46.1564,-1005.23,0,0
104238,46.7815,-1000.92,0,0
104498,47.4755,-996.732,0,0
104758,48.4391,-992.819,0,0
105019,49.3386,-989.261,0,0
105279,50.1191,-985.754,0,0
105539,50.7647,-982.188,0,0
105800,51.771,-978.507,0,0
106060,53.0677,-975.279,0,0
106320.175,54.1536,-972.405,0,0
106580.5,55.1852,-969.579,0,0
106840.825,56.2281,-967.183,0,0
107101.15,56.8184,-965.016,0,0
107361.475,57.0885,-962.674,0,0
107621.8,57.4547,-960.288,0,0
107882.125,57.6618,-958.163,0,0
108142.45,57.4887,-956.062,0,0
108402.775,56.9495,-953.702,0,0
108663.1,56.603,-950.998,0,0
108923.425,56.1822,-948.551,0,0
109183.75,55.4754,-945.978,0,0
109444.075,54.7054,-942.961,0,0
109704.4,54.1108,-939.774,0,0
109964.725,53.4426,-936.68,0,0
110225.05,52.8894,-933.319,0,0
110485.375,52.4326,-929.944,0,0
110745.7,51.9402,-926.365,0,0
111006.025,51.8227,-922.84,0,0
111266.35,51.6739,-919.031,0,0
111526.675,51.781,-915.757,0,0
111787.0,51.7764,-912.326,0,0
112047.325,51.7752,-908.855,0,0
112307.65,51.881,-905.405,0,0
112567.975,51.9338,-902.026,0,0
112828.3,52.0186,-898.541,0,0
113088.625,52.2365,-895.068,0,0
113348.95,52.4874,-891.553,0,0
113609.275,52.7819,-888.121,0,0
113869.6,53.1885,-884.782,0,0
114129.925,53.5669,-881.358,0,0
114390.25,54.0416,-878.024,0,0
114650.575,54.5746,-874.779,0,0
114910.9,55.1062,-871.585,0,0
115171.225,55.5877,-868.281,0,0
115431.55,56.1837,-865.084,0,0
115691.875,56.7745,-861.99,0,0
115952.2,57.3857,-858.894,0,0
116212.525,57.8896,-855.807,0,0
116472.85,58.5734,-852.635,0,0
116733.175,59.3902,-849.539,0,0
116993.5,60.251,-846.698,0,0
117253.825,60.983,-843.815,0,0
117514.15,61.6604,-841.02,0,0
117774.475,62.4625,-838.244,0,0
118034.8,63.3002,-835.512,0,0
118295.125,64.0714,-832.945,0,0
118555.45,64.7983,-830.39,0,0
118815.775,65.5407,-827.775,0,0
119076.1,66.3731,-825.266,0,0
119336.425,67.1458,-823.035,0,0
119596.75,67.8616,-820.682,0,0
119857.075,68.7038,-818.57,0,0
120117.4,69.2099,-816.749,0,0
120377.725,69.54,-814.769,0,0
120638.05,69.7969,-812.795,0,0
120898.375,69.8942,-810.963,0,0
121158.7,69.6692,-808.902,0,0
121419.025,69.4779,-806.589,0,0
121679.35,69.3182,-804.198,0,0
121939.675,69.2477,-801.769,0,0
122200.0,69.082,-799.337,0,0
122460,68.9752,-796.827,0,0
122721,68.8052,-794.293,0,0
122981,68.7203,-791.635,0,0
123241,68.6823,-788.989,0,0
123502,68.6636,-786.305,0,0
123762,68.6997,-783.789,0,0
124022,68.6187,-781.191,0,0
124283,68.4972,-778.553,0,0
124543,68.3886,-775.853,0,0
124803,68.2468,-773.098,0,0
125064,68.115,-770.265,0,0
125324,68.0752,-767.328,0,0
125584,68.0824,-764.41,0,0
125845,68.0979,-761.447,0,0
126105,68.1185,-758.43,0,0
126365,68.3066,-755.372,0,0
126626,68.5088,-752.335,0,0
126886,68.7901,-749.303,0,0
127146,69.1304,-746.306,0,0
127406,69.453,-743.167,0,0
127667,69.9932,-740.054,0,0
127927,70.6435,-737.135,0,0
128187,71.2707,-734.322,0,0
128448,71.8567,-731.529,0,0
128708,72.4819,-728.739,0,0
128968,73.1273,-726.047,0,0
129229,73.7284,-723.356,0,0
129489,74.3756,-720.778,0,0
129749,74.9337,-718.198,0,0
130010,75.5021,-715.631,0,0
130270,76.0866,-713.063,0,0
130530,76.6832,-710.542,0,0
130791,77.2094,-708.086,0,0
131051,77.7245,-705.676,0,0
131311,78.1953,-703.28,0,0
131572,78.579,-700.88,0,0
131832,78.9536,-698.459,0,0
132092,79.2538,-696.081,0,0
132353,79.4836,-693.648,0,0
132613,79.681,-691.154,0,0
132873,79.8291,-688.584,0,0
133134,80.0282,-685.887,0,0
133394,80.2934,-683.207,0,0
133654,80.565,-680.534,0,0
133915,80.8503,-677.797,0,0
134175,81.0972,-675.082,0,0
134435,81.3022,-672.394,0,0
134696,81.5197,-669.52,0,0
134956,81.8726,-666.588,0,0
135216,82.273,-663.733,0,0
135477,82.6217,-660.911,0,0
135737,83.0188,-658.013,0,0
135997,83.4146,-655.11,0,0
136258,83.8426,-652.19,0,0
136518,84.3078,-649.202,0,0
136778,84.8346,-646.249,0,0
137039,85.3021,-643.236,0,0
137299,85.9282,-640.163,0,0
137559,86.6393,-637.218,0,0
137819,87.3113,-634.386,0,0
138080,87.8583,-631.572,0,0
138340.125,88.3318,-628.676,0,0
138600.45,88.7995,-625.694,0,0
138860.775,89.2737,-622.638,0,0
139121.1,89.7735,-619.491,0,0
139381.425,90.2976,-616.286,0,0
139641.75,90.9262,-613.069,0,0
139902.075,91.4796,-609.815,0,0
140162.4,91.9943,-606.421,0,0
140422.725,92.5896,-602.75,0,0
140683.05,93.4239,-598.898,0,0
140943.375,94.5915,-595.135,0,0
141203.7,95.8425,-591.538,0,0
141464.025,97.0431,-587.836,0,0
141724.35,98.4886,-584.051,0,0
141984.675,100.128,-580.305,0,0
142245.0,101.996,-576.659,0,0
142505.325,103.906,-573.235,0,0
142765.65,105.814,-569.832,0,0
143025.975,107.978,-566.418,0,0
143286.3,110.238,-563.37,0,0
143546.625,112.276,-560.512,0,0
143806.95,114.189,-557.559,0,0
144067.275,116.132,-554.529,0,0
144327.6,118.153,-551.493,0,0
144587.925,120.216,-548.491,0,0
144848.25,122.233,-545.471,0,0
145108.575,124.337,-542.334,0,0
145368.9,126.682,-539.247,0,0
145629.225,129.075,-536.292,0,0
145889.55,131.453,-533.381,0,0
146149.875,133.822,-530.499,0,0
146410.2,136.191,-527.544,0,0
146670.525,138.646,-524.49,0,0
146930.85,141.238,-521.364,0,0
147191.175,144.004,-518.178,0,0
147451.5,147.032,-514.974,0,0
147711.825,150.326,-511.907,0,0
147972.15,153.725,-509.035,0,0
148232.475,157.151,-506.177,0,0
148492.8,160.769,-503.213,0,0
148753.125,164.72,-500.271,0,0
149013.45,169.017,-497.376,0,0
149273.775,173.856,-494.629,0,0
149534.1,179.257,-492.445,0,0
149794.425,184.799,-490.998,0,0
150054.75,190.274,-490.017,0,0
150315.075,195.777,-489.482,0,0
150575.4,201.355,-489.368,0,0
150835.725,206.989,-489.87,0,0
151096.05,212.459,-491.197,0,0
151356.375,217.349,-493.187,0,0
151616.7,221.627,-495.401,0,0
151877.025,225.615,-497.758,0,0
152137.35,229.301,-500.585,0,0
152397.675,232.356,-503.824,0,0
152658.0,234.609,-507.177,0,0
152918.325,236.23,-510.412,0,0
153178.65,237.206,-513.442,0,0
153438.975,237.852,-516.042,0,0
153699.3,238.352,-518.456,0,0
153959.625,238.503,-520.832,0,0
154219.95,238.231,-522.882,0,0
154480,237.73,-524.46,0,0
154741,237.36,-525.857,0,0
155001,236.793,-527.127,0,0
155261,236.153,-528.181,0,0
155522,235.416,-528.791,0,0
155782,234.625,-529.452,0,0
156042,233.837,-529.74,0,0
156303,233.22,-529.994,0,0
156563,232.602,-530.201,0,0
156823,231.811,-530.336,0,0
157084,230.844,-530.465,0,0
157344,229.815,-530.124,0,0
157604,228.771,-529.666,0,0
157864,227.818,-528.78,0,0
158125,227.189,-527.642,0,0
158385,226.867,-526.874,0,0
158645,226.386,-526.112,0,0
158906,225.727,-525.208,0,0
159166,225.102,-524.022,0,0
159426,224.606,-522.805,0,0
159687,224.048,-521.398,0,0
159947,223.839,-519.493,0,0
160207,224.243,-517.807,0,0
160468,224.675,-516.453,0,0
160728,225.11,-515.188,0,0
160988,225.372,-513.898,0,0
161249,225.794,-512.22,0,0
161509,226.855,-510.273,0,0
161769,228.928,-508.966,0,0
162030,231.14,-508.882,0,0
162290,232.94,-509.463,0,0
162550,234.19,-510.687,0,0
162811,234.866,-512.411,0,0
163071,234.638,-514.443,0,0
163331,233.379,-516.402,0,0
163592,231.174,-517.727,0,0
163852,228.869,-518.253,0,0
164112,226.526,-518.476,0,0
164373,223.914,-518.77,0,0
164633,220.79,-518.475,0,0
164893,217.381,-517.332,0,0
165154,214.343,-515.61,0,0
165414,211.527,-513.782,0,0
165674,208.424,-511.629,0,0
165935,205.161,-508.962,0,0
166195,202.263,-505.494,0,0
166455,199.946,-501.667,0,0
166716,198.045,-497.615,0,0
166976,196.629,-493.704,0,0
167236,195.316,-489.82,0,0
167497,194.136,-485.858,0,0
167757,193.069,-481.8,0,0
168017,192.1,-477.749,0,0
168277,191.188,-473.424,0,0
168538,190.43,-468.735,0,0
168798,190.218,-463.859,0,0
169058,190.689,-459.142,0,0
169319,191.29,-455.006,0,0
169579,191.663,-451.165,0,0
169839,191.687,-446.974,0,0
170100,191.988,-442.48,0,0
170360.075,192.674,-437.921,0,0
170620.4,193.542,-433.634,0,0
170880.725,194.122,-429.588,0,0
171141.05,194.592,-424.993,0,0
171401.375,195.352,-420.108,0,0
171661.7,196.584,-415.046,0,0
171922.025,198.11,-410.164,0,0
172182.35,199.884,-405.413,0,0
172442.675,201.639,-400.811,0,0
172703.0,203.375,-396.032,0,0
172963.325,205.495,-391.106,0,0
173223.65,207.806,-386.371,0,0
173483.975,210.263,-381.673,0,0
173744.3,212.826,-376.974,0,0
174004.625,215.402,-372.302,0,0
174264.95,218.171,-367.413,0,0
174525.275,221.3,-362.318,0,0
174785.6,225.068,-357.302,0,0
175045.925,229.242,-352.593,0,0
175306.25,233.595,-348.389,0,0
175566.575,237.934,-344.419,0,0
175826.9,242.369,-340.564,0,0
176087.225,246.967,-336.747,0,0
176347.55,251.815,-333.192,0,0
176607.875,256.801,-329.946,0,0
176868.2,261.718,-326.844,0,0
177128.525,266.87,-323.737,0,0
177388.85,272.727,-320.766,0,0
177649.175,279.156,-318.754,0,0
177909.5,285.42,-317.864,0,0
178169.825,291.029,-318.137,0,0
178430.15,295.396,-318.629,0,0
178690.475,299.057,-318.612,0,0
178950.8,302.759,-318.516,0,0
179211.125,305.983,-317.429,0,0
179471.45,309.214,-317.646,0,0
179731.775,312.023,-317.568,0,0
179992.1,314.508,-317.648,0,0
180252.425,316.341,-317.787,0,0
180512.75,317.28,-317.526,0,0
180773.075,317.718,-316.206,0,0
181033.4,318.214,-314.142,0,0
181293.725,318.584,-311.251,0,0
181554.05,319.602,-307.4,0,0
181814.375,321.261,-303.195,0,0
182074.7,323.45,-298.913,0,0
182335.025,325.883,-294.427,0,0
182595.35,328.822,-289.746,0,0
182855.675,332.204,-284.959,0,0
183116.0,335.995,-280.166,0,0
183376.325,340.05,-275.278,0,0
183636.65,344.57,-270.27,0,0
183896.975,349.818,-265.326,0,0
184157.3,355.296,-260.763,0,0
184417.625,360.952,-256.157,0,0
184677.95,367.063,-251.326,0,0
184938.275,373.963,-246.777,0,0
185198.6,381.458,-242.758,0,0
185458.925,388.951,-239.269,0,0
185719.25,396.654,-235.962,0,0
185979.575,404.75,-232.998,0,0
186239.9,413.084,-230.664,0,0
186500,421.457,-229.046,0,0
186761,429.285,-228.057,0,0
187021,436.34,-226.95,0,0
187281,443.147,-225.035,0,0
187542,450.884,-222.451,0,0
187802,459.858,-220.187,0,0
188062,469.312,-219.361,0,0
188322,478.051,-219.687,0,0
188583,485.764,-219.79,0,0
188843,493.497,-219.298,0,0
189103,501.566,-218.777,0,0
189364,509.613,-218.354,0,0
189624,517.922,-217.95,0,0
189884,526.252,-217.576,0,0
190145,534.515,-217.246,0,0
190405,542.982,-216.536,0,0
190665,551.886,-215.594,0,0
190926,561.437,-214.586,0,0
191186,571.586,-213.56,0,0
191446,582.731,-212.647,0,0
191707,594.81,-212.409,0,0
191967,607.493,-213.118,0,0
192227,620.28,-214.705,0,0
192488,633.245,-216.76,0,0
192748,646.789,-219.357,0,0
193008,660.926,-222.95,0,0
193269,675.216,-227.825,0,0
193529,689.558,-233.769,0,0
193789,703.757,-241.263,0,0
194050,716.775,-250.141,0,0
194310,728.635,-259.181,0,0
194570,740.027,-268.163,0,0
194831,751.46,-277.217,0,0
195091,763.067,-286.807,0,0
195351,774.644,-297.486,0,0
195612,785.583,-309.161,0,0
195872,795.577,-321.788,0,0
196132,804.276,-334.539,0,0
196393,812.317,-346.804,0,0
196653,820.46,-358.93,0,0
196913,828.646,-371.53,0,0
197174,836.703,-384.812,0,0
197434,844.284,-398.979,0,0
197694,850.791,-413.937,0,0
197955,856.114,-428.522,0,0
198215,861.476,-442.637,0,0
198475,867.137,-457.616,0,0
198735,872.062,-473.558,0,0
198996,875.901,-490.26,0,0
199256,878.435,-507.133,0,0
199516,879.716,-523.806,0,0
199777,879.984,-539.903,0,0
200037,879.905,-555.241,0,0
200297,880.401,-570.205,0,0
200558,881.049,-586.346,0,0
200818,880.578,-603.543,0,0
201078,878.51,-620.985,0,0
201339,875.369,-638.205,0,0
201599,871.126,-655.188,0,0
201859,865.975,-671.879,0,0
202120,859.759,-688.219,0,0
202380.025,852.595,-704.161,0,0
202640.35,844.182,-719.724,0,0
202900.675,834.117,-734.61,0,0
203161.0,823.087,-747.162,0,0
203421.325,812.586,-758.205,0,0
203681.65,802.345,-768.596,0,0
203941.975,791.889,-778.394,0,0
204202.3,781.688,-787.349,0,0
204462.625,771.481,-795.727,0,0
204722.95,761.668,-803.17,0,0
204983.275,752.582,-810.602,0,0
205243.6,743.435,-818.971,0,0
205503.925,733.237,-827.321,0,0
205764.25,722.043,-835.082,0,0
206024.575,710.1,-841.245,0,0
206284.9,698.54,-846.294,0,0
206545.225,687.517,-850.463,0,0
206805.55,676.504,-854.016,0,0
207065.875,666.209,-856.806,0,0
207326.2,656.552,-859.245,0,0
207586.525,647.237,-861.719,0,0
207846.85,637.998,-863.908,0,0
208107.175,629.007,-865.558,0,0
208367.5,620.682,-866.732,0,0
208627.825,613.024,-868.034,0,0
208888.15,605.942,-869.65,0,0
209148.475,599.029,-871.675,0,0
209408.8,592.181,-874.022,0,0
209669.125,585.212,-876.745,0,0
209929.45,577.43,-879.923,0,0
210189.775,569.105,-882.966,0,0
210450.1,560.284,-885.503,0,0
210710.425,551.16,-887.335,0,0
210970.75,542.054,-888.662,0,0
211231.075,532.723,-889.703,0,0
211491.4,523.255,-890.064,0,0
211751.725,513.636,-889.679,0,0
212012.05,504.561,-888.375,0,0
212272.375,496.008,-886.547,0,0
212532.7,488.177,-884.622,0,0
212793.025,480.715,-882.628,0,0
213053.35,473.513,-880.729,0,0
213313.675,466.224,-878.633,0,0
213574.0,459.061,-876.039,0,0
213834.325,452.378,-873.085,0,0
214094.65,446.299,-869.976,0,0
214354.975,440.606,-866.839,0,0
214615.3,435.22,-863.818,0,0
214875.625,430.298,-860.85,0,0
215135.95,425.428,-858.035,0,0
215396.275,420.541,-855.262,0,0
215656.6,415.865,-852.551,0,0
215916.925,411.268,-849.531,0,0
216177.25,406.898,-846.424,0,0
216437.575,402.798,-843.24,0,0
216697.9,399.015,-840.103,0,0
216958.225,395.383,-836.956,0,0
217218.55,391.982,-833.869,0,0
217478.875,388.699,-830.712,0,0
217739.2,385.74,-827.539,0,0
217999.525,383.045,-824.369,0,0
218259.85,380.599,-821.412,0,0
218520,378.208,-818.604,0,0
218780,375.926,-815.811,0,0
219041,373.844,-813.059,0,0
219301,371.895,-810.288,0,0
219561,370.344,-807.724,0,0
219822,368.844,-805.322,0,0
220082,367.422,-803.139,0,0
220342,365.959,-801.057,0,0
220603,364.427,-799.165,0,0
220863,362.764,-797.184,0,0
221123,361.269,-795.01,0,0
221384,359.945,-792.821,0,0
221644,358.863,-790.567,0,0
221904,358.009,-788.383,0,0
222165,357.403,-786.376,0,0
222425,357.067,-784.588,0,0
222685,356.873,-783.038,0,0
222946,356.75,-781.763,0,0
223206,356.62,-780.84,0,0
223466,356.452,-780.062,0,0
223727,356.273,-779.584,0,0
223987,355.795,-779.281,0,0
224247,355.108,-778.921,0,0
224508,354.607,-778.519,0,0
224768,354.044,-778.345,0,0
225028,353.33,-778.24,0,0
225289,352.401,-778.021,0,0
225549,351.614,-777.881,0,0
225809,350.699,-777.646,0,0
226070,349.865,-777.234,0,0
226330,349.339,-776.95,0,0
226590,348.892,-776.731,0,0
226851,348.553,-776.749,0,0
227111,348.196,-776.925,0,0
227371,347.865,-777.217,0,0
227632,347.538,-777.724,0,0
227892,347.191,-778.433,0,0
228152,346.884,-779.254,0,0
228413,346.467,-780.349,0,0
228673,346.043,-781.743,0,0
228933,345.346,-783.37,0,0
229193,344.43,-785.258,0,0
229454,343.142,-787.178,0,0
229714,341.46,-789.179,0,0
229974,339.522,-791.252,0,0
230235,337.378,-793.126,0,0
230495,335.005,-794.893,0,0
230755,332.406,-796.629,0,0
231016,329.61,-798.193,0,0
231276,326.668,-799.642,0,0
231536,323.56,-800.921,0,0
231797,320.336,-802.014,0,0
232057,317.115,-802.943,0,0
232317,313.806,-803.707,0,0
232578,310.518,-804.387,0,0
232838,307.139,-804.91,0,0
233098,303.71,-805.398,0,0
233359,300.196,-805.697,0,0
233619,296.765,-805.798,0,0
233879,293.361,-805.767,0,0
234140,289.993,-805.67,0,0
234400,286.8,-805.573,0,0
234660.3,283.472,-805.411,0,0
234920.625,280.141,-805.108,0,0
235180.95,276.887,-804.981,0,0
235441.275,273.534,-804.668,0,0
235701.6,270.052,-804.315,0,0
235961.925,266.551,-803.836,0,0
236222.25,263.032,-803.185,0,0
236482.575,259.574,-802.456,0,0
236742.9,256.172,-801.649,0,0
237003.225,252.723,-800.748,0,0
237263.55,249.263,-799.774,0,0
237523.875,245.782,-798.692,0,0
237784.2,242.303,-797.443,0,0
238044.525,238.821,-796.03,0,0
238304.85,235.522,-794.43,0,0
238565.175,232.381,-792.723,0,0
238825.5,229.3,-790.952,0,0
239085.825,226.418,-789.236,0,0
239346.15,223.505,-787.472,0,0
239606.475,220.62,-785.579,0,0
239866.8,217.82,-783.614,0,0
240127.125,215.228,-781.85,0,0
240387.45,212.707,-779.699,0,0
240647.775,210.206,-777.702,0,0
240908.1,207.757,-775.722,0,0
241168.425,205.414,-773.677,0,0
241428.75,203.261,-771.521,0,0
241689.075,201.175,-769.442,0,0
241949.4,199.227,-767.313,0,0
242209.725,197.26,-765.314,0,0
242470.05,195.432,-763.327,0,0
242730.375,193.663,-761.44,0,0
242990.7,191.972,-759.445,0,0
243251.025,190.41,-757.62,0,0
243511.35,188.88,-755.934,0,0
243771.675,187.353,-754.315,0,0
244032.0,185.763,-752.752,0,0
244292.325,184.181,-751.276,0,0
244552.65,182.616,-749.869,0,0
244812.975,180.992,-748.49,0,0
245073.3,179.269,-747.1,0,0
245333.625,177.604,-745.753,0,0
245593.95,175.763,-744.572,0,0
245854.275,174.031,-743.478,0,0
246114.6,172.082,-742.449,0,0
246374.925,169.86,-741.427,0,0
246635.25,167.47,-740.402,0,0
246895.575,164.715,-739.172,0,0
247155.9,161.95,-737.643,0,0
247416.225,159.043,-735.869,0,0
247676.55,156.267,-733.781,0,0
247936.875,153.515,-731.613,0,0
248197.2,150.931,-729.198,0,0
248457.525,148.419,-726.73,0,0
248717.85,145.997,-724.12,0,0
248978.175,143.717,-721.491,0,0
249238.5,141.413,-718.685,0,0
249498.825,139.161,-715.847,0,0
249759.15,137.123,-712.915,0,0
250019.475,135.057,-709.815,0,0
250279.8,133.194,-706.668,0,0
250540,131.476,-703.405,0,0
250800,129.874,-700.096,0,0
251061,128.399,-696.729,0,0
251321,127.139,-693.381,0,0
251581,126.033,-690.035,0,0
251842,124.967,-686.74,0,0
252102,124.017,-683.368,0,0
252362,123.185,-680.036,0,0
252623,122.49,-676.695,0,0
252883,121.886,-673.388,0,0
253143,121.446,-670.064,0,0
253404,121.128,-666.878,0,0
253664,120.846,-663.745,0,0
253924,120.615,-660.664,0,0
254185,120.445,-657.635,0,0
254445,120.273,-654.553,0,0
254705,120.113,-651.481,0,0
254966,120.068,-648.452,0,0
255226,120.129,-645.33,0,0
255486,120.186,-642.148,0,0
255747,120.502,-638.994,0,0
256007,120.876,-635.869,0,0
256267,121.488,-632.786,0,0
256528,122.175,-629.785,0,0
256788,122.972,-626.887,0,0
257048,123.877,-624.087,0,0
257309,124.846,-621.379,0,0
257569,125.864,-618.751,0,0
257829,126.955,-616.202,0,0
258090,128.096,-613.788,0,0
258350,129.256,-611.422,0,0
258610,130.452,-609.159,0,0
258871,131.642,-606.946,0,0
259131,132.866,-604.738,0,0
259391,134.193,-602.549,0,0
259651,135.536,-600.426,0,0
259912,137.004,-598.328,0,0
260172,138.581,-596.366,0,0
260432,140.263,-594.552,0,0
260693,141.949,-592.825,0,0
260953,143.674,-591.153,0,0
261213,145.492,-589.652,0,0
261474,147.35,-588.319,0,0
261734,149.22,-587.102,0,0
261994,151.055,-586.084,0,0
262255,152.819,-585.162,0,0
262515,154.543,-584.376,0,0
262775,156.204,-583.617,0,0
263036,157.833,-582.914,0,0
263296,159.474,-582.264,0,0
263556,161.131,-581.66,0,0
263817,162.903,-581.214,0,0
264077,164.599,-580.961,0,0
264337,166.253,-580.905,0,0
264598,167.76,-581.015,0,0
264858,169.211,-581.149,0,0
265118,170.375,-581.538,0,0
265379,171.425,-581.927,0,0
265639,172.26,-582.293,0,0
265899,172.998,-582.607,0,0
266160,173.542,-582.819,0,0
266420,174.048,-582.949,0,0
266680.25,174.541,-582.932,0,0
266940.575,175.132,-582.887,0,0
267200.9,175.775,-582.896,0,0
267461.225,176.423,-582.993,0,0
267721.55,177.003,-583.207,0,0
267981.875,177.474,-583.491,0,0
268242.2,177.817,-583.754,0,0
268502.525,177.996,-584.076,0,0
268762.85,178.023,-584.308,0,0
269023.175,177.888,-584.423,0,0
269283.5,177.626,-584.356,0,0
269543.825,177.364,-584.113,0,0
269804.15,177.106,-583.626,0,0
270064.475,176.922,-582.977,0,0
270324.8,176.853,-582.216,0,0
270585.125,176.882,-581.302,0,0
270845.45,177.09,-580.281,0,0
271105.775,177.45,-579.158,0,0
271366.1,178.136,-578.005,0,0
271626.425,179.025,-576.925,0,0
271886.75,180.104,-575.987,0,0
272147.075,181.236,-575.181,0,0
272407.4,182.368,-574.481,0,0
272667.725,183.6,-573.732,0,0
272928.05,184.981,-572.996,0,0
273188.375,186.546,-572.245,0,0
273448.7,188.352,-571.598,0,0
273709.025,190.423,-571.079,0,0
273969.35,192.783,-570.814,0,0
274229.675,195.332,-570.891,0,0
274490.0,198,-571.33,0,0
274750.325,200.752,-572.192,0,0
275010.65,203.504,-573.548,0,0
275270.975,206.139,-575.317,0,0
275531.3,208.596,-577.491,0,0
275791.625,210.867,-580.064,0,0
276051.95,212.828,-583.113,0,0
276312.275,214.33,-586.529,0,0
276572.6,215.348,-590.185,0,0
276832.925,215.791,-593.965,0,0
277093.25,215.657,-597.722,0,0
277353.575,215.053,-601.417,0,0
277613.9,214.017,-604.875,0,0
277874.225,212.628,-608.112,0,0
278134.55,210.975,-611.115,0,0
278394.875,209.084,-613.858,0,0
278655.2,207.023,-616.285,0,0
278915.525,204.876,-618.541,0,0
279175.85,202.603,-620.576,0,0
279436.175,200.223,-622.421,0,0
279696.5,197.809,-624.023,0,0
279956.825,195.39,-625.537,0,0
280217.15,192.921,-626.728,0,0
280477.475,190.475,-627.851,0,0
280737.8,188.071,-628.891,0,0
280998.125,185.567,-629.877,0,0
281258.45,183.062,-630.788,0,0
281518.775,180.44,-631.596,0,0
281779.1,177.766,-632.312,0,0
282039.425,175.019,-632.923,0,0
282299.75,172.13,-633.436,0,0
282560,169.104,-633.742,0,0
282820,165.916,-633.827,0,0
283081,162.709,-633.544,0,0
283341,159.561,-632.908,0,0
283601,156.616,-631.947,0,0
283862,153.926,-630.762,0,0
284122,151.585,-629.483,0,0
284382,149.542,-628.336,0,0
284643,147.653,-627.36,0,0
284903,145.694,-626.633,0,0
285163,143.548,-626.01,0,0
285424,141.097,-625.363,0,0
285684,138.502,-624.521,0,0
285944,135.782,-623.41,0,0
286205,132.98,-622.067,0,0
286465,130.153,-620.45,0,0
286725,127.337,-618.483,0,0
286986,124.612,-616.186,0,0
287246,122.055,-613.565,0,0
287506,119.71,-610.642,0,0
287767,117.603,-607.459,0,0
288027,115.817,-604.024,0,0
288287,114.4,-600.399,0,0
288548,113.332,-596.605,0,0
288808,112.655,-592.694,0,0
289068,112.442,-588.705,0,0
289329,112.723,-584.679,0,0
289589,113.524,-580.731,0,0
289849,114.86,-577.006,0,0
290109,116.665,-573.585,0,0
290370,118.85,-570.574,0,0
290630,121.336,-567.985,0,0
290890,124.039,-565.855,0,0
291151,126.877,-564.177,0,0
291411,129.831,-562.982,0,0
291671,132.787,-562.262,0,0
291932,135.71,-562.032,0,0
292192,138.487,-562.326,0,0
292452,141.044,-563.036,0,0
292713,143.279,-564.147,0,0
292973,145.2,-565.628,0,0
293233,146.636,-567.433,0,0
293494,147.472,-569.368,0,0
293754,147.726,-571.225,0,0
294014,147.554,-572.851,0,0
294275,147.009,-574.122,0,0
294535,146.291,-575.002,0,0
294795,145.476,-575.421,0,0
295056,144.876,-575.35,0,0
295316,144.685,-574.972,0,0
295576,145.091,-574.509,0,0
295837,146.08,-574.397,0,0
296097,147.338,-574.851,0,0
296357,148.619,-576.016,0,0
296618,149.602,-577.752,0,0
296878,150.073,-579.955,0,0
297138,149.929,-582.368,0,0
297399,149.149,-584.746,0,0
297659,147.845,-586.891,0,0
297919,146.181,-588.684,0,0
298180,144.295,-590.119,0,0
298440,142.285,-591.23,0,0
298700.2,140.27,-591.997,0,0
298960.525,138.333,-592.523,0,0
299220.85,136.47,-592.888,0,0
299481.175,134.67,-593.197,0,0
299741.5,132.831,-593.401,0,0
300001.825,130.983,-593.553,0,0
300262.15,129.094,-593.538,0,0
300522.475,127.188,-593.332,0,0
300782.8,125.342,-592.93,0,0
301043.125,123.62,-592.407,0,0
301303.45,122,-591.755,0,0
301563.775,120.514,-590.981,0,0
301824.1,119.221,-590.115,0,0
302084.425,118.139,-589.236,0,0
302344.75,117.253,-588.422,0,0
302605.075,116.531,-587.746,0,0
302865.4,115.918,-587.206,0,0
303125.725,115.367,-586.882,0,0
303386.05,114.765,-586.754,0,0
303646.375,114.066,-586.823,0,0
303906.7,113.188,-586.959,0,0
304167.025,112.18,-587.143,0,0
304427.35,111,-587.321,0,0
304687.675,109.721,-587.504,0,0
304948.0,108.287,-587.659,0,0
305208.325,106.664,-587.733,0,0
305468.65,104.912,-587.68,0,0
305728.975,103.102,-587.449,0,0
305989.3,101.253,-587.095,0,0
306249.625,99.3729,-586.543,0,0
306509.95,97.5231,-585.873,0,0
306770.275,95.7212,-585.081,0,0
307030.6,93.9831,-584.155,0,0
307290.925,92.3289,-583.114,0,0
307551.25,90.7599,-582.027,0,0
307811.575,89.3029,-580.888,0,0
308071.9,87.9115,-579.721,0,0
308332.225,86.5973,-578.553,0,0
308592.55,85.3165,-577.392,0,0
308852.875,84.059,-576.224,0,0
309113.2,82.8703,-575.058,0,0
309373.525,81.6751,-573.841,0,0
309633.85,80.5041,-572.622,0,0
309894.175,79.4069,-571.356,0,0
310154.5,78.3223,-570.114,0,0
310414.825,77.2838,-568.841,0,0
310675.15,76.2703,-567.55,0,0
310935.475,75.2759,-566.242,0,0
311195.8,74.3299,-564.923,0,0
311456.125,73.4101,-563.565,0,0
311716.45,72.5322,-562.181,0,0
311976.775,71.7321,-560.786,0,0
312237.1,70.9996,-559.401,0,0
312497.425,70.3169,-558.045,0,0
312757.75,69.6611,-556.718,0,0
313018.075,69.0425,-555.419,0,0
313278.4,68.4556,-554.126,0,0
313538.725,67.8446,-552.866,0,0
313799.05,67.2615,-551.604,0,0
314059.375,66.707,-550.361,0,0
314319.7,66.1481,-549.115,0,0
314580,65.6337,-547.874,0,0
314840,65.0245,-546.699,0,0
315101,64.5589,-545.448,0,0
315361,64.0118,-544.196,0,0
315621,63.4367,-542.93,0,0
315882,62.974,-541.639,0,0
316142,62.4935,-540.339,0,0
316402,62.0589,-539.071,0,0
316663,61.6219,-537.801,0,0
316923,61.3194,-536.506,0,0
317183,60.8841,-535.214,0,0
317444,60.5929,-533.977,0,0
317704,60.3382,-532.674,0,0
317964,60.0754,-531.436,0,0
318225,59.872,-530.152,0,0
318485,59.6474,-529.029,0,0
318745,59.4826,-527.817,0,0
319006,59.329,-526.753,0,0
319266,59.0997,-525.595,0,0
319526,58.9234,-524.552,0,0
319787,58.7632,-523.382,0,0
320047,58.5094,-522.324,0,0
320307,58.3202,-521.254,0,0
320567,58.0483,-520.155,0,0
320828,57.8694,-519.027,0,0
321088,57.7125,-517.99,0,0
321348,57.4602,-516.927,0,0
321609,57.2327,-515.801,0,0
321869,57.1095,-514.704,0,0
322129,56.8914,-513.543,0,0
322390,56.7883,-512.538,0,0
322650,56.576,-511.391,0,0
322910,56.4239,-510.288,0,0
323171,56.2883,-509.163,0,0
323431,56.0649,-507.982,0,0
323691,55.9009,-506.769,0,0
323952,55.7539,-505.51,0,0
324212,55.6813,-504.27,0,0
324472,55.6017,-502.949,0,0
324733,55.6397,-501.56,0,0
324993,55.7605,-500.164,0,0
325253,55.9832,-498.834,0,0
325514,56.2658,-497.446,0,0
325774,56.6947,-496.141,0,0
326034,57.2073,-494.887,0,0
326295,57.8193,-493.777,0,0
326555,58.4571,-492.777,0,0
326815,59.1476,-491.809,0,0
327076,59.7524,-491.061,0,0
327336,60.4004,-490.375,0,0
327596,61.0276,-489.782,0,0
327857,61.5391,-489.274,0,0
328117,62.016,-488.78,0,0
328377,62.4194,-488.311,0,0
328638,62.8044,-487.838,0,0
328898,63.1441,-487.367,0,0
329158,63.5537,-486.952,0,0
329419,63.8391,-486.576,0,0
329679,64.1493,-486.185,0,0
329939,64.5727,-485.861,0,0
330200,64.8158,-485.581,0,0
330460,65.0349,-485.331,0,0
330720.15,65.3075,-485.141,0,0
330980.475,65.5054,-484.958,0,0
331240.8,65.6568,-484.849,0,0
331501.125,65.7123,-484.771,0,0
331761.45,65.7386,-484.691,0,0
332021.775,65.6536,-484.616,0,0
332282.1,65.5473,-484.539,0,0
332542.425,65.4076,-484.545,0,0
332802.75,65.1285,-484.505,0,0
333063.075,64.7395,-484.358,0,0
333323.4,64.337,-484.142,0,0
333583.725,63.8291,-483.896,0,0
333844.05,63.4035,-483.576,0,0
334104.375,62.8465,-483.204,0,0
334364.7,62.3709,-482.794,0,0
334625.025,61.8252,-482.307,0,0
334885.35,61.3408,-481.797,0,0
335145.675,60.9276,-481.251,0,0
335406.0,60.4606,-480.603,0,0
335666.325,60.068,-480.015,0,0
335926.65,59.607,-479.382,0,0
336186.975,59.1852,-478.68,0,0
336447.3,58.8436,-478.022,0,0
336707.625,58.3831,-477.324,0,0
336967.95,58.053,-476.608,0,0
337228.275,57.6892,-475.935,0,0
337488.6,57.3464,-475.149,0,0
337748.925,56.9978,-474.39,0,0
338009.25,56.6853,-473.554,0,0
338269.575,56.3828,-472.785,0,0
338529.9,56.081,-471.983,0,0
338790.225,55.843,-471.14,0,0
339050.55,55.5728,-470.317,0,0
339310.875,55.3115,-469.508,0,0
339571.2,55.1279,-468.666,0,0
339831.525,54.9247,-467.722,0,0
340091.85,54.76,-466.885,0,0
340352.175,54.585,-466.114,0,0
340612.5,54.4959,-465.202,0,0
340872.825,54.3724,-464.363,0,0
341133.15,54.197,-463.489,0,0
341393.475,54.133,-462.654,0,0
341653.8,54.0279,-461.794,0,0
341914.125,53.9548,-460.982,0,0
342174.45,53.9025,-460.076,0,0
342434.775,53.8102,-459.243,0,0
342695.1,53.7558,-458.348,0,0
342955.425,53.6921,-457.495,0,0
343215.75,53.7026,-456.613,0,0
343476.075,53.7348,-455.742,0,0
343736.4,53.7237,-454.848,0,0
343996.725,53.7613,-453.946,0,0
344257.05,53.8775,-453.062,0,0
344517.375,53.9703,-452.249,0,0
344777.7,54.0821,-451.338,0,0
345038.025,54.2449,-450.45,0,0
345298.35,54.3827,-449.599,0,0
345558.675,54.5493,-448.826,0,0
345819.0,54.7123,-447.982,0,0
346079.325,54.9617,-447.158,0,0
346339.65,55.1557,-446.376,0,0
346599.975,55.3634,-445.622,0,0
346860,55.6381,-444.853,0,0
347121,55.8632,-444.134,0,0
347381,56.1884,-443.383,0,0
347641,56.4404,-442.676,0,0
347902,56.6723,-442.041,0,0
348162,56.9757,-441.294,0,0
348422,57.2436,-440.658,0,0
348683,57.5559,-439.976,0,0
348943,57.8252,-439.298,0,0
349203,58.1766,-438.662,0,0
349464,58.5163,-438.016,0,0
349724,58.9203,-437.459,0,0
349984,59.2525,-436.927,0,0
350245,59.615,-436.336,0,0
350505,59.9729,-435.889,0,0
350765,60.3706,-435.412,0,0
351025,60.6887,-434.981,0,0
351286,60.9926,-434.536,0,0
351546,61.3669,-434.128,0,0
351806,61.6021,-433.769,0,0
352067,61.8508,-433.379,0,0
352327,62.086,-432.993,0,0
352587,62.2792,-432.564,0,0
352848,62.5174,-432.141,0,0
353108,62.7294,-431.73,0,0
353368,62.9256,-431.299,0,0
353629,63.1896,-430.865,0,0
353889,63.3973,-430.463,0,0
354149,63.6603,-429.99,0,0
354410,63.8923,-429.572,0,0
354670,64.184,-429.189,0,0
354930,64.4424,-428.799,0,0
355191,64.7196,-428.409,0,0
355451,64.9753,-428.068,0,0
355711,65.2327,-427.693,0,0
355972,65.5073,-427.288,0,0
356232,65.7702,-426.982,0,0
356492,66.0556,-426.658,0,0
356753,66.3307,-426.308,0,0
357013,66.5736,-425.958,0,0
357273,66.9084,-425.661,0,0
357534,67.2148,-425.348,0,0
357794,67.5389,-425.016,0,0
358054,67.8608,-424.757,0,0
358315,68.2214,-424.511,0,0
358575,68.5607,-424.289,0,0
358835,68.9385,-424.119,0,0
359096,69.3411,-423.994,0,0
359356,69.647,-423.873,0,0
359616,70.0077,-423.829,0,0
359877,70.3224,-423.81,0,0
360137,70.5654,-423.93,0,0
360397,70.7641,-423.987,0,0
360658,70.9359,-424.055,0,0
360918,71.0026,-424.07,0,0
361178,71.0871,-424.121,0,0
361438,71.0968,-424.134,0,0
361699,71.0885,-424.168,0,0
361959,71.1316,-424.193,0,0
362219,71.1523,-424.212,0,0
362480,71.084,-424.168,0,0
362740.1,71.0188,-424.172,0,0
363000.425,71.0145,-424.203,0,0
363260.75,70.9417,-424.184,0,0
363521.075,70.8404,-424.172,0,0
363781.4,70.7428,-424.138,0,0
364041.725,70.5956,-424.053,0,0
364302.05,70.4208,-424.08,0,0
364562.375,70.1923,-424.028,0,0
364822.7,70.0376,-423.956,0,0
365083.025,69.8071,-423.894,0,0
365343.35,69.6117,-423.709,0,0
365603.675,69.3593,-423.578,0,0
365864.0,69.1406,-423.401,0,0
366124.325,68.8911,-423.184,0,0
366384.65,68.6795,-422.963,0,0
366644.975,68.4409,-422.709,0,0
366905.3,68.2403,-422.434,0,0
367165.625,68.0468,-422.159,0,0
367425.95,67.9304,-421.84,0,0
367686.275,67.7743,-421.489,0,0
367946.6,67.7773,-421.206,0,0
368206.925,67.7256,-420.884,0,0
368467.25,67.7264,-420.608,0,0
368727.575,67.702,-420.388,0,0
368987.9,67.7132,-420.233,0,0
369248.225,67.7573,-420.078,0,0
369508.55,67.7242,-419.986,0,0
369768.875,67.6762,-419.961,0,0
370029.2,67.575,-419.92,0,0
370289.525,67.5041,-419.86,0,0
370549.85,67.2601,-419.845,0,0
370810.175,66.9843,-419.811,0,0
371070.5,66.7127,-419.726,0,0
371330.825,66.4513,-419.607,0,0
371591.15,66.204,-419.412,0,0
371851.475,65.93,-419.253,0,0
372111.8,65.6469,-419.045,0,0
372372.125,65.3909,-418.847,0,0
372632.45,65.1447,-418.63,0,0
372892.775,64.8858,-418.408,0,0
373153.1,64.6568,-418.189,0,0
373413.425,64.4458,-418.001,0,0
373673.75,64.2147,-417.795,0,0
373934.075,63.9559,-417.639,0,0
374194.4,63.7042,-417.482,0,0
374454.725,63.4529,-417.273,0,0
374715.05,63.1608,-417.089,0,0
374975.375,62.8591,-416.89,0,0
375235.7,62.5717,-416.686,0,0
375496.025,62.24,-416.481,0,0
375756.35,61.9251,-416.24,0,0
376016.675,61.5475,-415.99,0,0
376277.0,61.2101,-415.727,0,0
376537.325,60.9412,-415.427,0,0
376797.65,60.6057,-415.138,0,0
377057.975,60.3797,-414.841,0,0
377318.3,60.1041,-414.588,0,0
377578.625,59.8464,-414.357,0,0
377838.95,59.5658,-414.173,0,0
378099.275,59.2234,-414.026,0,0
378359.6,58.8615,-413.84,0,0
378619.925,58.3606,-413.772,0,0
378880,57.8939,-413.573,0,0
379141,57.2954,-413.343,0,0
379401,56.6301,-413.091,0,0
379661,55.9798,-412.683,0,0
379922,55.2787,-412.159,0,0
380182,54.6113,-411.512,0,0
380442,54.0988,-410.762,0,0
380703,53.666,-409.933,0,0
380963,53.4357,-409.124,0,0
381223,53.2817,-408.329,0,0
381483,53.2232,-407.663,0,0
381744,53.248,-407.113,0,0
382004,53.2263,-406.675,0,0
382264,53.1973,-406.26,0,0
382525,53.1461,-405.935,0,0
382785,53.0096,-405.639,0,0
383045,52.7892,-405.41,0,0
383306,52.5085,-405.128,0,0
383566,52.2064,-404.852,0,0
383826,51.8355,-404.494,0,0
384087,51.4644,-404.19,0,0
384347,51.0777,-403.784,0,0
384607,50.6633,-403.364,0,0
384868,50.2538,-402.891,0,0
385128,49.8357,-402.418,0,0
385388,49.4153,-401.896,0,0
385649,49.0769,-401.346,0,0
385909,48.6553,-400.758,0,0
386169,48.3119,-400.26,0,0
386430,47.9492,-399.574,0,0
386690,47.58,-398.997,0,0
386950,47.2304,-398.355,0,0
387211,46.9219,-397.69,0,0
387471,46.5836,-396.994,0,0
387731,46.3186,-396.333,0,0
387992,46.0837,-395.625,0,0
388252,45.82,-394.897,0,0
388512,45.676,-394.171,0,0
388773,45.4711,-393.429,0,0
389033,45.3159,-392.73,0,0
389293,45.243,-391.988,0,0
389554,45.1803,-391.276,0,0
389814,45.172,-390.558,0,0
390074,45.1744,-389.922,0,0
390335,45.2192,-389.319,0,0
390595,45.2376,-388.716,0,0
390855,45.322,-388.163,0,0
391116,45.3494,-387.699,0,0
391376,45.4239,-387.194,0,0
391636,45.4217,-386.815,0,0
391896,45.4154,-386.47,0,0
392157,45.2909,-386.162,0,0
392417,45.1573,-385.855,0,0
392677,44.9305,-385.562,0,0
392938,44.6611,-385.157,0,0
393198,44.3335,-384.74,0,0
393458,43.9595,-384.307,0,0
393719,43.6193,-383.756,0,0
393979,43.2334,-383.196,0,0
394239,42.8846,-382.545,0,0
394500,42.5129,-381.91,0,0
394760.05,42.2213,-381.194,0,0
395020.375,41.929,-380.469,0,0
395280.7,41.6899,-379.682,0,0
395541.025,41.4596,-378.89,0,0
395801.35,41.3184,-378.079,0,0
396061.675,41.1552,-377.282,0,0
396322.0,41.0162,-376.47,0,0
396582.325,40.9437,-375.632,0,0
396842.65,40.8684,-374.834,0,0
397102.975,40.8286,-374.017,0,0
397363.3,40.8598,-373.206,0,0
397623.625,40.8607,-372.424,0,0
397883.95,40.942,-371.62,0,0
398144.275,40.9519,-370.849,0,0
398404.6,41.0688,-370.133,0,0
398664.925,41.1417,-369.366,0,0
398925.25,41.2734,-368.634,0,0
399185.575,41.4323,-367.925,0,0
399445.9,41.5392,-367.258,0,0
399706.225,41.6597,-366.556,0,0
399966.55,41.8076,-365.895,0,0
400006.6,41.8472,-365.782,0,0