File: Accelerated corrosion test data/2025-10-05_06-00-04/sample_8.csv
Frequency (Hz),Impedance (ohms),Phase (Radians),Temperature (C),Humidity (%)
10000.0,309.731,-10950.1,0,0
10260.325,301.603,-10675.5,0,0
10520.65,294.696,-10414.3,0,0
10780.975,287.529,-10166,0,0
11041.3,280.635,-9929.5,0,0
11301.625,274.559,-9704.03,0,0
11561.95,268.493,-9487.24,0,0
11822.275,262.846,-9281.24,0,0
12082.6,259.625,-9081.31,0,0
12342.925,257.923,-8895.25,0,0
12603.25,252.484,-8714.31,0,0
12863.575,249.104,-8543.21,0,0
13123.9,241.316,-8379.36,0,0
13384.225,235.325,-8217.38,0,0
13644.55,232.232,-8061.4,0,0
13904.875,224.784,-7914.69,0,0
14165.2,219.025,-7769.88,0,0
14425.525,215.431,-7630.43,0,0
14685.8,211.394,-7497.07,0,0
14946.175,207.789,-7367.12,0,0
15206.5,204.482,-7242.18,0,0
15466.825,201.069,-7121.85,0,0
15727.15,197.974,-7005.24,0,0
15987.5,194.753,-6892.25,0,0
16247.8,192.063,-6782.77,0,0
16508.125,188.616,-6676.67,0,0
16768.45,185.708,-6574.12,0,0
17028.775,182.668,-6474,0,0
17289.1,179.933,-6377.18,0,0
17549.425,177.53,-6283.05,0,0
17809.75,175.129,-6190.88,0,0
18070.075,173.293,-6103.92,0,0
18330.4,170.42,-6016.79,0,0
18590.725,168.485,-5931.79,0,0
18851.05,168.43,-5848.69,0,0
19111.375,166.93,-5770.16,0,0
19371.7,169.511,-5692.78,0,0
19632.025,165.592,-5621.47,0,0
19892.35,163.218,-5551.24,0,0
20152.675,159.76,-5478.37,0,0
20413.0,159.109,-5408.44,0,0
20673.3,158.417,-5341.39,0,0
20933.65,157.307,-5277.33,0,0
21193.975,154.32,-5214.56,0,0
21454.3,151.823,-5150.32,0,0
21714.625,149.828,-5088.15,0,0
21974.9,150.09,-5028.51,0,0
22235.275,149.93,-4970.28,0,0
22495.6,147.647,-4914.66,0,0
22755.925,146.642,-4859.22,0,0
23016.25,143.79,-4805.68,0,0
23276.6,140.744,-4752.96,0,0
23536.9,138.855,-4700.47,0,0
23797.225,136.893,-4649.48,0,0
24057.55,135.028,-4599.03,0,0
24317.875,133.629,-4549.54,0,0
24578.2,131.804,-4501.32,0,0
24838.525,130.056,-4453.27,0,0
25098.85,129.787,-4407.11,0,0
25359.175,127.901,-4362.14,0,0
25619.5,126.728,-4317.25,0,0
25879.8,125.463,-4273.64,0,0
26140.1,124.885,-4231.16,0,0
26400.5,123.819,-4189.85,0,0
26660.8,122.143,-4148.3,0,0
26921.1,121.361,-4106.94,0,0
27181.4,121.945,-4067.64,0,0
27441.8,120.531,-4029.25,0,0
27702.1,119.776,-3991.77,0,0
27962.4,118.422,-3955.08,0,0
28222.7,118.429,-3916.56,0,0
28483.1,117.869,-3881.24,0,0
28743.4,117.262,-3845.33,0,0
29003.7,117.082,-3811.17,0,0
29264,116.582,-3776.55,0,0
29524.4,115.943,-3743.94,0,0
29784.7,116.033,-3710.76,0,0
30045,116.308,-3679.04,0,0
30305.3,115.886,-3647.75,0,0
30565.7,114.867,-3617.4,0,0
30826,114.142,-3586.75,0,0
31086.3,113.335,-3557.07,0,0
31346.6,112.756,-3526.76,0,0
31607,112.123,-3497.96,0,0
31867.3,111.967,-3468.99,0,0
32127.6,111.814,-3441.18,0,0
32387.9,111.198,-3413.2,0,0
32648.3,111.415,-3385.55,0,0
32908.6,111.47,-3357.82,0,0
33168.9,111.718,-3332.34,0,0
33429.2,112.903,-3306.28,0,0
33689.6,113.971,-3281.88,0,0
33949.9,113.786,-3258.91,0,0
34210.2,113.021,-3235.44,0,0
34470.5,112.046,-3211.98,0,0
34730.9,111.149,-3188.59,0,0
34991.2,111.209,-3165.42,0,0
35251.5,110.355,-3143.66,0,0
35511.8,109.214,-3122.13,0,0
35772.2,107.433,-3100.62,0,0
36032.5,106.311,-3078.67,0,0
36292.8,104.59,-3057.33,0,0
36553.1,103.057,-3035.78,0,0
36813.5,101.715,-3014.77,0,0
37073.8,100.267,-2993.56,0,0
37334.1,99.1482,-2972.8,0,0
37594.4,97.6539,-2952.68,0,0
37854.8,95.8733,-2931.98,0,0
38115.1,94.7281,-2911.84,0,0
38375.4,93.3873,-2892.01,0,0
38635.7,92.089,-2871.88,0,0
38896.1,90.8462,-2852.36,0,0
39156.4,89.5871,-2832.91,0,0
39416.7,88.681,-2813.48,0,0
39677,87.6963,-2794.72,0,0
39937.4,86.7515,-2775.68,0,0
40197.7,85.8012,-2756.6,0,0
40458,85.7757,-2737.88,0,0
40718.3,85.6199,-2720.08,0,0
40978.7,84.9013,-2702.89,0,0
41239,84.3426,-2685.16,0,0
41499.3,83.7981,-2667.68,0,0
41759.6,83.359,-2650.6,0,0
42020,82.7924,-2633.92,0,0
42280.275,82.1375,-2617.01,0,0
42540.6,81.8846,-2600.34,0,0
42800.925,81.5925,-2583.75,0,0
43061.25,81.7516,-2567.6,0,0
43321.575,81.9121,-2551.9,0,0
43581.9,81.9193,-2536.66,0,0
43842.225,81.2783,-2522.11,0,0
44102.55,80.6475,-2507.19,0,0
44362.875,79.9243,-2492.3,0,0
44623.2,79.3276,-2477.52,0,0
44883.525,78.6687,-2462.88,0,0
45143.85,78.213,-2447.97,0,0
45404.175,77.6499,-2433.51,0,0
45664.5,77.0245,-2419.24,0,0
45924.825,76.6236,-2405.23,0,0
46185.15,76.0837,-2391.21,0,0
46445.475,75.5337,-2377.31,0,0
46705.8,75.307,-2363.35,0,0
46966.125,74.8547,-2349.72,0,0
47226.45,74.72,-2336.42,0,0
47486.775,74.3959,-2323.19,0,0
47747.1,74.1829,-2309.98,0,0
48007.425,73.8953,-2297.27,0,0
48267.75,73.506,-2284.44,0,0
48528.075,73.2108,-2271.98,0,0
48788.4,72.8852,-2259.67,0,0
49048.725,72.2222,-2247.33,0,0
49309.05,71.6035,-2234.74,0,0
49569.375,71.3737,-2222.39,0,0
49829.7,70.9844,-2210.4,0,0
50090.025,70.6084,-2198.26,0,0
50350.35,70.4435,-2186.37,0,0
50610.675,70.1104,-2174.57,0,0
50871.0,69.9036,-2162.89,0,0
51131.325,69.6079,-2151.3,0,0
51391.65,69.5514,-2139.77,0,0
51651.975,69.4727,-2128.48,0,0
51912.3,69.6,-2117.32,0,0
52172.625,69.2733,-2106.43,0,0
52432.95,69.1915,-2095.67,0,0
52693.275,69.0979,-2084.64,0,0
52953.6,69.1503,-2074.07,0,0
53213.925,69.2738,-2063.76,0,0
53474.25,69.0652,-2053.66,0,0
53734.575,69.1679,-2043.74,0,0
53994.9,68.5613,-2034.22,0,0
54255.225,67.8441,-2024.21,0,0
54515.55,67.0481,-2014.11,0,0
54775.875,66.6686,-2003.97,0,0
55036.2,66.1656,-1994.45,0,0
55296.525,65.4943,-1984.58,0,0
55556.85,64.7861,-1974.76,0,0
55817.175,64.4117,-1964.8,0,0
56077.5,63.8249,-1955.02,0,0
56337.825,63.2865,-1945.23,0,0
56598.15,63.0052,-1935.43,0,0
56858.475,62.6884,-1925.78,0,0
57118.8,62.4928,-1916.14,0,0
57379.125,62.2906,-1906.75,0,0
57639.45,62.2214,-1897.42,0,0
57899.775,62.0996,-1888.22,0,0
58160.1,61.9125,-1879.06,0,0
58420.4,61.899,-1869.98,0,0
58680.7,61.8491,-1861.05,0,0
58941.1,61.8978,-1852.15,0,0
59201.4,62.0454,-1843.62,0,0
59461.7,61.8389,-1835.39,0,0
59722,61.3666,-1826.88,0,0
59982.4,61.015,-1818.38,0,0
60242.7,60.6029,-1809.8,0,0
60503,60.3923,-1801.17,0,0
60763.3,60.2485,-1792.62,0,0
61023.7,60.2189,-1784.1,0,0
61284,60.3246,-1775.92,0,0
61544.3,60.3068,-1767.68,0,0
61804.6,60.3879,-1759.64,0,0
62065,60.1781,-1751.74,0,0
62325.3,60.0719,-1743.57,0,0
62585.6,60.169,-1735.49,0,0
62845.9,60.2211,-1727.55,0,0
63106.3,60.4149,-1719.76,0,0
63366.6,60.6828,-1711.87,0,0
63626.9,61.0582,-1704.4,0,0
63887.2,61.1972,-1697.03,0,0
64147.6,61.5364,-1689.7,0,0
64407.9,61.9872,-1682.63,0,0
64668.2,62.0674,-1675.92,0,0
64928.5,61.9125,-1669.03,0,0
65188.9,61.7167,-1662.23,0,0
65449.2,61.59,-1655.4,0,0
65709.5,61.1379,-1648.66,0,0
65969.8,60.8735,-1641.69,0,0
66230.2,60.7442,-1634.9,0,0
66490.5,60.0873,-1628.3,0,0
66750.8,59.5983,-1621.29,0,0
67011.1,59.1844,-1614.19,0,0
67271.5,58.9125,-1607.23,0,0
67531.8,58.6317,-1600.33,0,0
67792.1,58.4635,-1593.54,0,0
68052.4,58.2869,-1586.69,0,0
68312.8,58.1149,-1579.92,0,0
68573.1,57.9878,-1573.13,0,0
68833.4,57.7613,-1566.49,0,0
69093.7,57.6434,-1559.68,0,0
69354.1,57.6833,-1553.09,0,0
69614.4,57.6749,-1546.37,0,0
69874.7,57.8052,-1539.9,0,0
70135,57.8489,-1533.47,0,0
70395.4,58.0194,-1527.1,0,0
70655.7,58.1225,-1520.89,0,0
70916,58.2086,-1514.67,0,0
71176.3,58.141,-1508.61,0,0
71436.7,58.2371,-1502.49,0,0
71697,58.3591,-1496.39,0,0
71957.3,58.518,-1490.71,0,0
72217.6,58.4016,-1484.84,0,0
72478,58.4933,-1478.98,0,0
72738.3,58.3391,-1473.44,0,0
72998.6,58.0198,-1467.79,0,0
73258.9,57.6014,-1461.82,0,0
73519.3,57.3499,-1455.81,0,0
73779.6,57.312,-1449.9,0,0
74039.9,57.343,-1444.03,0,0
74300.225,57.379,-1438.33,0,0
74560.55,57.2502,-1432.79,0,0
74820.875,57.0446,-1427.03,0,0
75081.2,56.9643,-1421.23,0,0
75341.525,56.9472,-1415.69,0,0
75601.85,56.8286,-1409.96,0,0
75862.175,56.9916,-1404.25,0,0
76122.5,57.0112,-1398.79,0,0
76382.825,57.0962,-1393.36,0,0
76643.15,57.1478,-1387.98,0,0
76903.475,57.1145,-1382.69,0,0
77163.8,57.0642,-1377.41,0,0
77424.125,56.986,-1372.04,0,0
77684.45,56.9355,-1366.71,0,0
77944.775,56.9176,-1361.44,0,0
78205.1,56.7847,-1356.22,0,0
78465.425,56.6644,-1351.07,0,0
78725.75,56.5115,-1345.73,0,0
78986.075,56.4372,-1340.37,0,0
79246.4,56.4706,-1335.13,0,0
79506.725,56.4621,-1329.86,0,0
79767.05,56.4445,-1324.61,0,0
80027.375,56.475,-1319.47,0,0
80287.7,56.6045,-1314.27,0,0
80548.025,56.6952,-1309.12,0,0
80808.35,56.8011,-1304.08,0,0
81068.675,56.7949,-1299.04,0,0
81329.0,56.8338,-1293.83,0,0
81589.325,56.986,-1288.74,0,0
81849.65,57.1755,-1283.64,0,0
82109.975,57.4862,-1278.48,0,0
82370.3,57.8801,-1273.6,0,0
82630.625,58.2178,-1268.75,0,0
82890.95,58.565,-1263.93,0,0
83151.275,58.9582,-1259.19,0,0
83411.6,59.1897,-1254.55,0,0
83671.925,59.4652,-1249.79,0,0
83932.25,59.9661,-1245.11,0,0
84192.575,60.4109,-1240.62,0,0
84452.9,60.7785,-1236.23,0,0
84713.225,61.1949,-1231.93,0,0
84973.55,61.5464,-1227.74,0,0
85233.875,61.4925,-1223.84,0,0
85494.2,61.1306,-1219.55,0,0
85754.525,61.0114,-1214.99,0,0
86014.85,60.8413,-1210.36,0,0
86275.175,60.9627,-1205.77,0,0
86535.5,60.9599,-1201.21,0,0
86795.825,61.1824,-1196.45,0,0
87056.15,61.4864,-1191.89,0,0
87316.475,61.7534,-1187.41,0,0
87576.8,62.0254,-1182.99,0,0
87837.125,62.2799,-1178.41,0,0
88097.45,62.7208,-1173.91,0,0
88357.775,63.2576,-1169.54,0,0
88618.1,63.6485,-1165.28,0,0
88878.425,64.0905,-1160.98,0,0
89138.75,64.5141,-1156.73,0,0
89399.075,64.9075,-1152.41,0,0
89659.4,65.3578,-1148.26,0,0
89919.725,65.7823,-1143.94,0,0
90180,66.4095,-1139.73,0,0
90440.4,67.1368,-1135.41,0,0
90700.7,67.898,-1131.16,0,0
90961,68.9843,-1127.1,0,0
91221.3,69.7352,-1123.29,0,0
91481.7,71.0774,-1119.49,0,0
91742,72.0909,-1116.14,0,0
92002.3,72.8627,-1112.9,0,0
92262.6,73.6333,-1109.8,0,0
92523,74.32,-1106.74,0,0
92783.3,74.7138,-1104.02,0,0
93043.6,74.8169,-1101.07,0,0
93303.9,74.5389,-1098.29,0,0
93564.3,74.0376,-1094.74,0,0
93824.6,73.8675,-1090.87,0,0
94084.9,74.2366,-1087.14,0,0
94345.2,74.5241,-1083.66,0,0
94605.6,74.5365,-1080.29,0,0
94865.9,74.6233,-1076.53,0,0
95126.2,75.054,-1073.05,0,0
95386.5,75.1779,-1069.57,0,0
95646.9,75.6479,-1065.86,0,0
95907.2,76.0625,-1062.7,0,0
96167.5,76.1727,-1059.29,0,0
96427.8,76.3372,-1055.72,0,0
96688.2,76.8656,-1052.13,0,0
96948.5,77.4216,-1048.86,0,0
97208.8,77.8339,-1045.66,0,0
97469.1,78.2532,-1042.32,0,0
97729.5,78.8907,-1039.1,0,0
97989.8,79.5569,-1036.12,0,0
98250.1,80.0621,-1033.35,0,0
98510.4,80.3529,-1030.62,0,0
98770.8,80.6236,-1027.83,0,0
99031.1,80.7933,-1025.2,0,0
99291.4,80.6869,-1022.57,0,0
99551.7,80.3921,-1019.56,0,0
99812.1,80.3397,-1016.46,0,0
100072,80.4916,-1013.32,0,0
100333,80.6849,-1010.39,0,0
100593,80.8149,-1007.48,0,0
100853,80.9279,-1004.7,0,0
101114,80.9234,-1002.03,0,0
101374,80.7466,-999.162,0,0
101634,80.6467,-996.292,0,0
101895,80.5515,-993.539,0,0
102155,80.2359,-990.73,0,0
102415,79.9287,-987.754,0,0
102676,79.6121,-984.76,0,0
102936,79.3337,-981.699,0,0
103196,79.021,-978.527,0,0
103457,78.7496,-975.231,0,0
103717,78.7869,-971.893,0,0
103977,78.8676,-968.691,0,0
104238,79.0175,-965.638,0,0
104498,79.0153,-962.796,0,0
104758,78.7659,-959.79,0,0
105019,78.589,-956.689,0,0
105279,78.4735,-953.343,0,0
105539,78.5643,-949.985,0,0
105800,78.7787,-946.715,0,0
106060,79.1289,-943.636,0,0
106320.175,79.3736,-940.644,0,0
106580.5,79.7173,-937.542,0,0
106840.825,80.1471,-934.61,0,0
107101.15,80.6031,-931.908,0,0
107361.475,80.8138,-929.315,0,0
107621.8,80.9075,-926.727,0,0
107882.125,80.9386,-924.156,0,0
108142.45,80.8168,-921.463,0,0
108402.775,80.6548,-918.593,0,0
108663.1,80.6287,-915.65,0,0
108923.425,80.7149,-912.721,0,0
109183.75,80.8876,-909.795,0,0
109444.075,81.0738,-906.954,0,0
109704.4,81.3018,-904.185,0,0
109964.725,81.5188,-901.536,0,0
110225.05,81.7074,-898.909,0,0
110485.375,81.8109,-896.319,0,0
110745.7,81.8342,-893.667,0,0
111006.025,81.8887,-891.103,0,0
111266.35,81.8497,-888.696,0,0
111526.675,81.7692,-885.95,0,0
111787.0,81.8242,-883.183,0,0
112047.325,81.8938,-880.498,0,0
112307.65,81.8623,-877.88,0,0
112567.975,81.8128,-875.258,0,0
112828.3,81.826,-872.586,0,0
113088.625,81.8747,-869.976,0,0
113348.95,81.7774,-867.403,0,0
113609.275,81.7929,-864.839,0,0
113869.6,81.7445,-862.238,0,0
114129.925,81.6037,-859.686,0,0
114390.25,81.4934,-857.039,0,0
114650.575,81.3433,-854.353,0,0
114910.9,81.2907,-851.625,0,0
115171.225,81.24,-848.858,0,0
115431.55,81.2698,-846.288,0,0
115691.875,81.1767,-843.762,0,0
115952.2,81.0499,-841.131,0,0
116212.525,80.9001,-838.452,0,0
116472.85,80.8317,-835.759,0,0
116733.175,80.7276,-833.133,0,0
116993.5,80.5581,-830.439,0,0
117253.825,80.3693,-827.66,0,0
117514.15,80.3076,-824.823,0,0
117774.475,80.3163,-821.98,0,0
118034.8,80.4186,-819.164,0,0
118295.125,80.4775,-816.406,0,0
118555.45,80.6123,-813.703,0,0
118815.775,80.8728,-811.007,0,0
119076.1,81.0601,-808.569,0,0
119336.425,81.0247,-806.112,0,0
119596.75,80.9715,-803.614,0,0
119857.075,80.7745,-800.995,0,0
120117.4,80.7392,-798.282,0,0
120377.725,80.6734,-795.615,0,0
120638.05,80.6663,-792.993,0,0
120898.375,80.5679,-790.32,0,0
121158.7,80.4998,-787.528,0,0
121419.025,80.5773,-784.738,0,0
121679.35,80.5964,-782.089,0,0
121939.675,80.6303,-779.344,0,0
122200.0,80.7148,-776.612,0,0
122460,80.8752,-773.901,0,0
122721,81.0651,-771.338,0,0
122981,81.121,-768.85,0,0
123241,81.0285,-766.317,0,0
123502,80.8426,-763.607,0,0
123762,80.7818,-760.762,0,0
124022,80.8526,-757.909,0,0
124283,80.9689,-755.075,0,0
124543,81.0992,-752.248,0,0
124803,81.3361,-749.446,0,0
125064,81.5821,-746.677,0,0
125324,81.918,-743.886,0,0
125584,82.2634,-741.217,0,0
125845,82.6124,-738.651,0,0
126105,82.8963,-736.138,0,0
126365,83.1728,-733.594,0,0
126626,83.3513,-731.05,0,0
126886,83.5865,-728.488,0,0
127146,83.742,-725.954,0,0
127406,84.0047,-723.441,0,0
127667,84.2793,-721.021,0,0
127927,84.354,-718.554,0,0
128187,84.475,-715.991,0,0
128448,84.6225,-713.464,0,0
128708,84.7953,-710.971,0,0
128968,84.8306,-708.518,0,0
129229,84.959,-705.916,0,0
129489,85.0089,-703.393,0,0
129749,85.0004,-700.787,0,0
130010,84.9688,-698.137,0,0
130270,84.9649,-695.223,0,0
130530,85.0872,-692.305,0,0
130791,85.5842,-689.381,0,0
131051,86.1346,-686.724,0,0
131311,86.5406,-684.254,0,0
131572,86.9302,-681.748,0,0
131832,87.2497,-679.435,0,0
132092,87.2995,-677.124,0,0
132353,87.1655,-674.602,0,0
132613,87.1085,-671.82,0,0
132873,87.1703,-668.94,0,0
133134,87.4288,-665.995,0,0
133394,87.8298,-663.177,0,0
133654,88.2105,-660.481,0,0
133915,88.5759,-657.813,0,0
134175,88.8363,-655.142,0,0
134435,89.096,-652.373,0,0
134696,89.3706,-649.532,0,0
134956,89.7861,-646.666,0,0
135216,90.2875,-643.772,0,0
135477,90.9327,-640.858,0,0
135737,91.7748,-638.156,0,0
135997,92.6103,-635.623,0,0
136258,93.4801,-633.338,0,0
136518,94.0891,-631.293,0,0
136778,94.4471,-629.214,0,0
137039,94.7159,-627.151,0,0
137299,94.7183,-625.059,0,0
137559,94.5281,-622.857,0,0
137819,94.2628,-620.384,0,0
138080,93.9629,-617.726,0,0
138340.125,93.6487,-614.894,0,0
138600.45,93.4589,-611.776,0,0
138860.775,93.5245,-608.574,0,0
139121.1,93.7281,-605.405,0,0
139381.425,94.0727,-602.299,0,0
139641.75,94.4506,-599.294,0,0
139902.075,94.69,-596.324,0,0
140162.4,94.9822,-593.201,0,0
140422.725,95.3646,-590.141,0,0
140683.05,95.68,-587.146,0,0
140943.375,95.908,-583.995,0,0
141203.7,96.1784,-580.688,0,0
141464.025,96.6432,-577.319,0,0
141724.35,97.2008,-573.984,0,0
141984.675,97.7682,-570.732,0,0
142245.0,98.2775,-567.469,0,0
142505.325,98.7974,-564.053,0,0
142765.65,99.4231,-560.518,0,0
143025.975,100.215,-556.996,0,0
143286.3,101.046,-553.572,0,0
143546.625,101.834,-550.144,0,0
143806.95,102.664,-546.628,0,0
144067.275,103.506,-543.04,0,0
144327.6,104.439,-539.365,0,0
144587.925,105.439,-535.583,0,0
144848.25,106.549,-531.715,0,0
145108.575,107.943,-527.625,0,0
145368.9,109.697,-523.663,0,0
145629.225,111.643,-519.833,0,0
145889.55,113.828,-516.229,0,0
146149.875,115.966,-512.977,0,0
146410.2,117.992,-509.793,0,0
146670.525,119.962,-506.581,0,0
146930.85,122.098,-503.385,0,0
147191.175,124.292,-500.389,0,0
147451.5,126.44,-497.584,0,0
147711.825,128.503,-494.974,0,0
147972.15,130.114,-492.54,0,0
148232.475,131.293,-489.706,0,0
148492.8,132.487,-486.248,0,0
148753.125,134.163,-482.364,0,0
149013.45,136.237,-478.552,0,0
149273.775,138.476,-474.698,0,0
149534.1,141.066,-470.722,0,0
149794.425,143.96,-466.966,0,0
150054.75,147.094,-463.254,0,0
150315.075,150.481,-459.612,0,0
150575.4,154.191,-455.902,0,0
150835.725,158.589,-452.47,0,0
151096.05,163.365,-449.53,0,0
151356.375,168.483,-447.203,0,0
151616.7,173.883,-445.762,0,0
151877.025,178.871,-445.26,0,0
152137.35,183.224,-445.44,0,0
152397.675,186.959,-445.777,0,0
152658.0,190.166,-446.578,0,0
152918.325,192.368,-447.236,0,0
153178.65,194.172,-447.28,0,0
153438.975,196.039,-447.092,0,0
153699.3,197.583,-446.732,0,0
153959.625,199.13,-446.12,0,0
154219.95,200.615,-445.354,0,0
154480,202.029,-444.403,0,0
154741,203.468,-442.993,0,0
155001,205.255,-441.279,0,0
155261,207.61,-439.469,0,0
155522,210.532,-437.965,0,0
155782,213.739,-437.148,0,0
156042,217.079,-436.785,0,0
156303,220.498,-437.372,0,0
156563,223.167,-439.556,0,0
156823,223.564,-441.947,0,0
157084,222.608,-443.208,0,0
157344,220.781,-443.305,0,0
157604,218.949,-441.42,0,0
157864,218.249,-438.408,0,0
158125,218.637,-434.953,0,0
158385,220.055,-431.782,0,0
158645,221.457,-429.076,0,0
158906,223.457,-425.424,0,0
159166,226.812,-422.747,0,0
159426,230.543,-421.18,0,0
159687,234.188,-420.89,0,0
159947,236.794,-421.541,0,0
160207,237.968,-422.267,0,0
160468,238.392,-422.267,0,0
160728,238.604,-421.765,0,0
160988,238.075,-420.426,0,0
161249,237.913,-417.648,0,0
161509,238.999,-414.403,0,0
161769,240.924,-411.212,0,0
162030,243.55,-408.453,0,0
162290,246.432,-405.834,0,0
162550,249.839,-403.572,0,0
162811,253.741,-402.044,0,0
163071,257.534,-401.359,0,0
163331,261.062,-401.03,0,0
163592,264.512,-401.092,0,0
163852,267.619,-401.815,0,0
164112,270.283,-402.749,0,0
164373,272.284,-404.121,0,0
164633,273.535,-404.94,0,0
164893,274.988,-405.547,0,0
165154,276.465,-406.269,0,0
165414,277.931,-407.193,0,0
165674,279.221,-408.677,0,0
165935,279.712,-410.709,0,0
166195,278.787,-412.686,0,0
166455,277.239,-413.667,0,0
166716,275.502,-414.007,0,0
166976,273.471,-413.907,0,0
167236,271.31,-412.939,0,0
167497,269.268,-411.41,0,0
167757,267.524,-409.451,0,0
168017,265.861,-407.38,0,0
168277,264.194,-404.861,0,0
168538,262.615,-401.733,0,0
168798,261.368,-398.307,0,0
169058,260.467,-394.49,0,0
169319,259.932,-390.48,0,0
169579,259.888,-386.226,0,0
169839,260.404,-382.13,0,0
170100,261.103,-378.32,0,0
170360.075,261.4,-374.614,0,0
170620.4,261.736,-370.436,0,0
170880.725,262.416,-365.903,0,0
171141.05,263.444,-361.443,0,0
171401.375,264.62,-356.923,0,0
171661.7,265.903,-352.172,0,0
171922.025,267.396,-347.046,0,0
172182.35,269.672,-341.504,0,0
172442.675,272.712,-336.303,0,0
172703.0,276.211,-331.399,0,0
172963.325,279.984,-327.11,0,0
173223.65,283.663,-323.218,0,0
173483.975,287.305,-319.416,0,0
173744.3,291.082,-315.675,0,0
174004.625,294.951,-311.98,0,0
174264.95,299.068,-308.575,0,0
174525.275,303.127,-305.43,0,0
174785.6,307.24,-302.486,0,0
175045.925,311.008,-300.027,0,0
175306.25,314.485,-297.209,0,0
175566.575,317.839,-294.384,0,0
175826.9,320.921,-291.188,0,0
176087.225,324.196,-287.395,0,0
176347.55,327.789,-283.379,0,0
176607.875,331.975,-279.187,0,0
176868.2,336.787,-275.214,0,0
177128.525,341.817,-271.356,0,0
177388.85,347.128,-267.851,0,0
177649.175,352.578,-264.585,0,0
177909.5,357.81,-261.468,0,0
178169.825,363.056,-257.876,0,0
178430.15,369.053,-254.098,0,0
178690.475,375.695,-250.672,0,0
178950.8,382.647,-247.5,0,0
179211.125,390.174,-245.064,0,0
179471.45,397.605,-243.216,0,0
179731.775,405.079,-241.886,0,0
179992.1,412.413,-241.025,0,0
180252.425,419.666,-240.227,0,0
180512.75,427.004,-240.322,0,0
180773.075,433.524,-240.694,0,0
181033.4,439.442,-240.711,0,0
181293.725,445.735,-240.543,0,0
181554.05,451.808,-240.535,0,0
181814.375,457.892,-240.302,0,0
182074.7,464.427,-240.042,0,0
182335.025,470.704,-240.371,0,0
182595.35,476.886,-240.515,0,0
182855.675,483.666,-240.64,0,0
183116.0,490.857,-241.465,0,0
183376.325,497.033,-243.499,0,0
183636.65,502.121,-245.365,0,0
183896.975,506.638,-246.293,0,0
184157.3,511.245,-246.673,0,0
184417.625,516.176,-246.435,0,0
184677.95,521.439,-245.795,0,0
184938.275,527.344,-245.019,0,0
185198.6,533.609,-244.65,0,0
185458.925,539.819,-244.181,0,0
185719.25,546.505,-243.358,0,0
185979.575,553.656,-242.703,0,0
186239.9,561.263,-242.063,0,0
186500,569.672,-241.445,0,0
186761,579.11,-241.802,0,0
187021,588.446,-243.457,0,0
187281,597.021,-245.52,0,0
187542,605.199,-247.614,0,0
187802,613.536,-249.095,0,0
188062,622.687,-250.743,0,0
188322,632.424,-252.969,0,0
188583,642.606,-256.064,0,0
188843,652.763,-260.416,0,0
189103,662.303,-265.76,0,0
189364,671.115,-271.85,0,0
189624,678.589,-278.263,0,0
189884,685.009,-284.063,0,0
190145,691.353,-289.036,0,0
190405,697.901,-293.875,0,0
190665,704.183,-298.538,0,0
190926,710.448,-302.347,0,0
191186,717.585,-305.348,0,0
191446,726.152,-308.493,0,0
191707,735.72,-312.584,0,0
191967,745.383,-317.809,0,0
192227,755.091,-324.15,0,0
192488,764.093,-331.156,0,0
192748,772.203,-338.266,0,0
193008,779.782,-344.385,0,0
193269,788.371,-349.303,0,0
193529,799.644,-354.441,0,0
193789,812.322,-361.311,0,0
194050,825.62,-370.169,0,0
194310,839.234,-381.067,0,0
194570,852.262,-394.242,0,0
194831,864.4,-409.503,0,0
195091,874.799,-426.505,0,0
195351,882.863,-444.176,0,0
195612,889.713,-461.126,0,0
195872,896.438,-477.992,0,0
196132,903.337,-495.796,0,0
196393,909.678,-515.445,0,0
196653,914.093,-536.771,0,0
196913,916.039,-559.07,0,0
197174,915.482,-580.997,0,0
197434,913.302,-602.219,0,0
197694,910.076,-623.036,0,0
197955,905.413,-643.828,0,0
198215,898.794,-664.192,0,0
198475,890.598,-683.544,0,0
198735,881.17,-701.18,0,0
198996,871.66,-717.697,0,0
199256,861.512,-733.743,0,0
199516,850.736,-749.213,0,0
199777,839.201,-764.248,0,0
200037,826.282,-778.524,0,0
200297,812.282,-791.456,0,0
200558,797.858,-803.013,0,0
200818,782.795,-813.161,0,0
201078,767.552,-821.832,0,0
201339,752.407,-828.7,0,0
201599,738.298,-834.402,0,0
201859,724.774,-839.91,0,0
202120,711.336,-845.258,0,0
202380.025,697.638,-850.127,0,0
202640.35,683.335,-854.449,0,0
202900.675,668.35,-857.407,0,0
203161.0,653.452,-858.755,0,0
203421.325,639.729,-858.327,0,0
203681.65,627.059,-857.549,0,0
203941.975,614.799,-856.216,0,0
204202.3,603.174,-854.284,0,0
204462.625,592.399,-851.753,0,0
204722.95,582.262,-848.866,0,0
204983.275,572.927,-845.623,0,0
205243.6,564.378,-842.477,0,0
205503.925,555.836,-839.531,0,0
205764.25,547.824,-836.395,0,0
206024.575,539.802,-833.015,0,0
206284.9,531.874,-829.048,0,0
206545.225,524.528,-824.3,0,0
206805.55,518.129,-818.87,0,0
207065.875,513.062,-813.135,0,0
207326.2,508.87,-808.036,0,0
207586.525,505.392,-803.143,0,0
207846.85,502.555,-798.702,0,0
208107.175,500.179,-794.599,0,0
208367.5,498.01,-791.185,0,0
208627.825,495.936,-788.098,0,0
208888.15,493.749,-785.228,0,0
209148.475,491.5,-782.255,0,0
209408.8,489.599,-779.15,0,0
209669.125,488.038,-775.935,0,0
209929.45,487.162,-772.796,0,0
210189.775,486.762,-769.911,0,0
210450.1,486.891,-767.798,0,0
210710.425,487.141,-765.879,0,0
210970.75,487.564,-764.617,0,0
211231.075,487.892,-763.882,0,0
211491.4,488.038,-763.487,0,0
211751.725,488.134,-763.316,0,0
212012.05,488.334,-763.164,0,0
212272.375,488.706,-763.564,0,0
212532.7,488.826,-764.285,0,0
212793.025,488.753,-765.285,0,0
213053.35,488.624,-766.602,0,0
213313.675,488.208,-768.256,0,0
213574.0,487.414,-770.185,0,0
213834.325,486.19,-772.166,0,0
214094.65,484.563,-774.11,0,0
214354.975,482.916,-776.082,0,0
214615.3,480.698,-778.174,0,0
214875.625,478.144,-779.994,0,0
215135.95,475.402,-781.689,0,0
215396.275,472.379,-782.976,0,0
215656.6,469.258,-784.062,0,0
215916.925,465.912,-784.825,0,0
216177.25,462.499,-785.18,0,0
216437.575,459.131,-785.085,0,0
216697.9,456.086,-784.58,0,0
216958.225,453.135,-783.826,0,0
217218.55,450.49,-782.583,0,0
217478.875,448.534,-781.006,0,0
217739.2,447.312,-779.523,0,0
217999.525,446.539,-778.441,0,0
218259.85,446.05,-777.6,0,0
218520,445.803,-777.094,0,0
218780,445.816,-777.039,0,0
219041,445.784,-777.331,0,0
219301,445.803,-777.903,0,0
219561,445.861,-778.96,0,0
219822,445.571,-780.008,0,0
220082,445.218,-781.377,0,0
220342,444.666,-783.009,0,0
220603,443.985,-784.609,0,0
220863,443.233,-786.235,0,0
221123,442.408,-787.989,0,0
221384,441.626,-789.912,0,0
221644,440.737,-791.899,0,0
221904,439.952,-793.952,0,0
222165,439.085,-796.427,0,0
222425,437.961,-799.367,0,0
222685,436.358,-802.583,0,0
222946,434.197,-805.744,0,0
223206,431.599,-808.699,0,0
223466,428.643,-811.449,0,0
223727,425.611,-813.74,0,0
223987,422.649,-815.728,0,0
224247,419.874,-817.641,0,0
224508,417.244,-819.678,0,0
224768,414.703,-821.969,0,0
225028,411.925,-824.479,0,0
225289,408.976,-826.959,0,0
225549,405.981,-829.689,0,0
225809,402.401,-832.609,0,0
226070,398.298,-835.61,0,0
226330,393.704,-838.046,0,0
226590,388.864,-840.257,0,0
226851,383.848,-842.078,0,0
227111,378.831,-843.593,0,0
227371,373.727,-844.898,0,0
227632,368.569,-845.917,0,0
227892,363.096,-846.736,0,0
228152,357.438,-846.881,0,0
228413,352.052,-846.389,0,0
228673,347.227,-845.558,0,0
228933,343.017,-844.635,0,0
229193,339.008,-843.878,0,0
229454,335.407,-843.454,0,0
229714,331.817,-843.144,0,0
229974,328.204,-843.26,0,0
230235,324.331,-843.508,0,0
230495,320.074,-843.922,0,0
230755,315.395,-844.246,0,0
231016,310.36,-844.228,0,0
231276,305.089,-843.685,0,0
231536,299.987,-842.779,0,0
231797,295.072,-841.554,0,0
232057,290.299,-840.203,0,0
232317,285.63,-838.704,0,0
232578,280.938,-837.236,0,0
232838,276.257,-835.45,0,0
233098,271.615,-833.446,0,0
233359,267.161,-831.208,0,0
233619,262.945,-828.868,0,0
233879,258.792,-826.547,0,0
234140,254.633,-824.052,0,0
234400,250.62,-821.334,0,0
234660.3,246.68,-818.49,0,0
234920.625,242.893,-815.345,0,0
235180.95,239.366,-812.3,0,0
235441.275,236.072,-808.949,0,0
235701.6,233.023,-805.495,0,0
235961.925,230.29,-802.132,0,0
236222.25,227.699,-798.749,0,0
236482.575,225.345,-795.411,0,0
236742.9,223.209,-792.053,0,0
237003.225,221.175,-788.81,0,0
237263.55,219.323,-785.628,0,0
237523.875,217.698,-782.443,0,0
237784.2,216.253,-779.396,0,0
238044.525,214.833,-776.501,0,0
238304.85,213.491,-773.683,0,0
238565.175,212.241,-770.835,0,0
238825.5,211.012,-768.027,0,0
239085.825,210.1,-765.149,0,0
239346.15,209.593,-762.491,0,0
239606.475,209.16,-760.224,0,0
239866.8,208.981,-758.472,0,0
240127.125,208.639,-756.942,0,0
240387.45,207.844,-755.803,0,0
240647.775,206.782,-754.745,0,0
240908.1,205.529,-753.661,0,0
241168.425,204.123,-752.57,0,0
241428.75,202.513,-751.557,0,0
241689.075,200.697,-750.346,0,0
241949.4,198.742,-749.097,0,0
242209.725,196.649,-747.802,0,0
242470.05,194.392,-746.295,0,0
242730.375,192.099,-744.516,0,0
242990.7,189.76,-742.459,0,0
243251.025,187.555,-740.271,0,0
243511.35,185.395,-737.889,0,0
243771.675,183.391,-735.339,0,0
244032.0,181.493,-732.722,0,0
244292.325,179.608,-730.014,0,0
244552.65,178.044,-727.121,0,0
244812.975,176.556,-724.196,0,0
245073.3,175.347,-721.349,0,0
245333.625,174.28,-718.694,0,0
245593.95,173.124,-715.897,0,0
245854.275,172.015,-712.97,0,0
246114.6,171.103,-710.051,0,0
246374.925,170.471,-707.072,0,0
246635.25,170.04,-704.15,0,0
246895.575,169.824,-701.47,0,0
247155.9,169.717,-699.016,0,0
247416.225,169.582,-696.837,0,0
247676.55,169.199,-694.881,0,0
247936.875,168.722,-692.923,0,0
248197.2,168.034,-690.903,0,0
248457.525,167.338,-688.795,0,0
248717.85,166.45,-686.613,0,0
248978.175,165.703,-684.189,0,0
249238.5,164.873,-681.561,0,0
249498.825,164.314,-679.013,0,0
249759.15,163.789,-676.111,0,0
250019.475,163.495,-673.258,0,0
250279.8,163.333,-670.415,0,0
250540,163.351,-667.608,0,0
250800,163.611,-664.81,0,0
251061,163.858,-662.037,0,0
251321,164.256,-659.268,0,0
251581,164.875,-656.506,0,0
251842,165.651,-653.814,0,0
252102,166.682,-651.208,0,0
252362,167.988,-648.778,0,0
252623,169.384,-646.607,0,0
252883,170.993,-644.744,0,0
253143,172.575,-643.264,0,0
253404,174.021,-642.16,0,0
253664,175.196,-641.28,0,0
253924,176.136,-640.464,0,0
254185,176.795,-639.684,0,0
254445,177.29,-638.841,0,0
254705,177.663,-637.997,0,0
254966,177.815,-636.945,0,0
255226,178.068,-635.724,0,0
255486,178.301,-634.474,0,0
255747,178.671,-633.046,0,0
256007,179.095,-631.613,0,0
256267,179.6,-630.128,0,0
256528,180.202,-628.729,0,0
256788,180.901,-627.408,0,0
257048,181.598,-626.138,0,0
257309,182.235,-624.814,0,0
257569,182.962,-623.418,0,0
257829,183.806,-621.986,0,0
258090,184.838,-620.616,0,0
258350,185.929,-619.283,0,0
258610,187.14,-618.058,0,0
258871,188.487,-616.972,0,0
259131,189.858,-615.98,0,0
259391,191.313,-615.17,0,0
259651,192.758,-614.544,0,0
259912,194.227,-614.158,0,0
260172,195.547,-613.752,0,0
260432,196.831,-613.636,0,0
260693,197.877,-613.515,0,0
260953,198.828,-613.37,0,0
261213,199.777,-613.183,0,0
261474,200.749,-613.033,0,0
261734,201.683,-612.957,0,0
261994,202.622,-612.89,0,0
262255,203.522,-612.89,0,0
262515,204.395,-613.04,0,0
262775,205.101,-613.258,0,0
263036,205.638,-613.449,0,0
263296,206.053,-613.476,0,0
263556,206.568,-613.364,0,0
263817,207.157,-613.313,0,0
264077,207.742,-613.308,0,0
264337,208.164,-613.396,0,0
264598,208.472,-613.335,0,0
264858,208.78,-613.065,0,0
265118,209.039,-612.602,0,0
265379,209.512,-611.93,0,0
265639,210.248,-611.225,0,0
265899,211.29,-610.46,0,0
266160,212.464,-609.719,0,0
266420,213.93,-609.041,0,0
266680.25,215.599,-608.495,0,0
266940.575,217.577,-608.095,0,0
267200.9,219.724,-607.887,0,0
267461.225,222.073,-608.027,0,0
267721.55,224.679,-608.485,0,0
267981.875,227.258,-609.275,0,0
268242.2,229.865,-610.454,0,0
268502.525,232.482,-611.961,0,0
268762.85,235.147,-613.938,0,0
269023.175,237.573,-616.32,0,0
269283.5,239.806,-619.093,0,0
269543.825,241.764,-622.171,0,0
269804.15,243.291,-625.465,0,0
270064.475,244.571,-629.027,0,0
270324.8,245.611,-632.703,0,0
270585.125,246.351,-636.568,0,0
270845.45,246.796,-640.641,0,0
271105.775,246.916,-644.97,0,0
271366.1,246.547,-649.421,0,0
271626.425,245.626,-654.039,0,0
271886.75,244.251,-658.52,0,0
272147.075,242.417,-662.862,0,0
272407.4,240.184,-667.173,0,0
272667.725,237.526,-671.358,0,0
272928.05,234.401,-675.32,0,0
273188.375,230.855,-679.03,0,0
273448.7,226.973,-682.383,0,0
273709.025,222.748,-685.327,0,0
273969.35,218.275,-687.912,0,0
274229.675,213.558,-690.014,0,0
274490.0,208.696,-691.686,0,0
274750.325,203.855,-692.891,0,0
275010.65,198.962,-693.622,0,0
275270.975,194.095,-693.901,0,0
275531.3,189.315,-693.817,0,0
275791.625,184.747,-693.298,0,0
276051.95,180.4,-692.462,0,0
276312.275,176.326,-691.384,0,0
276572.6,172.517,-690.151,0,0
276832.925,168.996,-688.82,0,0
277093.25,165.457,-687.577,0,0
277353.575,162.08,-686.002,0,0
277613.9,158.966,-684.292,0,0
277874.225,156.007,-682.519,0,0
278134.55,153.225,-680.73,0,0
278394.875,150.546,-678.893,0,0
278655.2,147.975,-676.997,0,0
278915.525,145.48,-675.029,0,0
279175.85,143.143,-672.978,0,0
279436.175,140.879,-670.802,0,0
279696.5,138.803,-668.575,0,0
279956.825,136.918,-666.188,0,0
280217.15,135.266,-663.781,0,0
280477.475,133.844,-661.395,0,0
280737.8,132.619,-659.088,0,0
280998.125,131.619,-656.763,0,0
281258.45,130.773,-654.621,0,0
281518.775,130.07,-652.592,0,0
281779.1,129.466,-650.662,0,0
282039.425,128.945,-648.87,0,0
282299.75,128.475,-647.189,0,0
282560,128.061,-645.602,0,0
282820,127.683,-644.169,0,0
283081,127.291,-642.836,0,0
283341,126.873,-641.607,0,0
283601,126.37,-640.423,0,0
283862,125.79,-639.185,0,0
284122,125.195,-637.924,0,0
284382,124.662,-636.607,0,0
284643,124.218,-635.298,0,0
284903,123.805,-633.937,0,0
285163,123.473,-632.607,0,0
285424,123.264,-631.202,0,0
285684,123.2,-629.846,0,0
285944,123.267,-628.564,0,0
286205,123.598,-627.335,0,0
286465,124.153,-626.313,0,0
286725,124.799,-625.562,0,0
286986,125.562,-625.143,0,0
287246,126.31,-625.104,0,0
287506,126.902,-625.46,0,0
287767,127.206,-626.156,0,0
288027,127.168,-627.078,0,0
288287,126.704,-628.072,0,0
288548,125.878,-629.016,0,0
288808,124.751,-629.852,0,0
289068,123.404,-630.514,0,0
289329,121.825,-631.035,0,0
289589,120.162,-631.377,0,0
289849,118.374,-631.477,0,0
290109,116.508,-631.459,0,0
290370,114.598,-631.162,0,0
290630,112.756,-630.665,0,0
290890,111.023,-630.049,0,0
291151,109.419,-629.355,0,0
291411,107.901,-628.678,0,0
291671,106.371,-628.035,0,0
291932,104.829,-627.448,0,0
292192,103.214,-626.781,0,0
292452,101.472,-626.036,0,0
292713,99.7373,-625.171,0,0
292973,97.9903,-624.164,0,0
293233,96.3103,-623.049,0,0
293494,94.6912,-621.861,0,0
293754,93.148,-620.581,0,0
294014,91.6897,-619.259,0,0
294275,90.2704,-617.923,0,0
294535,88.909,-616.544,0,0
294795,87.5754,-615.142,0,0
295056,86.289,-613.673,0,0
295316,85.0575,-612.192,0,0
295576,83.8847,-610.709,0,0
295837,82.7083,-609.168,0,0
296097,81.6418,-607.59,0,0
296357,80.6203,-605.981,0,0
296618,79.6658,-604.365,0,0
296878,78.7784,-602.753,0,0
297138,77.941,-601.159,0,0
297399,77.1544,-599.584,0,0
297659,76.3994,-597.978,0,0
297919,75.6769,-596.397,0,0
298180,74.998,-594.8,0,0
298440,74.3536,-593.221,0,0
298700.2,73.7457,-591.637,0,0
298960.525,73.192,-590.054,0,0
299220.85,72.6806,-588.467,0,0
299481.175,72.1774,-586.89,0,0
299741.5,71.7165,-585.326,0,0
300001.825,71.2754,-583.757,0,0
300262.15,70.8978,-582.169,0,0
300522.475,70.5548,-580.564,0,0
300782.8,70.2809,-578.966,0,0
301043.125,70.0363,-577.378,0,0
301303.45,69.8639,-575.814,0,0
301563.775,69.777,-574.227,0,0
301824.1,69.741,-572.709,0,0
302084.425,69.7954,-571.226,0,0
302344.75,69.8816,-569.82,0,0
302605.075,70.014,-568.473,0,0
302865.4,70.1714,-567.211,0,0
303125.725,70.3106,-566.022,0,0
303386.05,70.4571,-564.859,0,0
303646.375,70.576,-563.74,0,0
303906.7,70.7133,-562.682,0,0
304167.025,70.8577,-561.633,0,0
304427.35,70.976,-560.631,0,0
304687.675,71.0774,-559.622,0,0
304948.0,71.2206,-558.627,0,0
305208.325,71.3323,-557.666,0,0
305468.65,71.4973,-556.719,0,0
305728.975,71.6674,-555.788,0,0
305989.3,71.8875,-554.91,0,0
306249.625,72.1185,-554.112,0,0
306509.95,72.324,-553.372,0,0
306770.275,72.5124,-552.676,0,0
307030.6,72.6752,-552.016,0,0
307290.925,72.8159,-551.385,0,0
307551.25,72.9409,-550.799,0,0
307811.575,73.044,-550.221,0,0
308071.9,73.1348,-549.654,0,0
308332.225,73.2502,-549.151,0,0
308592.55,73.323,-548.7,0,0
308852.875,73.3802,-548.339,0,0
309113.2,73.3399,-548.026,0,0
309373.525,73.2085,-547.741,0,0
309633.85,72.969,-547.424,0,0
309894.175,72.6836,-547.066,0,0
310154.5,72.3351,-546.641,0,0
310414.825,71.986,-546.166,0,0
310675.15,71.6327,-545.637,0,0
310935.475,71.3053,-545.123,0,0
311195.8,70.9766,-544.58,0,0
311456.125,70.635,-544.036,0,0
311716.45,70.3081,-543.48,0,0
311976.775,69.9698,-542.926,0,0
312237.1,69.6433,-542.383,0,0
312497.425,69.2886,-541.841,0,0
312757.75,68.9203,-541.312,0,0
313018.075,68.5302,-540.747,0,0
313278.4,68.1242,-540.177,0,0
313538.725,67.7082,-539.612,0,0
313799.05,67.26,-539.042,0,0
314059.375,66.7786,-538.464,0,0
314319.7,66.3,-537.842,0,0
314580,65.79,-537.142,0,0
314840,65.3071,-536.452,0,0
315101,64.7727,-535.658,0,0
315361,64.3496,-534.968,0,0
315621,63.8517,-534.063,0,0
315882,63.4359,-533.175,0,0
316142,63.0714,-532.416,0,0
316402,62.6952,-531.489,0,0
316663,62.4486,-530.577,0,0
316923,62.1044,-529.741,0,0
317183,61.8626,-528.892,0,0
317444,61.5766,-527.972,0,0
317704,61.3938,-527.103,0,0
317964,61.1771,-526.31,0,0
318225,61.0486,-525.449,0,0
318485,60.866,-524.629,0,0
318745,60.8296,-523.886,0,0
319006,60.7047,-523.058,0,0
319266,60.6423,-522.309,0,0
319526,60.57,-521.648,0,0
319787,60.5305,-520.965,0,0
320047,60.5355,-520.326,0,0
320307,60.4066,-519.723,0,0
320567,60.3466,-519.146,0,0
320828,60.2244,-518.665,0,0
321088,60.1097,-518.152,0,0
321348,59.9788,-517.641,0,0
321609,59.774,-517.115,0,0
321869,59.5529,-516.663,0,0
322129,59.3463,-516.261,0,0
322390,59.0616,-515.736,0,0
322650,58.8151,-515.248,0,0
322910,58.5089,-514.788,0,0
323171,58.2144,-514.264,0,0
323431,57.8807,-513.725,0,0
323691,57.5172,-513.218,0,0
323952,57.1764,-512.737,0,0
324212,56.8348,-512.259,0,0
324472,56.3933,-511.782,0,0
324733,55.9074,-511.226,0,0
324993,55.4378,-510.673,0,0
325253,54.9882,-510.111,0,0
325514,54.514,-509.439,0,0
325774,54.0304,-508.806,0,0
326034,53.5539,-508.083,0,0
326295,53.0098,-507.422,0,0
326555,52.5884,-506.661,0,0
326815,52.1382,-505.924,0,0
327076,51.8013,-505.193,0,0
327336,51.4186,-504.354,0,0
327596,50.9442,-503.617,0,0
327857,50.5816,-502.841,0,0
328117,50.2039,-502.057,0,0
328377,49.8231,-501.236,0,0
328638,49.4812,-500.476,0,0
328898,49.1007,-499.61,0,0
329158,48.8498,-498.811,0,0
329419,48.4665,-498.031,0,0
329679,48.1368,-497.166,0,0
329939,47.9028,-496.341,0,0
330200,47.6289,-495.571,0,0
330460,47.3179,-494.67,0,0
330720.15,46.9928,-493.886,0,0
330980.475,46.7253,-493.042,0,0
331240.8,46.4641,-492.18,0,0
331501.125,46.1979,-491.37,0,0
331761.45,45.9101,-490.476,0,0
332021.775,45.7226,-489.581,0,0
332282.1,45.4813,-488.716,0,0
332542.425,45.2765,-487.852,0,0
332802.75,45.0844,-486.997,0,0
333063.075,44.8432,-486.069,0,0
333323.4,44.7258,-485.205,0,0
333583.725,44.5591,-484.385,0,0
333844.05,44.4536,-483.446,0,0
334104.375,44.365,-482.555,0,0
334364.7,44.2737,-481.71,0,0
334625.025,44.2247,-480.857,0,0
334885.35,44.1732,-479.957,0,0
335145.675,44.1472,-479.174,0,0
335406.0,44.1598,-478.329,0,0
335666.325,44.1504,-477.549,0,0
335926.65,44.1303,-476.779,0,0
336186.975,44.1693,-475.989,0,0
336447.3,44.1953,-475.3,0,0
336707.625,44.1716,-474.62,0,0
336967.95,44.18,-473.919,0,0
337228.275,44.2084,-473.219,0,0
337488.6,44.2075,-472.575,0,0
337748.925,44.176,-471.976,0,0
338009.25,44.1658,-471.315,0,0
338269.575,44.1098,-470.635,0,0
338529.9,44.0451,-470.041,0,0
338790.225,44.0934,-469.452,0,0
339050.55,43.9788,-468.82,0,0
339310.875,43.9346,-468.258,0,0
339571.2,43.7969,-467.651,0,0
339831.525,43.7137,-467.015,0,0
340091.85,43.5565,-466.474,0,0
340352.175,43.4152,-465.889,0,0
340612.5,43.2913,-465.244,0,0
340872.825,43.1736,-464.673,0,0
341133.15,43.0491,-464.022,0,0
341393.475,42.87,-463.422,0,0
341653.8,42.6582,-462.795,0,0
341914.125,42.4398,-462.094,0,0
342174.45,42.3204,-461.447,0,0
342434.775,42.185,-460.746,0,0
342695.1,41.9736,-460.107,0,0
342955.425,41.8863,-459.383,0,0
343215.75,41.673,-458.682,0,0
343476.075,41.5581,-457.943,0,0
343736.4,41.3863,-457.207,0,0
343996.725,41.262,-456.454,0,0
344257.05,41.1394,-455.727,0,0
344517.375,41.0682,-454.996,0,0
344777.7,40.9399,-454.213,0,0
345038.025,40.8834,-453.535,0,0
345298.35,40.7776,-452.746,0,0
345558.675,40.7337,-452.039,0,0
345819.0,40.6911,-451.223,0,0
346079.325,40.6256,-450.515,0,0
346339.65,40.5721,-449.737,0,0
346599.975,40.5347,-449.018,0,0
346860,40.5367,-448.286,0,0
347121,40.5223,-447.478,0,0
347381,40.4988,-446.824,0,0
347641,40.5131,-446.071,0,0
347902,40.5154,-445.321,0,0
348162,40.5634,-444.623,0,0
348422,40.5921,-443.873,0,0
348683,40.6581,-443.202,0,0
348943,40.6984,-442.464,0,0
349203,40.7095,-441.812,0,0
349464,40.7589,-441.141,0,0
349724,40.8768,-440.447,0,0
349984,40.915,-439.743,0,0
350245,40.9524,-439.054,0,0
350505,41.0823,-438.401,0,0
350765,41.17,-437.728,0,0
351025,41.2847,-437.088,0,0
351286,41.3574,-436.49,0,0
351546,41.4557,-435.867,0,0
351806,41.5708,-435.233,0,0
352067,41.6419,-434.682,0,0
352327,41.7634,-434.071,0,0
352587,41.8174,-433.488,0,0
352848,41.8818,-432.909,0,0
353108,41.9807,-432.379,0,0
353368,42.0483,-431.756,0,0
353629,42.1313,-431.203,0,0
353889,42.1884,-430.612,0,0
354149,42.2679,-430.058,0,0
354410,42.3927,-429.546,0,0
354670,42.4283,-428.945,0,0
354930,42.5476,-428.443,0,0
355191,42.6142,-427.925,0,0
355451,42.7387,-427.421,0,0
355711,42.7741,-426.879,0,0
355972,42.8791,-426.388,0,0
356232,42.9365,-425.961,0,0
356492,42.9612,-425.492,0,0
356753,43.0323,-425.069,0,0
357013,43.0191,-424.539,0,0
357273,43.022,-424.137,0,0
357534,43.0023,-423.638,0,0
357794,42.959,-423.157,0,0
358054,42.9697,-422.684,0,0
358315,42.8854,-422.156,0,0
358575,42.8702,-421.677,0,0
358835,42.8489,-421.17,0,0
359096,42.7961,-420.609,0,0
359356,42.7511,-420.075,0,0
359616,42.7025,-419.511,0,0
359877,42.6493,-418.979,0,0
360137,42.6024,-418.374,0,0
360397,42.6011,-417.824,0,0
360658,42.5542,-417.257,0,0
360918,42.5537,-416.658,0,0
361178,42.5744,-416.073,0,0
361438,42.5388,-415.467,0,0
361699,42.5939,-414.908,0,0
361959,42.575,-414.304,0,0
362219,42.5555,-413.711,0,0
362480,42.6338,-413.099,0,0
362740.1,42.6112,-412.532,0,0
363000.425,42.6715,-411.911,0,0
363260.75,42.6931,-411.293,0,0
363521.075,42.7314,-410.683,0,0
363781.4,42.8129,-410.06,0,0
364041.725,42.8911,-409.473,0,0
364302.05,42.9383,-408.891,0,0
364562.375,43.0705,-408.224,0,0
364822.7,43.1551,-407.668,0,0
365083.025,43.3054,-407.057,0,0
365343.35,43.4201,-406.476,0,0
365603.675,43.5933,-405.909,0,0
365864.0,43.7406,-405.324,0,0
366124.325,43.9017,-404.792,0,0
366384.65,44.0798,-404.338,0,0
366644.975,44.2454,-403.804,0,0
366905.3,44.3501,-403.321,0,0
367165.625,44.4929,-402.83,0,0
367425.95,44.6197,-402.368,0,0
367686.275,44.7313,-401.879,0,0
367946.6,44.8387,-401.396,0,0
368206.925,44.9115,-400.906,0,0
368467.25,45.0279,-400.385,0,0
368727.575,45.1284,-399.872,0,0
368987.9,45.2233,-399.347,0,0
369248.225,45.371,-398.826,0,0
369508.55,45.5002,-398.208,0,0
369768.875,45.7067,-397.697,0,0
370029.2,45.9274,-397.126,0,0
370289.525,46.1878,-396.606,0,0
370549.85,46.5031,-396.121,0,0
370810.175,46.7675,-395.644,0,0
371070.5,47.099,-395.296,0,0
371330.825,47.3933,-394.95,0,0
371591.15,47.6345,-394.637,0,0
371851.475,47.8409,-394.349,0,0
372111.8,48.0437,-394.091,0,0
372372.125,48.2292,-393.794,0,0
372632.45,48.4103,-393.538,0,0
372892.775,48.5318,-393.27,0,0
373153.1,48.6636,-393.016,0,0
373413.425,48.7621,-392.78,0,0
373673.75,48.8849,-392.51,0,0
373934.075,48.9497,-392.238,0,0
374194.4,48.9446,-391.982,0,0
374454.725,48.9904,-391.706,0,0
374715.05,49.0195,-391.412,0,0
374975.375,49.0141,-391.114,0,0
375235.7,49.0528,-390.797,0,0
375496.025,49.0469,-390.435,0,0
375756.35,49.0668,-390.133,0,0
376016.675,49.1114,-389.777,0,0
376277.0,49.152,-389.408,0,0
376537.325,49.2018,-389.044,0,0
376797.65,49.279,-388.713,0,0
377057.975,49.3805,-388.422,0,0
377318.3,49.4656,-388.099,0,0
377578.625,49.5723,-387.841,0,0
377838.95,49.5843,-387.622,0,0
378099.275,49.6265,-387.402,0,0
378359.6,49.5998,-387.151,0,0
378619.925,49.5552,-386.956,0,0
378880,49.508,-386.713,0,0
379141,49.3524,-386.436,0,0
379401,49.2027,-386.051,0,0
379661,49.0971,-385.659,0,0
379922,49.0436,-385.221,0,0
380182,49.0303,-384.715,0,0
380442,49.0659,-384.217,0,0
380703,49.1437,-383.765,0,0
380963,49.3328,-383.372,0,0
381223,49.5891,-383.013,0,0
381483,49.8103,-382.859,0,0
381744,49.9763,-382.691,0,0
382004,50.0658,-382.649,0,0
382264,50.1078,-382.643,0,0
382525,50.0274,-382.597,0,0
382785,49.852,-382.554,0,0
383045,49.6299,-382.479,0,0
383306,49.4071,-382.327,0,0
383566,49.1083,-382.144,0,0
383826,48.7651,-381.931,0,0
384087,48.49,-381.631,0,0
384347,48.1599,-381.321,0,0
384607,47.8556,-380.956,0,0
384868,47.5371,-380.633,0,0
385128,47.2139,-380.174,0,0
385388,46.907,-379.742,0,0
385649,46.604,-379.264,0,0
385909,46.3435,-378.771,0,0
386169,46.0765,-378.235,0,0
386430,45.8833,-377.703,0,0
386690,45.6449,-377.165,0,0
386950,45.4572,-376.571,0,0
387211,45.2782,-375.99,0,0
387471,45.1231,-375.435,0,0
387731,44.9667,-374.817,0,0
387992,44.8441,-374.205,0,0
388252,44.7363,-373.603,0,0
388512,44.6386,-372.998,0,0
388773,44.5943,-372.386,0,0
389033,44.592,-371.816,0,0
389293,44.5688,-371.216,0,0
389554,44.555,-370.622,0,0
389814,44.6015,-370.06,0,0
390074,44.6386,-369.515,0,0
390335,44.6356,-368.999,0,0
390595,44.6502,-368.497,0,0
390855,44.6968,-368.021,0,0
391116,44.7077,-367.514,0,0
391376,44.6947,-367.014,0,0
391636,44.6769,-366.535,0,0
391896,44.6632,-366.058,0,0
392157,44.5914,-365.544,0,0
392417,44.6167,-365.053,0,0
392677,44.6139,-364.521,0,0
392938,44.6,-364.01,0,0
393198,44.5722,-363.483,0,0
393458,44.593,-362.981,0,0
393719,44.5837,-362.447,0,0
393979,44.5675,-361.931,0,0
394239,44.5909,-361.379,0,0
394500,44.6465,-360.862,0,0
394760.05,44.6514,-360.346,0,0
395020.375,44.6806,-359.792,0,0
395280.7,44.7086,-359.284,0,0
395541.025,44.7376,-358.761,0,0
395801.35,44.8208,-358.241,0,0
396061.675,44.879,-357.687,0,0
396322.0,44.9653,-357.201,0,0
396582.325,44.9951,-356.683,0,0
396842.65,45.1079,-356.191,0,0
397102.975,45.1628,-355.68,0,0
397363.3,45.2732,-355.23,0,0
397623.625,45.3458,-354.75,0,0
397883.95,45.45,-354.319,0,0
398144.275,45.5072,-353.878,0,0
398404.6,45.5544,-353.406,0,0
398664.925,45.6018,-353.008,0,0
398925.25,45.6535,-352.528,0,0
399185.575,45.6402,-352.094,0,0
399445.9,45.6728,-351.658,0,0
399706.225,45.6868,-351.196,0,0
399966.55,45.6919,-350.712,0,0
400006.6,45.6808,-350.669,0,0