File: Accelerated corrosion test data/2025-10-05_06-00-04/sample_7.csv
Frequency (Hz),Impedance (ohms),Phase (Radians),Temperature (C),Humidity (%)
10000.0,274.881,-12066.9,0,0
10260.325,277.978,-11776.3,0,0
10520.65,258.344,-11477.9,0,0
10780.975,252.829,-11197.1,0,0
11041.3,249.608,-10929.7,0,0
11301.625,246.72,-10674.4,0,0
11561.95,247.821,-10426.3,0,0
11822.275,259.721,-10197.2,0,0
12082.6,266.175,-9981.18,0,0
12342.925,321.166,-9786,0,0
12603.25,263.357,-9634.13,0,0
12863.575,266.315,-9422.28,0,0
13123.9,239.772,-9257.97,0,0
13384.225,233.994,-9078.61,0,0
13644.55,220.33,-8897.02,0,0
13904.875,208.882,-8736.15,0,0
14165.2,205.713,-8566.28,0,0
14425.525,210.979,-8425.31,0,0
14685.8,204.633,-8270.79,0,0
14946.175,198.439,-8125.9,0,0
15206.5,198.965,-7994.41,0,0
15466.825,184.844,-7856.09,0,0
15727.15,185.68,-7726.6,0,0
15987.5,180.201,-7598.56,0,0
16247.8,180.179,-7477.04,0,0
16508.125,172.275,-7358.26,0,0
16768.45,171.485,-7239.33,0,0
17028.775,171.605,-7129.18,0,0
17289.1,168.563,-7022.3,0,0
17549.425,167.876,-6912.28,0,0
17809.75,167.949,-6803.16,0,0
18070.075,171.921,-6708.86,0,0
18330.4,177.755,-6602.82,0,0
18590.725,198.214,-6515.01,0,0
18851.05,195.783,-6452.92,0,0
19111.375,185.973,-6371.36,0,0
19371.7,202.954,-6284.28,0,0
19632.025,173.37,-6224.22,0,0
19892.35,157.598,-6128.03,0,0
20152.675,168.2,-6040.63,0,0
20413.0,168.628,-5964.81,0,0
20673.3,169.546,-5890.81,0,0
20933.65,177.843,-5829.1,0,0
21193.975,161.74,-5771.17,0,0
21454.3,152.339,-5696.4,0,0
21714.625,154.646,-5624.85,0,0
21974.9,148.069,-5563.93,0,0
22235.275,141.547,-5496.05,0,0
22495.6,140.435,-5430.85,0,0
22755.925,135.589,-5369.76,0,0
23016.25,131.546,-5306.61,0,0
23276.6,129.031,-5244.09,0,0
23536.9,129.101,-5183.25,0,0
23797.225,129.581,-5127.91,0,0
24057.55,125.557,-5071.84,0,0
24317.875,123.56,-5014.81,0,0
24578.2,124.112,-4958.88,0,0
24838.525,122.77,-4906.31,0,0
25098.85,122.984,-4854.18,0,0
25359.175,121.267,-4802.28,0,0
25619.5,119.577,-4751.49,0,0
25879.8,119.778,-4700.23,0,0
26140.1,120.099,-4649.6,0,0
26400.5,123.38,-4600.1,0,0
26660.8,124.36,-4556.55,0,0
26921.1,124.739,-4507.44,0,0
27181.4,129.769,-4458.04,0,0
27441.8,135.67,-4414.72,0,0
27702.1,144.529,-4366.33,0,0
27962.4,159.489,-4326.02,0,0
28222.7,180.425,-4300.57,0,0
28483.1,178.93,-4286.07,0,0
28743.4,175.818,-4264.27,0,0
29003.7,158.786,-4237.03,0,0
29264,145.342,-4201.63,0,0
29524.4,137.044,-4160.52,0,0
29784.7,133.358,-4121.39,0,0
30045,128.758,-4081.07,0,0
30305.3,130.832,-4042.72,0,0
30565.7,134.703,-4009.38,0,0
30826,135.499,-3979.18,0,0
31086.3,136.205,-3950.16,0,0
31346.6,132.344,-3923.01,0,0
31607,130.712,-3894.04,0,0
31867.3,122.416,-3865.91,0,0
32127.6,117.832,-3833.6,0,0
32387.9,114.529,-3802.8,0,0
32648.3,111.386,-3772.13,0,0
32908.6,108.096,-3741.68,0,0
33168.9,105.673,-3712.12,0,0
33429.2,102.599,-3682.41,0,0
33689.6,100.114,-3652.49,0,0
33949.9,98.32,-3623.22,0,0
34210.2,96.3888,-3594.7,0,0
34470.5,94.6939,-3566.18,0,0
34730.9,93.4929,-3538.14,0,0
34991.2,92.7381,-3510.64,0,0
35251.5,91.5228,-3483.58,0,0
35511.8,90.3724,-3456.81,0,0
35772.2,89.8916,-3430.44,0,0
36032.5,89.3424,-3404.93,0,0
36292.8,88.8543,-3379.78,0,0
36553.1,87.9207,-3354.71,0,0
36813.5,87.5268,-3329.94,0,0
37073.8,87.0472,-3305.27,0,0
37334.1,86.9812,-3281.1,0,0
37594.4,86.7441,-3257.98,0,0
37854.8,86.1701,-3234.59,0,0
38115.1,85.8728,-3210.93,0,0
38375.4,86.5522,-3187.83,0,0
38635.7,87.4511,-3164.87,0,0
38896.1,88.5078,-3142.26,0,0
39156.4,90.7741,-3120.77,0,0
39416.7,92.9621,-3099.83,0,0
39677,96.1555,-3080.78,0,0
39937.4,98.4894,-3064.37,0,0
40197.7,98.4768,-3048.39,0,0
40458,96.4411,-3032.62,0,0
40718.3,92.8567,-3014.77,0,0
40978.7,90.2424,-2996.56,0,0
41239,87.8679,-2977.2,0,0
41499.3,85.9094,-2958.13,0,0
41759.6,84.3291,-2938.77,0,0
42020,83.2551,-2920.35,0,0
42280.275,81.8171,-2901.32,0,0
42540.6,80.9329,-2881.73,0,0
42800.925,81.5515,-2863.04,0,0
43061.25,81.1715,-2845.46,0,0
43321.575,81.8449,-2827.92,0,0
43581.9,80.7018,-2811.32,0,0
43842.225,80.4432,-2793.44,0,0
44102.55,81.218,-2775.86,0,0
44362.875,82.9127,-2759.64,0,0
44623.2,83.2687,-2745.16,0,0
44883.525,83.1346,-2731.11,0,0
45143.85,81.41,-2716.27,0,0
45404.175,79.8049,-2700.44,0,0
45664.5,79.6427,-2683.33,0,0
45924.825,81.1562,-2669.47,0,0
46185.15,79.891,-2656.36,0,0
46445.475,78.7364,-2642.26,0,0
46705.8,76.4019,-2628.42,0,0
46966.125,74.2072,-2612.98,0,0
47226.45,72.6132,-2597.45,0,0
47486.775,72.134,-2582.07,0,0
47747.1,71.7996,-2567.37,0,0
48007.425,71.5426,-2553.04,0,0
48267.75,70.8328,-2538.66,0,0
48528.075,70.4159,-2524.96,0,0
48788.4,69.6862,-2510.92,0,0
49048.725,69.1102,-2497.17,0,0
49309.05,68.4662,-2483.27,0,0
49569.375,68.3735,-2469.88,0,0
49829.7,67.7661,-2456.46,0,0
50090.025,67.5411,-2443.08,0,0
50350.35,67.2173,-2430.11,0,0
50610.675,66.9299,-2417.09,0,0
50871.0,66.4667,-2404.36,0,0
51131.325,66.2655,-2391.69,0,0
51391.65,65.7748,-2379.09,0,0
51651.975,65.5418,-2366.71,0,0
51912.3,65.232,-2354.24,0,0
52172.625,65.0192,-2342.11,0,0
52432.95,64.9134,-2330.12,0,0
52693.275,64.7431,-2318.05,0,0
52953.6,64.6021,-2306.26,0,0
53213.925,64.5723,-2294.68,0,0
53474.25,64.427,-2283.39,0,0
53734.575,64.016,-2272.13,0,0
53994.9,63.7011,-2260.9,0,0
54255.225,63.3779,-2249.5,0,0
54515.55,63.0324,-2238.51,0,0
54775.875,62.7293,-2227.39,0,0
55036.2,62.5355,-2216.45,0,0
55296.525,62.2297,-2205.59,0,0
55556.85,62.1142,-2194.85,0,0
55817.175,62.0466,-2184.1,0,0
56077.5,61.8479,-2173.67,0,0
56337.825,61.6391,-2163.05,0,0
56598.15,61.5845,-2152.88,0,0
56858.475,61.4244,-2142.73,0,0
57118.8,61.2046,-2132.58,0,0
57379.125,60.9521,-2122.57,0,0
57639.45,60.8158,-2112.36,0,0
57899.775,60.6868,-2102.41,0,0
58160.1,60.5617,-2092.49,0,0
58420.4,60.8269,-2082.55,0,0
58680.7,61.1387,-2073.14,0,0
58941.1,61.1318,-2064.02,0,0
59201.4,60.7412,-2054.8,0,0
59461.7,60.76,-2045.21,0,0
59722,60.993,-2036.14,0,0
59982.4,60.9915,-2027.22,0,0
60242.7,60.9066,-2018.39,0,0
60503,60.79,-2009.95,0,0
60763.3,60.3338,-2001.27,0,0
61023.7,59.9746,-1992.59,0,0
61284,59.5726,-1983.91,0,0
61544.3,59.1235,-1975.22,0,0
61804.6,58.8292,-1966.64,0,0
62065,58.3887,-1958.07,0,0
62325.3,57.9102,-1949.47,0,0
62585.6,57.7564,-1940.76,0,0
62845.9,57.5642,-1932.31,0,0
63106.3,57.3598,-1923.9,0,0
63366.6,57.2003,-1915.42,0,0
63626.9,57.3123,-1907.37,0,0
63887.2,56.8676,-1899.41,0,0
64147.6,56.5227,-1891.33,0,0
64407.9,56.36,-1883.03,0,0
64668.2,56.2593,-1874.93,0,0
64928.5,56.1343,-1866.8,0,0
65188.9,56.2022,-1858.87,0,0
65449.2,56.3753,-1851.14,0,0
65709.5,56.5401,-1843.91,0,0
65969.8,56.3114,-1836.69,0,0
66230.2,55.9945,-1829.26,0,0
66490.5,55.8368,-1821.81,0,0
66750.8,55.5094,-1814.46,0,0
67011.1,55.098,-1807.16,0,0
67271.5,54.595,-1799.78,0,0
67531.8,54.2383,-1792.3,0,0
67792.1,54.0471,-1784.93,0,0
68052.4,53.8027,-1777.66,0,0
68312.8,53.5262,-1770.22,0,0
68573.1,53.3176,-1763.05,0,0
68833.4,53.2935,-1755.83,0,0
69093.7,53.1114,-1748.8,0,0
69354.1,53.0809,-1741.77,0,0
69614.4,52.9823,-1734.74,0,0
69874.7,52.9018,-1727.78,0,0
70135,52.9731,-1721,0,0
70395.4,52.8615,-1714.32,0,0
70655.7,52.81,-1707.55,0,0
70916,52.8256,-1700.94,0,0
71176.3,52.6713,-1694.43,0,0
71436.7,52.4559,-1688,0,0
71697,52.3391,-1681.57,0,0
71957.3,52.0863,-1675.06,0,0
72217.6,51.7622,-1668.63,0,0
72478,51.4994,-1662.17,0,0
72738.3,51.4156,-1655.75,0,0
72998.6,51.2332,-1649.37,0,0
73258.9,51.0251,-1642.96,0,0
73519.3,50.8864,-1636.7,0,0
73779.6,50.7216,-1630.43,0,0
74039.9,50.6507,-1624.1,0,0
74300.225,50.5062,-1617.95,0,0
74560.55,50.4374,-1611.81,0,0
74820.875,50.3621,-1605.63,0,0
75081.2,50.2571,-1599.68,0,0
75341.525,50.1322,-1593.64,0,0
75601.85,50.054,-1587.67,0,0
75862.175,49.9374,-1581.75,0,0
76122.5,49.8391,-1575.86,0,0
76382.825,49.7121,-1569.94,0,0
76643.15,49.6568,-1564.12,0,0
76903.475,49.6472,-1558.26,0,0
77163.8,49.5577,-1552.52,0,0
77424.125,49.4864,-1546.8,0,0
77684.45,49.4214,-1541.05,0,0
77944.775,49.4212,-1535.46,0,0
78205.1,49.2692,-1529.88,0,0
78465.425,49.1941,-1524.24,0,0
78725.75,49.1403,-1518.69,0,0
78986.075,49.1966,-1513.19,0,0
79246.4,49.1052,-1507.66,0,0
79506.725,49.0729,-1502.26,0,0
79767.05,49.0668,-1496.8,0,0
80027.375,48.9805,-1491.47,0,0
80287.7,49.0177,-1486.12,0,0
80548.025,48.9491,-1480.9,0,0
80808.35,48.9135,-1475.62,0,0
81068.675,48.8325,-1470.4,0,0
81329.0,48.7516,-1465.11,0,0
81589.325,48.689,-1459.93,0,0
81849.65,48.6684,-1454.75,0,0
82109.975,48.6207,-1449.59,0,0
82370.3,48.5595,-1444.45,0,0
82630.625,48.5758,-1439.33,0,0
82890.95,48.6497,-1434.31,0,0
83151.275,48.6092,-1429.31,0,0
83411.6,48.4999,-1424.26,0,0
83671.925,48.4677,-1419.27,0,0
83932.25,48.4791,-1414.33,0,0
84192.575,48.5423,-1409.29,0,0
84452.9,48.6265,-1404.37,0,0
84713.225,48.6446,-1399.53,0,0
84973.55,48.6612,-1394.82,0,0
85233.875,48.7195,-1389.97,0,0
85494.2,48.7477,-1385.33,0,0
85754.525,48.7416,-1380.61,0,0
86014.85,48.6886,-1375.85,0,0
86275.175,48.7359,-1371.15,0,0
86535.5,48.8328,-1366.54,0,0
86795.825,48.8031,-1361.95,0,0
87056.15,48.7456,-1357.25,0,0
87316.475,48.8044,-1352.55,0,0
87576.8,48.8049,-1347.99,0,0
87837.125,48.8957,-1343.49,0,0
88097.45,49.0307,-1338.95,0,0
88357.775,49.0392,-1334.59,0,0
88618.1,49.0567,-1330.27,0,0
88878.425,48.9331,-1325.79,0,0
89138.75,48.8324,-1321.36,0,0
89399.075,48.888,-1316.85,0,0
89659.4,48.8699,-1312.38,0,0
89919.725,48.8336,-1307.91,0,0
90180,48.8387,-1303.52,0,0
90440.4,48.9769,-1299.18,0,0
90700.7,49.1153,-1294.83,0,0
90961,49.1951,-1290.52,0,0
91221.3,49.2546,-1286.18,0,0
91481.7,49.4045,-1281.93,0,0
91742,49.5601,-1277.72,0,0
92002.3,49.6532,-1273.57,0,0
92262.6,49.6798,-1269.4,0,0
92523,49.7872,-1265.26,0,0
92783.3,49.774,-1261.1,0,0
93043.6,49.676,-1256.89,0,0
93303.9,49.8366,-1252.37,0,0
93564.3,50.1092,-1248.03,0,0
93824.6,50.5936,-1243.7,0,0
94084.9,51.3866,-1239.48,0,0
94345.2,52.2554,-1235.91,0,0
94605.6,52.7518,-1232.67,0,0
94865.9,52.807,-1229.55,0,0
95126.2,52.4823,-1226.16,0,0
95386.5,52.3253,-1222.42,0,0
95646.9,52.0824,-1219.03,0,0
95907.2,51.5368,-1215.24,0,0
96167.5,51.2705,-1211.13,0,0
96427.8,51.1664,-1207.24,0,0
96688.2,50.9646,-1203.13,0,0
96948.5,51.0314,-1199.11,0,0
97208.8,51.0563,-1195.14,0,0
97469.1,51.1319,-1191.26,0,0
97729.5,51.1696,-1187.31,0,0
97989.8,51.3911,-1183.33,0,0
98250.1,51.6555,-1179.53,0,0
98510.4,51.9493,-1175.79,0,0
98770.8,52.1723,-1172.36,0,0
99031.1,52.0575,-1168.88,0,0
99291.4,51.8668,-1165.22,0,0
99551.7,51.8456,-1161.42,0,0
99812.1,51.6716,-1157.63,0,0
100072,51.7153,-1153.54,0,0
100333,52.009,-1149.52,0,0
100593,52.4706,-1145.79,0,0
100853,52.6904,-1142.17,0,0
101114,52.9332,-1138.43,0,0
101374,53.3237,-1134.71,0,0
101634,53.6863,-1131.19,0,0
101895,53.9322,-1127.66,0,0
102155,54.2201,-1124.07,0,0
102415,54.5695,-1120.47,0,0
102676,55.0821,-1116.84,0,0
102936,55.5371,-1113.48,0,0
103196,55.9924,-1109.95,0,0
103457,56.5112,-1106.7,0,0
103717,57.1176,-1103.4,0,0
103977,57.8729,-1100.57,0,0
104238,57.8869,-1097.89,0,0
104498,57.8552,-1094.55,0,0
104758,58.2881,-1091.28,0,0
105019,58.579,-1088.49,0,0
105279,58.4131,-1085.7,0,0
105539,58.2671,-1082.56,0,0
105800,58.2139,-1079.25,0,0
106060,58.295,-1076.01,0,0
106320.175,58.2049,-1072.86,0,0
106580.5,58.1114,-1069.4,0,0
106840.825,58.3296,-1065.91,0,0
107101.15,58.7375,-1062.49,0,0
107361.475,59.0231,-1059.41,0,0
107621.8,59.1355,-1056.27,0,0
107882.125,59.3675,-1053,0,0
108142.45,59.6237,-1049.81,0,0
108402.775,59.9371,-1046.78,0,0
108663.1,60.0641,-1043.67,0,0
108923.425,60.2459,-1040.6,0,0
109183.75,60.2788,-1037.52,0,0
109444.075,60.3602,-1034.26,0,0
109704.4,60.4146,-1031.05,0,0
109964.725,60.4489,-1027.67,0,0
110225.05,60.556,-1024.27,0,0
110485.375,60.7109,-1020.69,0,0
110745.7,61.1957,-1017,0,0
111006.025,61.8141,-1013.59,0,0
111266.35,62.6505,-1010.29,0,0
111526.675,63.4888,-1007.12,0,0
111787.0,64.0334,-1003.91,0,0
112047.325,64.6359,-1000.61,0,0
112307.65,65.4797,-997.399,0,0
112567.975,66.4182,-994.275,0,0
112828.3,67.2522,-991.212,0,0
113088.625,68.2577,-988.067,0,0
113348.95,69.5472,-985.102,0,0
113609.275,70.7627,-982.684,0,0
113869.6,71.5063,-980.164,0,0
114129.925,72.2863,-977.366,0,0
114390.25,73.3934,-974.582,0,0
114650.575,74.6146,-971.975,0,0
114910.9,75.6336,-969.731,0,0
115171.225,76.5311,-967.164,0,0
115431.55,77.6469,-964.613,0,0
115691.875,78.9207,-962.182,0,0
115952.2,80.2658,-959.737,0,0
116212.525,82.0161,-957.613,0,0
116472.85,83.8006,-955.876,0,0
116733.175,85.3893,-954.701,0,0
116993.5,86.565,-953.803,0,0
117253.825,87.3083,-952.831,0,0
117514.15,87.967,-951.657,0,0
117774.475,88.6249,-950.6,0,0
118034.8,88.9911,-949.649,0,0
118295.125,89.1956,-948.294,0,0
118555.45,89.9552,-946.804,0,0
118815.775,91.0914,-946.023,0,0
119076.1,91.6334,-945.975,0,0
119336.425,91.5603,-945.789,0,0
119596.75,91.4026,-945.676,0,0
119857.075,90.8481,-945.722,0,0
120117.4,89.6274,-945.786,0,0
120377.725,87.843,-945.368,0,0
120638.05,86.0035,-944.677,0,0
120898.375,83.7891,-943.525,0,0
121158.7,81.6153,-942.01,0,0
121419.025,79.1965,-940.021,0,0
121679.35,77.1562,-937.303,0,0
121939.675,75.7517,-934.501,0,0
122200.0,74.5592,-931.972,0,0
122460,73.2984,-929.551,0,0
122721,72.0137,-926.901,0,0
122981,70.9234,-924.302,0,0
123241,69.8171,-921.721,0,0
123502,68.6088,-919.1,0,0
123762,67.3424,-916.252,0,0
124022,66.4068,-913.026,0,0
124283,65.8577,-910.109,0,0
124543,65.185,-907.336,0,0
124803,64.606,-904.451,0,0
125064,64.2842,-901.744,0,0
125324,63.6471,-899.472,0,0
125584,62.6479,-897.057,0,0
125845,61.6143,-894.198,0,0
126105,60.8394,-891.217,0,0
126365,60.1802,-888.276,0,0
126626,59.4533,-885.397,0,0
126886,58.829,-882.316,0,0
127146,58.1523,-879.439,0,0
127406,57.6612,-876.339,0,0
127667,57.1874,-873.119,0,0
127927,56.9991,-869.97,0,0
128187,56.8179,-867.039,0,0
128448,56.6086,-864.17,0,0
128708,56.2982,-861.315,0,0
128968,56.0281,-858.453,0,0
129229,55.7267,-855.479,0,0
129489,55.6321,-852.51,0,0
129749,55.4912,-849.801,0,0
130010,55.0737,-847.004,0,0
130270,54.7385,-844.038,0,0
130530,54.6429,-840.934,0,0
130791,54.554,-838.014,0,0
131051,54.5152,-835.164,0,0
131311,54.4103,-832.436,0,0
131572,54.0635,-829.575,0,0
131832,53.7725,-826.486,0,0
132092,53.6576,-823.355,0,0
132353,53.6363,-820.248,0,0
132613,53.6165,-817.112,0,0
132873,53.7391,-813.942,0,0
133134,53.9251,-810.828,0,0
133394,54.101,-807.77,0,0
133654,54.3453,-804.566,0,0
133915,54.7182,-801.391,0,0
134175,55.3175,-798.229,0,0
134435,55.98,-795.179,0,0
134696,56.7989,-792.245,0,0
134956,57.6485,-789.669,0,0
135216,58.2109,-787.043,0,0
135477,58.991,-784.279,0,0
135737,59.8742,-781.701,0,0
135997,60.8916,-779.196,0,0
136258,62.1691,-777.064,0,0
136518,63.1452,-775.532,0,0
136778,63.6286,-774.198,0,0
137039,63.7292,-772.721,0,0
137299,63.483,-771.145,0,0
137559,62.9753,-769.185,0,0
137819,62.6192,-766.931,0,0
138080,62.3752,-764.592,0,0
138340.125,62.1386,-762.334,0,0
138600.45,61.794,-759.964,0,0
138860.775,61.4473,-757.385,0,0
139121.1,61.1457,-754.714,0,0
139381.425,61.0118,-751.804,0,0
139641.75,61.1339,-748.986,0,0
139902.075,61.309,-746.341,0,0
140162.4,61.3812,-743.706,0,0
140422.725,61.6317,-741.025,0,0
140683.05,61.8287,-738.531,0,0
140943.375,61.8626,-736.02,0,0
141203.7,61.8929,-733.346,0,0
141464.025,62.0105,-730.713,0,0
141724.35,62.1045,-728.044,0,0
141984.675,62.1649,-725.246,0,0
142245.0,62.4322,-722.391,0,0
142505.325,62.7336,-719.697,0,0
142765.65,63.0348,-716.99,0,0
143025.975,63.3039,-714.239,0,0
143286.3,63.6545,-711.436,0,0
143546.625,64.1757,-708.667,0,0
143806.95,64.7838,-706.047,0,0
144067.275,65.327,-703.599,0,0
144327.6,65.7687,-701.226,0,0
144587.925,66.0801,-698.832,0,0
144848.25,66.3501,-696.354,0,0
145108.575,66.642,-693.883,0,0
145368.9,66.9361,-691.413,0,0
145629.225,67.1175,-688.932,0,0
145889.55,67.2571,-686.368,0,0
146149.875,67.3897,-683.697,0,0
146410.2,67.6563,-680.869,0,0
146670.525,68.0627,-678.134,0,0
146930.85,68.5073,-675.526,0,0
147191.175,68.8491,-672.934,0,0
147451.5,69.1867,-670.397,0,0
147711.825,69.3669,-667.826,0,0
147972.15,69.5876,-665.046,0,0
148232.475,69.9517,-662.283,0,0
148492.8,70.2858,-659.63,0,0
148753.125,70.5402,-656.967,0,0
149013.45,70.7926,-654.291,0,0
149273.775,70.9181,-651.596,0,0
149534.1,70.9399,-648.731,0,0
149794.425,70.9999,-645.659,0,0
150054.75,71.2279,-642.524,0,0
150315.075,71.4839,-639.4,0,0
150575.4,71.7724,-636.17,0,0
150835.725,72.0672,-632.909,0,0
151096.05,72.4093,-629.547,0,0
151356.375,72.8531,-626.088,0,0
151616.7,73.362,-622.561,0,0
151877.025,74.0252,-618.956,0,0
152137.35,74.8026,-615.333,0,0
152397.675,75.7357,-611.73,0,0
152658.0,76.6792,-608.105,0,0
152918.325,77.7553,-604.447,0,0
153178.65,79.0026,-600.808,0,0
153438.975,80.3438,-597.254,0,0
153699.3,81.7024,-593.793,0,0
153959.625,83.017,-590.324,0,0
154219.95,84.394,-586.706,0,0
154480,85.9472,-583.059,0,0
154741,87.7267,-579.361,0,0
155001,89.5415,-575.888,0,0
155261,91.4398,-572.418,0,0
155522,93.5182,-568.907,0,0
155782,95.6576,-565.584,0,0
156042,97.9296,-562.244,0,0
156303,100.362,-559.014,0,0
156563,102.805,-556.073,0,0
156823,105.268,-553.219,0,0
157084,107.748,-550.396,0,0
157344,110.164,-547.666,0,0
157604,112.885,-544.987,0,0
157864,115.532,-542.603,0,0
158125,118.098,-540.62,0,0
158385,120.451,-538.544,0,0
158645,122.682,-536.593,0,0
158906,124.888,-534.914,0,0
159166,126.73,-533.333,0,0
159426,127.938,-531.758,0,0
159687,128.938,-529.858,0,0
159947,129.737,-527.713,0,0
160207,130.291,-524.948,0,0
160468,131.024,-521.853,0,0
160728,131.709,-518.323,0,0
160988,132.668,-514.475,0,0
161249,133.75,-510.294,0,0
161509,135.064,-505.547,0,0
161769,137.187,-500.478,0,0
162030,139.949,-495.47,0,0
162290,143.144,-490.677,0,0
162550,146.728,-485.946,0,0
162811,150.441,-481.58,0,0
163071,154.144,-477.224,0,0
163331,158.034,-472.583,0,0
163592,162.591,-467.92,0,0
163852,167.817,-463.47,0,0
164112,173.321,-459.691,0,0
164373,178.805,-456.367,0,0
164633,184.028,-453.072,0,0
164893,189.435,-449.576,0,0
165154,195.304,-446.308,0,0
165414,200.918,-443.328,0,0
165674,206.551,-440.006,0,0
165935,212.489,-436.279,0,0
166195,219.185,-432.169,0,0
166455,226.985,-428.062,0,0
166716,236.069,-424.48,0,0
166976,245.964,-422.162,0,0
167236,255.934,-420.835,0,0
167497,266.219,-420.119,0,0
167757,276.641,-420.474,0,0
168017,287.044,-421.635,0,0
168277,297.428,-423.524,0,0
168538,307.957,-426.109,0,0
168798,318.558,-429.732,0,0
169058,328.775,-434.788,0,0
169319,338.181,-440.43,0,0
169579,346.945,-447.069,0,0
169839,354.506,-454.077,0,0
170100,361.559,-460.288,0,0
170360.075,369.425,-466.792,0,0
170620.4,377.675,-474.52,0,0
170880.725,385.546,-484.055,0,0
171141.05,391.58,-495.222,0,0
171401.375,395.491,-506.325,0,0
171661.7,398.413,-516.803,0,0
171922.025,400.663,-526.967,0,0
172182.35,402.786,-536.733,0,0
172442.675,405.318,-547.411,0,0
172703.0,406.603,-560.214,0,0
172963.325,404.361,-573.185,0,0
173223.65,400.701,-584.151,0,0
173483.975,396.368,-594.653,0,0
173744.3,390.765,-604.293,0,0
174004.625,384.301,-612.864,0,0
174264.95,377.07,-620.512,0,0
174525.275,368.492,-626.901,0,0
174785.6,359.505,-630.708,0,0
175045.925,351.263,-632.746,0,0
175306.25,343.95,-633.442,0,0
175566.575,337.44,-633.408,0,0
175826.9,331.315,-632.568,0,0
176087.225,326.105,-629.82,0,0
176347.55,323.543,-626.208,0,0
176607.875,323.265,-623.464,0,0
176868.2,324.388,-622.036,0,0
177128.525,325.96,-622.494,0,0
177388.85,327.025,-623.62,0,0
177649.175,328.455,-624.916,0,0
177909.5,330.624,-626.981,0,0
178169.825,333.601,-630.381,0,0
178430.15,336.652,-636.379,0,0
178690.475,337.929,-645.03,0,0
178950.8,335.995,-654.632,0,0
179211.125,331.27,-663.552,0,0
179471.45,324.728,-670.778,0,0
179731.775,317.441,-676.32,0,0
179992.1,310.03,-680.418,0,0
180252.425,302.842,-683.363,0,0
180512.75,296.592,-685.7,0,0
180773.075,290.593,-688.629,0,0
181033.4,283.779,-691.937,0,0
181293.725,276.188,-694.808,0,0
181554.05,267.584,-697.217,0,0
181814.375,258.129,-698.024,0,0
182074.7,249.175,-697.337,0,0
182335.025,240.874,-696.15,0,0
182595.35,232.483,-694.645,0,0
182855.675,223.805,-692.289,0,0
183116.0,215.378,-688.498,0,0
183376.325,208.098,-683.653,0,0
183636.65,202.142,-678.62,0,0
183896.975,196.726,-673.979,0,0
184157.3,191.434,-669.233,0,0
184417.625,186.45,-664.016,0,0
184677.95,182.276,-658.336,0,0
184938.275,179.246,-652.853,0,0
185198.6,176.873,-648.231,0,0
185458.925,174.183,-644.465,0,0
185719.25,170.868,-640.719,0,0
185979.575,167.203,-636.661,0,0
186239.9,163.402,-631.92,0,0
186500,160.093,-626.442,0,0
186761,157.579,-620.708,0,0
187021,155.686,-615.073,0,0
187281,154.178,-609.632,0,0
187542,153.038,-604.248,0,0
187802,152.377,-598.988,0,0
188062,152.231,-594.052,0,0
188322,152.513,-589.745,0,0
188583,152.807,-586.289,0,0
188843,152.57,-583.651,0,0
189103,151.241,-581.137,0,0
189364,149.339,-578.013,0,0
189624,147.282,-574.29,0,0
189884,145.421,-570.057,0,0
190145,143.715,-565.591,0,0
190405,142.148,-560.796,0,0
190665,141.019,-555.714,0,0
190926,140.111,-550.685,0,0
191186,139.339,-545.442,0,0
191446,139.105,-539.894,0,0
191707,139.518,-534.638,0,0
191967,139.975,-529.948,0,0
192227,140.205,-525.359,0,0
192488,140.369,-520.573,0,0
192748,140.668,-515.641,0,0
193008,141.207,-510.636,0,0
193269,141.945,-505.626,0,0
193529,142.867,-500.642,0,0
193789,144.002,-495.674,0,0
194050,145.28,-490.771,0,0
194310,146.68,-485.879,0,0
194570,148.27,-480.966,0,0
194831,150.123,-476.063,0,0
195091,152.291,-471.291,0,0
195351,154.728,-466.742,0,0
195612,157.1,-462.708,0,0
195872,159.367,-458.713,0,0
196132,161.548,-454.653,0,0
196393,163.911,-450.519,0,0
196653,166.306,-446.556,0,0
196913,168.906,-442.564,0,0
197174,171.495,-438.748,0,0
197434,174.178,-435.118,0,0
197694,176.723,-431.428,0,0
197955,179.424,-427.784,0,0
198215,182.005,-424.302,0,0
198475,184.46,-420.738,0,0
198735,186.977,-416.857,0,0
198996,189.763,-412.921,0,0
199256,192.609,-409.16,0,0
199516,195.488,-405.259,0,0
199777,198.388,-401.335,0,0
200037,201.459,-397.177,0,0
200297,204.881,-392.849,0,0
200558,208.565,-388.515,0,0
200818,212.707,-384.318,0,0
201078,217.089,-380.346,0,0
201339,221.423,-376.618,0,0
201599,225.709,-372.793,0,0
201859,230.326,-368.707,0,0
202120,235.41,-364.707,0,0
202380.025,240.806,-360.974,0,0
202640.35,246.449,-357.367,0,0
202900.675,252.408,-354.008,0,0
203161.0,258.567,-350.876,0,0
203421.325,265,-347.937,0,0
203681.65,271.572,-345.282,0,0
203941.975,278.391,-342.848,0,0
204202.3,285.506,-340.749,0,0
204462.625,292.859,-339.18,0,0
204722.95,300.016,-337.959,0,0
204983.275,307.267,-336.906,0,0
205243.6,314.652,-336.135,0,0
205503.925,322.254,-335.488,0,0
205764.25,330.354,-335.443,0,0
206024.575,338.697,-336.327,0,0
206284.9,346.522,-338.282,0,0
206545.225,353.578,-340.699,0,0
206805.55,359.947,-343.341,0,0
207065.875,365.716,-346.128,0,0
207326.2,370.704,-348.55,0,0
207586.525,375.368,-350.555,0,0
207846.85,379.699,-352.057,0,0
208107.175,384.074,-352.864,0,0
208367.5,388.797,-352.917,0,0
208627.825,394.209,-352.496,0,0
208888.15,400.524,-351.488,0,0
209148.475,408.499,-350.35,0,0
209408.8,418.243,-350.199,0,0
209669.125,428.852,-351.807,0,0
209929.45,439.778,-355.023,0,0
210189.775,450.492,-359.811,0,0
210450.1,460.743,-365.924,0,0
210710.425,470.587,-373.198,0,0
210970.75,479.741,-381.941,0,0
211231.075,487.492,-391.921,0,0
211491.4,493.681,-402.435,0,0
211751.725,498.581,-413.144,0,0
212012.05,502.063,-423.868,0,0
212272.375,504.267,-434.047,0,0
212532.7,505.791,-443.475,0,0
212793.025,507.14,-452.42,0,0
213053.35,508.369,-461.056,0,0
213313.675,509.436,-470.153,0,0
213574.0,509.405,-479.365,0,0
213834.325,508.646,-487.944,0,0
214094.65,507.758,-496.151,0,0
214354.975,506.506,-504.431,0,0
214615.3,504.423,-512.617,0,0
214875.625,501.441,-520.154,0,0
215135.95,497.965,-526.346,0,0
215396.275,495.001,-531.645,0,0
215656.6,492.661,-536.601,0,0
215916.925,490.784,-541.558,0,0
216177.25,489.159,-546.869,0,0
216437.575,487.447,-552.496,0,0
216697.9,485.667,-558.484,0,0
216958.225,483.434,-565.002,0,0
217218.55,480.235,-571.88,0,0
217478.875,475.887,-578.449,0,0
217739.2,470.717,-584.144,0,0
217999.525,465.37,-589.001,0,0
218259.85,460.047,-593.354,0,0
218520,454.52,-597.52,0,0
218780,448.542,-601.183,0,0
219041,442.22,-604.33,0,0
219301,435.582,-606.714,0,0
219561,428.696,-608.197,0,0
219822,421.977,-608.693,0,0
220082,415.515,-608.35,0,0
220342,409.497,-607.18,0,0
220603,404.119,-605.346,0,0
220863,399.465,-602.946,0,0
221123,395.517,-600.3,0,0
221384,392.301,-597.564,0,0
221644,389.53,-594.84,0,0
221904,387.326,-591.958,0,0
222165,385.619,-589.033,0,0
222425,384.421,-586.259,0,0
222685,383.813,-583.502,0,0
222946,383.719,-581.096,0,0
223206,383.871,-579.244,0,0
223466,383.857,-577.506,0,0
223727,383.988,-575.685,0,0
223987,384.447,-573.914,0,0
224247,385.156,-572.268,0,0
224508,386.003,-570.877,0,0
224768,386.925,-569.439,0,0
225028,387.946,-568.004,0,0
225289,389.286,-566.331,0,0
225549,391.21,-564.529,0,0
225809,393.826,-562.849,0,0
226070,397.295,-561.682,0,0
226330,401.27,-561.328,0,0
226590,405.442,-561.935,0,0
226851,409.427,-563.458,0,0
227111,412.868,-565.563,0,0
227371,415.852,-567.8,0,0
227632,418.734,-569.927,0,0
227892,421.915,-572.106,0,0
228152,425.422,-574.798,0,0
228413,428.947,-578.177,0,0
228673,432.326,-582.213,0,0
228933,435.487,-586.835,0,0
229193,438.291,-592.145,0,0
229454,440.502,-598.118,0,0
229714,441.776,-604.423,0,0
229974,442.267,-610.659,0,0
230235,442.43,-616.456,0,0
230495,442.803,-622.375,0,0
230755,442.999,-629.006,0,0
231016,442.332,-636.331,0,0
231276,440.374,-643.743,0,0
231536,437.355,-650.512,0,0
231797,434.028,-656.412,0,0
232057,430.823,-661.876,0,0
232317,427.735,-667.33,0,0
232578,424.514,-673.034,0,0
232838,420.771,-678.947,0,0
233098,416.54,-684.76,0,0
233359,412.068,-690.523,0,0
233619,407.162,-696.711,0,0
233879,400.908,-703.276,0,0
234140,392.968,-709.211,0,0
234400,383.937,-713.743,0,0
234660.3,374.485,-716.624,0,0
234920.625,365.255,-718.187,0,0
235180.95,356.195,-718.747,0,0
235441.275,347.66,-718.197,0,0
235701.6,339.594,-716.949,0,0
235961.925,332.107,-715.033,0,0
236222.25,325.438,-712.513,0,0
236482.575,319.665,-709.87,0,0
236742.9,314.508,-707.416,0,0
237003.225,309.767,-705.197,0,0
237263.55,305.102,-703.408,0,0
237523.875,299.965,-701.768,0,0
237784.2,294.435,-699.557,0,0
238044.525,288.987,-696.624,0,0
238304.85,283.83,-693.087,0,0
238565.175,279.215,-688.896,0,0
238825.5,275.316,-684.161,0,0
239085.825,272.413,-679.336,0,0
239346.15,270.438,-674.741,0,0
239606.475,268.991,-670.379,0,0
239866.8,268.191,-666.323,0,0
240127.125,268.022,-662.844,0,0
240387.45,268.381,-659.953,0,0
240647.775,268.882,-658.322,0,0
240908.1,268.767,-657.775,0,0
241168.425,267.593,-657.521,0,0
241428.75,265.675,-656.954,0,0
241689.075,263.55,-655.939,0,0
241949.4,261.345,-654.762,0,0
242209.725,258.948,-653.563,0,0
242470.05,256.063,-652.169,0,0
242730.375,252.806,-650.104,0,0
242990.7,249.594,-647.11,0,0
243251.025,247.042,-643.367,0,0
243511.35,245.374,-639.429,0,0
243771.675,244.1,-635.691,0,0
244032.0,243.026,-631.866,0,0
244292.325,242.505,-627.742,0,0
244552.65,242.681,-623.578,0,0
244812.975,243.602,-619.848,0,0
245073.3,245.063,-616.593,0,0
245333.625,246.907,-614.027,0,0
245593.95,248.715,-612.301,0,0
245854.275,250.215,-611.204,0,0
246114.6,251.306,-610.375,0,0
246374.925,251.934,-609.686,0,0
246635.25,252.336,-608.834,0,0
246895.575,252.748,-607.922,0,0
247155.9,253.141,-607.04,0,0
247416.225,253.365,-606.307,0,0
247676.55,253.352,-605.425,0,0
247936.875,253.33,-604.286,0,0
248197.2,253.559,-603.035,0,0
248457.525,253.957,-601.815,0,0
248717.85,254.446,-600.685,0,0
248978.175,255.05,-599.623,0,0
249238.5,255.725,-598.682,0,0
249498.825,256.377,-597.776,0,0
249759.15,257.165,-597.017,0,0
250019.475,258.046,-596.287,0,0
250279.8,259.12,-595.814,0,0
250540,260.024,-595.707,0,0
250800,260.788,-595.618,0,0
251061,261.467,-595.59,0,0
251321,262.114,-595.518,0,0
251581,262.834,-595.594,0,0
251842,263.577,-595.834,0,0
252102,264.214,-596.19,0,0
252362,264.795,-596.682,0,0
252623,265.321,-597.28,0,0
252883,265.789,-598.004,0,0
253143,266.092,-598.936,0,0
253404,266.184,-599.978,0,0
253664,266.1,-600.976,0,0
253924,265.908,-602.015,0,0
254185,265.634,-603.203,0,0
254445,265.093,-604.566,0,0
254705,264.106,-605.991,0,0
254966,262.669,-607.183,0,0
255226,261.173,-607.971,0,0
255486,259.674,-608.619,0,0
255747,258.079,-609.154,0,0
256007,256.307,-609.615,0,0
256267,254.405,-609.868,0,0
256528,252.433,-609.821,0,0
256788,250.52,-609.512,0,0
257048,248.719,-609.048,0,0
257309,246.941,-608.535,0,0
257569,245.071,-607.885,0,0
257829,243.158,-606.99,0,0
258090,241.348,-605.811,0,0
258350,239.668,-604.387,0,0
258610,238.18,-602.747,0,0
258871,237.039,-600.982,0,0
259131,236.179,-599.183,0,0
259391,235.537,-597.61,0,0
259651,234.912,-596.142,0,0
259912,234.174,-594.646,0,0
260172,233.456,-593.04,0,0
260432,232.787,-591.276,0,0
260693,232.188,-589.321,0,0
260953,231.85,-587.183,0,0
261213,231.744,-584.951,0,0
261474,231.889,-582.598,0,0
261734,232.398,-580.169,0,0
261994,233.339,-577.688,0,0
262255,234.779,-575.347,0,0
262515,236.695,-573.308,0,0
262775,239.059,-571.716,0,0
263036,241.521,-570.723,0,0
263296,243.969,-570.234,0,0
263556,246.349,-570.128,0,0
263817,248.632,-570.426,0,0
264077,250.739,-571.038,0,0
264337,252.612,-572.046,0,0
264598,254.089,-573.29,0,0
264858,255.149,-574.551,0,0
265118,255.935,-575.771,0,0
265379,256.546,-576.808,0,0
265639,257.057,-577.784,0,0
265899,257.467,-578.546,0,0
266160,258.077,-579.265,0,0
266420,258.775,-579.96,0,0
266680.25,259.584,-580.809,0,0
266940.575,260.375,-581.876,0,0
267200.9,261.088,-583.085,0,0
267461.225,261.702,-584.409,0,0
267721.55,262.244,-585.816,0,0
267981.875,262.63,-587.407,0,0
268242.2,262.76,-589.102,0,0
268502.525,262.612,-590.658,0,0
268762.85,262.343,-592.078,0,0
269023.175,262.041,-593.339,0,0
269283.5,261.716,-594.362,0,0
269543.825,261.574,-595.273,0,0
269804.15,261.581,-596.085,0,0
270064.475,261.964,-596.955,0,0
270324.8,262.541,-597.958,0,0
270585.125,263.284,-599.349,0,0
270845.45,264.103,-601.046,0,0
271105.775,264.941,-603.047,0,0
271366.1,265.614,-605.33,0,0
271626.425,266.281,-607.796,0,0
271886.75,267.023,-610.444,0,0
272147.075,267.993,-613.663,0,0
272407.4,268.972,-617.711,0,0
272667.725,269.448,-622.873,0,0
272928.05,268.822,-628.824,0,0
273188.375,266.85,-634.946,0,0
273448.7,263.848,-640.826,0,0
273709.025,260.083,-646.492,0,0
273969.35,255.35,-651.933,0,0
274229.675,249.629,-656.972,0,0
274490.0,243.041,-661.176,0,0
274750.325,235.86,-664.375,0,0
275010.65,228.427,-666.634,0,0
275270.975,220.941,-668.099,0,0
275531.3,213.194,-668.724,0,0
275791.625,205.473,-668.488,0,0
276051.95,197.908,-667.329,0,0
276312.275,190.71,-665.436,0,0
276572.6,183.905,-662.9,0,0
276832.925,177.523,-659.898,0,0
277093.25,171.547,-656.412,0,0
277353.575,165.989,-652.489,0,0
277613.9,160.931,-648.173,0,0
277874.225,156.408,-643.504,0,0
278134.55,152.482,-638.556,0,0
278394.875,149.228,-633.482,0,0
278655.2,146.647,-628.461,0,0
278915.525,144.586,-623.609,0,0
279175.85,142.932,-618.99,0,0
279436.175,141.524,-614.624,0,0
279696.5,140.334,-610.342,0,0
279956.825,139.461,-606.142,0,0
280217.15,138.829,-602.11,0,0
280477.475,138.553,-598.302,0,0
280737.8,138.45,-594.721,0,0
280998.125,138.509,-591.496,0,0
281258.45,138.67,-588.581,0,0
281518.775,138.761,-586.002,0,0
281779.1,138.664,-583.661,0,0
282039.425,138.324,-581.359,0,0
282299.75,137.834,-579.04,0,0
282560,137.28,-576.597,0,0
282820,136.717,-574.074,0,0
283081,136.139,-571.401,0,0
283341,135.646,-568.637,0,0
283601,135.238,-565.768,0,0
283862,134.949,-562.794,0,0
284122,134.818,-559.7,0,0
284382,134.973,-556.517,0,0
284643,135.425,-553.38,0,0
284903,136.147,-550.406,0,0
285163,137.019,-547.601,0,0
285424,138.055,-544.936,0,0
285684,139.21,-542.492,0,0
285944,140.377,-540.255,0,0
286205,141.579,-538.187,0,0
286465,142.787,-536.292,0,0
286725,143.972,-534.57,0,0
286986,145.1,-533.009,0,0
287246,146.102,-531.574,0,0
287506,146.98,-530.195,0,0
287767,147.717,-528.846,0,0
288027,148.36,-527.427,0,0
288287,148.94,-525.948,0,0
288548,149.49,-524.378,0,0
288808,150.042,-522.707,0,0
289068,150.663,-520.893,0,0
289329,151.415,-519.014,0,0
289589,152.379,-517.139,0,0
289849,153.427,-515.335,0,0
290109,154.52,-513.597,0,0
290370,155.67,-511.851,0,0
290630,156.912,-510.119,0,0
290890,158.324,-508.38,0,0
291151,159.906,-506.791,0,0
291411,161.563,-505.369,0,0
291671,163.205,-504.132,0,0
291932,164.788,-503.028,0,0
292192,166.309,-501.934,0,0
292452,167.829,-500.861,0,0
292713,169.373,-499.799,0,0
292973,170.98,-498.783,0,0
293233,172.601,-497.845,0,0
293494,174.209,-496.97,0,0
293754,175.802,-496.123,0,0
294014,177.407,-495.279,0,0
294275,179.022,-494.431,0,0
294535,180.706,-493.595,0,0
294795,182.42,-492.754,0,0
295056,184.199,-491.947,0,0
295316,186.043,-491.159,0,0
295576,187.978,-490.357,0,0
295837,190.05,-489.594,0,0
296097,192.247,-488.9,0,0
296357,194.58,-488.331,0,0
296618,197.016,-487.87,0,0
296878,199.556,-487.561,0,0
297138,202.205,-487.408,0,0
297399,204.9,-487.436,0,0
297659,207.644,-487.65,0,0
297919,210.423,-488.074,0,0
298180,213.191,-488.691,0,0
298440,215.925,-489.505,0,0
298700.2,218.526,-490.506,0,0
298960.525,221.089,-491.579,0,0
299220.85,223.582,-492.596,0,0
299481.175,226.119,-493.768,0,0
299741.5,228.764,-495.017,0,0
300001.825,231.489,-496.403,0,0
300262.15,234.3,-498.005,0,0
300522.475,237.239,-499.77,0,0
300782.8,240.21,-501.811,0,0
301043.125,243.185,-504.135,0,0
301303.45,246.28,-506.91,0,0
301563.775,249.327,-509.954,0,0
301824.1,252.358,-513.506,0,0
302084.425,255.27,-517.557,0,0
302344.75,257.979,-522.301,0,0
302605.075,260.251,-527.67,0,0
302865.4,261.737,-533.618,0,0
303125.725,262.365,-539.892,0,0
303386.05,262.043,-546.224,0,0
303646.375,260.815,-552.306,0,0
303906.7,258.916,-557.962,0,0
304167.025,256.577,-563.112,0,0
304427.35,253.951,-567.851,0,0
304687.675,251.142,-572.254,0,0
304948.0,248.101,-576.425,0,0
305208.325,244.801,-580.359,0,0
305468.65,241.277,-583.954,0,0
305728.975,237.596,-587.19,0,0
305989.3,233.816,-590.196,0,0
306249.625,229.861,-592.935,0,0
306509.95,225.729,-595.403,0,0
306770.275,221.412,-597.511,0,0
307030.6,217.019,-599.205,0,0
307290.925,212.689,-600.483,0,0
307551.25,208.421,-601.451,0,0
307811.575,204.247,-602.182,0,0
308071.9,200.16,-602.647,0,0
308332.225,196.132,-602.9,0,0
308592.55,192.218,-602.939,0,0
308852.875,188.362,-602.767,0,0
309113.2,184.627,-602.359,0,0
309373.525,181.028,-601.786,0,0
309633.85,177.575,-601.036,0,0
309894.175,174.249,-600.142,0,0
310154.5,171.112,-599.089,0,0
310414.825,168.13,-597.97,0,0
310675.15,165.331,-596.754,0,0
310935.475,162.636,-595.498,0,0
311195.8,160.093,-594.189,0,0
311456.125,157.681,-592.84,0,0
311716.45,155.399,-591.449,0,0
311976.775,153.264,-590.065,0,0
312237.1,151.258,-588.697,0,0
312497.425,149.347,-587.368,0,0
312757.75,147.459,-586.106,0,0
313018.075,145.603,-584.82,0,0
313278.4,143.76,-583.528,0,0
313538.725,141.958,-582.213,0,0
313799.05,140.193,-580.866,0,0
314059.375,138.451,-579.495,0,0
314319.7,136.73,-578.049,0,0
314580,135.073,-576.536,0,0
314840,133.507,-574.924,0,0
315101,131.992,-573.303,0,0
315361,130.663,-571.59,0,0
315621,129.437,-569.871,0,0
315882,128.356,-568.144,0,0
316142,127.378,-566.494,0,0
316402,126.49,-564.883,0,0
316663,125.707,-563.294,0,0
316923,125.025,-561.772,0,0
317183,124.389,-560.317,0,0
317444,123.82,-558.976,0,0
317704,123.251,-557.712,0,0
317964,122.642,-556.5,0,0
318225,122.044,-555.319,0,0
318485,121.429,-554.108,0,0
318745,120.832,-552.913,0,0
319006,120.251,-551.707,0,0
319266,119.754,-550.47,0,0
319526,119.333,-549.264,0,0
319787,118.959,-548.069,0,0
320047,118.659,-546.974,0,0
320307,118.409,-545.911,0,0
320567,118.197,-544.973,0,0
320828,117.992,-544.097,0,0
321088,117.738,-543.307,0,0
321348,117.488,-542.58,0,0
321609,117.157,-541.893,0,0
321869,116.814,-541.234,0,0
322129,116.432,-540.588,0,0
322390,116.041,-539.968,0,0
322650,115.634,-539.369,0,0
322910,115.18,-538.79,0,0
323171,114.677,-538.238,0,0
323431,114.138,-537.65,0,0
323691,113.583,-537.047,0,0
323952,113.014,-536.419,0,0
324212,112.44,-535.783,0,0
324472,111.868,-535.138,0,0
324733,111.293,-534.465,0,0
324993,110.722,-533.805,0,0
325253,110.166,-533.102,0,0
325514,109.625,-532.393,0,0
325774,109.092,-531.674,0,0
326034,108.619,-530.989,0,0
326295,108.179,-530.313,0,0
326555,107.743,-529.693,0,0
326815,107.292,-529.11,0,0
327076,106.834,-528.558,0,0
327336,106.326,-528.03,0,0
327596,105.816,-527.512,0,0
327857,105.269,-527.01,0,0
328117,104.716,-526.519,0,0
328377,104.101,-526.05,0,0
328638,103.414,-525.543,0,0
328898,102.71,-525.012,0,0
329158,102.001,-524.412,0,0
329419,101.301,-523.772,0,0
329679,100.667,-523.126,0,0
329939,100.021,-522.512,0,0
330200,99.4074,-521.89,0,0
330460,98.7688,-521.289,0,0
330720.15,98.1197,-520.672,0,0
330980.475,97.5237,-520.122,0,0
331240.8,96.847,-519.547,0,0
331501.125,96.2019,-519.06,0,0
331761.45,95.4687,-518.514,0,0
332021.775,94.7207,-518.056,0,0
332282.1,93.918,-517.561,0,0
332542.425,92.9928,-516.995,0,0
332802.75,92.1211,-516.34,0,0
333063.075,91.1317,-515.764,0,0
333323.4,90.1392,-515.062,0,0
333583.725,89.1583,-514.275,0,0
333844.05,88.1404,-513.437,0,0
334104.375,87.1117,-512.596,0,0
334364.7,86.1177,-511.633,0,0
334625.025,85.1917,-510.668,0,0
334885.35,84.3594,-509.661,0,0
335145.675,83.4275,-508.652,0,0
335406.0,82.5597,-507.586,0,0
335666.325,81.7704,-506.496,0,0
335926.65,80.8787,-505.439,0,0
336186.975,79.9907,-504.302,0,0
336447.3,79.2141,-503.136,0,0
336707.625,78.4718,-501.895,0,0
336967.95,77.7258,-500.66,0,0
337228.275,76.9627,-499.374,0,0
337488.6,76.3047,-498.01,0,0
337748.925,75.6704,-496.732,0,0
338009.25,75.1251,-495.312,0,0
338269.575,74.657,-493.986,0,0
338529.9,74.1348,-492.708,0,0
338790.225,73.6782,-491.302,0,0
339050.55,73.3167,-489.948,0,0
339310.875,72.9856,-488.677,0,0
339571.2,72.635,-487.425,0,0
339831.525,72.256,-486.116,0,0
340091.85,71.9466,-484.834,0,0
340352.175,71.6475,-483.544,0,0
340612.5,71.3819,-482.235,0,0
340872.825,71.1015,-481.051,0,0
341133.15,70.8495,-479.786,0,0
341393.475,70.7002,-478.416,0,0
341653.8,70.4505,-477.107,0,0
341914.125,70.3105,-475.762,0,0
342174.45,70.2196,-474.512,0,0
342434.775,70.124,-473.193,0,0
342695.1,70.0932,-471.957,0,0
342955.425,70.0595,-470.696,0,0
343215.75,70.0644,-469.425,0,0
343476.075,70.1221,-468.207,0,0
343736.4,70.1654,-467.017,0,0
343996.725,70.264,-465.792,0,0
344257.05,70.4038,-464.615,0,0
344517.375,70.5871,-463.474,0,0
344777.7,70.7665,-462.445,0,0
345038.025,71.0089,-461.353,0,0
345298.35,71.1781,-460.325,0,0
345558.675,71.4474,-459.384,0,0
345819.0,71.6536,-458.51,0,0
346079.325,71.8614,-457.624,0,0
346339.65,72.0577,-456.773,0,0
346599.975,72.2211,-456.01,0,0
346860,72.3383,-455.231,0,0
347121,72.4885,-454.485,0,0
347381,72.56,-453.707,0,0
347641,72.6154,-453.001,0,0
347902,72.6453,-452.288,0,0
348162,72.5254,-451.575,0,0
348422,72.4946,-450.84,0,0
348683,72.3454,-450.086,0,0
348943,72.2465,-449.239,0,0
349203,72.112,-448.4,0,0
349464,72.0468,-447.466,0,0
349724,71.8788,-446.558,0,0
349984,71.8689,-445.672,0,0
350245,71.7883,-444.732,0,0
350505,71.76,-443.778,0,0
350765,71.6582,-442.841,0,0
351025,71.6347,-441.824,0,0
351286,71.568,-440.784,0,0
351546,71.5608,-439.711,0,0
351806,71.613,-438.591,0,0
352067,71.7774,-437.472,0,0
352327,71.9577,-436.346,0,0
352587,72.1972,-435.238,0,0
352848,72.4902,-434.213,0,0
353108,72.901,-433.155,0,0
353368,73.2933,-432.228,0,0
353629,73.721,-431.347,0,0
353889,74.1596,-430.503,0,0
354149,74.6232,-429.724,0,0
354410,75.0151,-428.995,0,0
354670,75.4109,-428.296,0,0
354930,75.7842,-427.641,0,0
355191,76.2156,-427.062,0,0
355451,76.5635,-426.458,0,0
355711,76.9354,-425.894,0,0
355972,77.2402,-425.443,0,0
356232,77.5318,-425.047,0,0
356492,77.7354,-424.638,0,0
356753,77.8773,-424.188,0,0
357013,77.8678,-423.811,0,0
357273,77.9321,-423.367,0,0
357534,77.8527,-422.912,0,0
357794,77.7631,-422.419,0,0
358054,77.6582,-421.855,0,0
358315,77.4701,-421.251,0,0
358575,77.2662,-420.617,0,0
358835,77.0593,-419.808,0,0
359096,76.8515,-419.007,0,0
359356,76.7594,-418.067,0,0
359616,76.6585,-417.097,0,0
359877,76.6173,-416.117,0,0
360137,76.7068,-415.122,0,0
360397,76.7874,-414.132,0,0
360658,76.9454,-413.092,0,0
360918,77.1537,-412.004,0,0
361178,77.3941,-411.036,0,0
361438,77.7463,-410.048,0,0
361699,78.0839,-409.11,0,0
361959,78.4785,-408.163,0,0
362219,78.8327,-407.247,0,0
362480,79.3,-406.368,0,0
362740.1,79.7757,-405.539,0,0
363000.425,80.248,-404.764,0,0
363260.75,80.7225,-403.972,0,0
363521.075,81.2339,-403.264,0,0
363781.4,81.6981,-402.513,0,0
364041.725,82.1733,-401.837,0,0
364302.05,82.6824,-401.161,0,0
364562.375,83.1705,-400.511,0,0
364822.7,83.7407,-399.87,0,0
365083.025,84.2905,-399.252,0,0
365343.35,84.8098,-398.692,0,0
365603.675,85.3217,-398.2,0,0
365864.0,85.907,-397.664,0,0
366124.325,86.4533,-397.221,0,0
366384.65,86.9405,-396.809,0,0
366644.975,87.4212,-396.482,0,0
366905.3,87.8631,-396.086,0,0
367165.625,88.2421,-395.708,0,0
367425.95,88.628,-395.29,0,0
367686.275,89.0585,-394.928,0,0
367946.6,89.4746,-394.501,0,0
368206.925,89.9151,-394.131,0,0
368467.25,90.3498,-393.812,0,0
368727.575,90.807,-393.493,0,0
368987.9,91.294,-393.227,0,0
369248.225,91.709,-393.067,0,0
369508.55,92.0745,-392.975,0,0
369768.875,92.3885,-392.865,0,0
370029.2,92.6063,-392.81,0,0
370289.525,92.7784,-392.788,0,0
370549.85,92.8584,-392.791,0,0
370810.175,92.7956,-392.764,0,0
371070.5,92.6602,-392.633,0,0
371330.825,92.4272,-392.431,0,0
371591.15,92.1641,-392.142,0,0
371851.475,91.8537,-391.703,0,0
372111.8,91.6218,-391.182,0,0
372372.125,91.3872,-390.585,0,0
372632.45,91.1867,-389.881,0,0
372892.775,91.1233,-389.119,0,0
373153.1,91.0878,-388.364,0,0
373413.425,91.1391,-387.606,0,0
373673.75,91.2381,-386.808,0,0
373934.075,91.3652,-386.049,0,0
374194.4,91.4935,-385.281,0,0
374454.725,91.6816,-384.55,0,0
374715.05,91.8972,-383.842,0,0
374975.375,92.1236,-383.126,0,0
375235.7,92.3996,-382.429,0,0
375496.025,92.6815,-381.731,0,0
375756.35,92.9237,-381.01,0,0
376016.675,93.193,-380.379,0,0
376277.0,93.5128,-379.685,0,0
376537.325,93.824,-379.024,0,0
376797.65,94.1589,-378.376,0,0
377057.975,94.4601,-377.788,0,0
377318.3,94.6877,-377.11,0,0
377578.625,94.9894,-376.504,0,0
377838.95,95.2487,-375.827,0,0
378099.275,95.5964,-375.079,0,0
378359.6,95.9161,-374.372,0,0
378619.925,96.2778,-373.655,0,0
378880,96.6988,-372.892,0,0
379141,97.132,-372.128,0,0
379401,97.6467,-371.44,0,0
379661,98.1905,-370.716,0,0
379922,98.7666,-370.053,0,0
380182,99.3653,-369.462,0,0
380442,99.9361,-368.856,0,0
380703,100.495,-368.35,0,0
380963,101.079,-367.793,0,0
381223,101.591,-367.291,0,0
381483,102.148,-366.778,0,0
381744,102.654,-366.246,0,0
382004,103.229,-365.72,0,0
382264,103.776,-365.147,0,0
382525,104.345,-364.632,0,0
382785,104.979,-364.124,0,0
383045,105.661,-363.627,0,0
383306,106.28,-363.169,0,0
383566,106.931,-362.715,0,0
383826,107.589,-362.348,0,0
384087,108.23,-361.952,0,0
384347,108.793,-361.596,0,0
384607,109.438,-361.216,0,0
384868,110.04,-360.871,0,0
385128,110.637,-360.5,0,0
385388,111.261,-360.187,0,0
385649,111.843,-359.87,0,0
385909,112.443,-359.619,0,0
386169,112.976,-359.28,0,0
386430,113.507,-358.917,0,0
386690,114.003,-358.553,0,0
386950,114.573,-358.112,0,0
387211,115.177,-357.723,0,0
387471,115.833,-357.326,0,0
387731,116.451,-356.964,0,0
387992,117.064,-356.59,0,0
388252,117.712,-356.191,0,0
388512,118.347,-355.808,0,0
388773,118.991,-355.371,0,0
389033,119.755,-354.917,0,0
389293,120.533,-354.507,0,0
389554,121.397,-354.066,0,0
389814,122.264,-353.764,0,0
390074,123.125,-353.51,0,0
390335,124.078,-353.3,0,0
390595,124.963,-353.116,0,0
390855,125.782,-352.92,0,0
391116,126.66,-352.761,0,0
391376,127.476,-352.67,0,0
391636,128.3,-352.576,0,0
391896,129.175,-352.431,0,0
392157,129.969,-352.359,0,0
392417,130.762,-352.229,0,0
392677,131.637,-352.11,0,0
392938,132.447,-351.945,0,0
393198,133.367,-351.835,0,0
393458,134.291,-351.709,0,0
393719,135.261,-351.62,0,0
393979,136.23,-351.541,0,0
394239,137.195,-351.493,0,0
394500,138.209,-351.435,0,0
394760.05,139.28,-351.39,0,0
395020.375,140.414,-351.375,0,0
395280.7,141.595,-351.423,0,0
395541.025,142.806,-351.496,0,0
395801.35,144.021,-351.641,0,0
396061.675,145.313,-351.826,0,0
396322.0,146.59,-352.104,0,0
396582.325,147.927,-352.376,0,0
396842.65,149.327,-352.737,0,0
397102.975,150.842,-353.202,0,0
397363.3,152.358,-353.826,0,0
397623.625,153.962,-354.571,0,0
397883.95,155.516,-355.523,0,0
398144.275,156.997,-356.628,0,0
398404.6,158.38,-357.935,0,0
398664.925,159.684,-359.33,0,0
398925.25,160.85,-360.896,0,0
399185.575,161.977,-362.531,0,0
399445.9,162.903,-364.254,0,0
399706.225,163.715,-366.111,0,0
399966.55,164.384,-368.07,0,0
400006.6,164.464,-368.394,0,0