File: Accelerated corrosion test data/2025-10-05_06-00-04/sample_4.csv
Frequency (Hz),Impedance (ohms),Phase (Radians),Temperature (C),Humidity (%)
10000.0,262.336,-11857.8,0,0
10260.325,259.133,-11558.8,0,0
10520.65,249.112,-11276.2,0,0
10780.975,243.322,-11005.5,0,0
11041.3,238.441,-10747.5,0,0
11301.625,233.674,-10505.2,0,0
11561.95,227.727,-10269.2,0,0
11822.275,222.795,-10044.5,0,0
12082.6,218.688,-9830.05,0,0
12342.925,214.119,-9623.68,0,0
12603.25,211.686,-9424,0,0
12863.575,207.76,-9237.87,0,0
13123.9,207.901,-9058.52,0,0
13384.225,198.507,-8880.5,0,0
13644.55,195.637,-8709.75,0,0
13904.875,192.279,-8545.07,0,0
14165.2,193.863,-8381.78,0,0
14425.525,199.53,-8231.04,0,0
14685.8,201.642,-8122.25,0,0
14946.175,181.787,-7965.88,0,0
15206.5,180.385,-7821.57,0,0
15466.825,187.726,-7678.36,0,0
15727.15,188.224,-7581.19,0,0
15987.5,187.489,-7460.15,0,0
16247.8,170.481,-7335.09,0,0
16508.125,185.268,-7204.37,0,0
16768.45,177.81,-7108.28,0,0
17028.775,171.137,-7018.89,0,0
17289.1,159.739,-6905.83,0,0
17549.425,158.427,-6801.66,0,0
17809.75,155.597,-6699.94,0,0
18070.075,151.981,-6602.95,0,0
18330.4,152.82,-6506.56,0,0
18590.725,152.989,-6417.35,0,0
18851.05,149.523,-6333.99,0,0
19111.375,144.824,-6244.51,0,0
19371.7,142.51,-6159.43,0,0
19632.025,141.207,-6075.41,0,0
19892.35,143.283,-5994.38,0,0
20152.675,143.208,-5917.37,0,0
20413.0,140.807,-5845.32,0,0
20673.3,140.094,-5769.72,0,0
20933.65,136.804,-5697.03,0,0
21193.975,139.658,-5622.05,0,0
21454.3,151.417,-5556.76,0,0
21714.625,145.005,-5498.57,0,0
21974.9,148.205,-5429.1,0,0
22235.275,148.297,-5383.61,0,0
22495.6,135.731,-5327.35,0,0
22755.925,128.288,-5262.45,0,0
23016.25,124.998,-5200.64,0,0
23276.6,122.578,-5140.48,0,0
23536.9,120.755,-5083.06,0,0
23797.225,118.861,-5026.26,0,0
24057.55,117.078,-4970.57,0,0
24317.875,116.265,-4916.65,0,0
24578.2,114.534,-4863.09,0,0
24838.525,114.316,-4811.14,0,0
25098.85,113.524,-4759.81,0,0
25359.175,113.118,-4713.03,0,0
25619.5,111.9,-4663.33,0,0
25879.8,111.149,-4619.38,0,0
26140.1,107.739,-4571.19,0,0
26400.5,107.346,-4524.31,0,0
26660.8,106.591,-4478.54,0,0
26921.1,106.063,-4434.47,0,0
27181.4,105.166,-4389.84,0,0
27441.8,105.651,-4344.44,0,0
27702.1,108.697,-4300.6,0,0
27962.4,116.933,-4260.02,0,0
28222.7,119.129,-4229.36,0,0
28483.1,115.371,-4196.84,0,0
28743.4,109.765,-4157.63,0,0
29003.7,110.865,-4115.57,0,0
29264,117.004,-4081.68,0,0
29524.4,112.441,-4052.78,0,0
29784.7,108.784,-4020.27,0,0
30045,106.992,-3984.88,0,0
30305.3,101.765,-3951.35,0,0
30565.7,99.4665,-3915.16,0,0
30826,98.7601,-3880.64,0,0
31086.3,97.9349,-3846.93,0,0
31346.6,98.9269,-3813.55,0,0
31607,98.7574,-3783.57,0,0
31867.3,97.023,-3752.04,0,0
32127.6,99.2038,-3720.53,0,0
32387.9,98.0817,-3694.35,0,0
32648.3,97.2038,-3664.29,0,0
32908.6,94.9851,-3637.79,0,0
33168.9,92.6395,-3608.75,0,0
33429.2,89.7466,-3580.16,0,0
33689.6,88.6101,-3551.47,0,0
33949.9,87.5075,-3522.72,0,0
34210.2,87.5892,-3495.11,0,0
34470.5,86.6899,-3468.9,0,0
34730.9,84.9337,-3441.99,0,0
34991.2,84.6476,-3415.38,0,0
35251.5,83.808,-3389.56,0,0
35511.8,83.2495,-3363.96,0,0
35772.2,82.8402,-3339.21,0,0
36032.5,81.9631,-3314.81,0,0
36292.8,80.8619,-3289.98,0,0
36553.1,80.5673,-3265.53,0,0
36813.5,80.3883,-3241.49,0,0
37073.8,80.7804,-3218.51,0,0
37334.1,79.5051,-3196.25,0,0
37594.4,79.1712,-3172.95,0,0
37854.8,78.8649,-3150.52,0,0
38115.1,78.5749,-3128.75,0,0
38375.4,77.3339,-3106.42,0,0
38635.7,77.0575,-3084.22,0,0
38896.1,77.5314,-3062.49,0,0
39156.4,77.0758,-3042.02,0,0
39416.7,76.5227,-3021.09,0,0
39677,76.4963,-2999.8,0,0
39937.4,76.6972,-2978.8,0,0
40197.7,78.312,-2958.13,0,0
40458,80.238,-2939.24,0,0
40718.3,79.5801,-2922.55,0,0
40978.7,79.1652,-2902.82,0,0
41239,79.3054,-2883.96,0,0
41499.3,82.2591,-2866.54,0,0
41759.6,79.6699,-2851.92,0,0
42020,77.8335,-2833.58,0,0
42280.275,76.4483,-2814.4,0,0
42540.6,78.4208,-2796.21,0,0
42800.925,78.1034,-2781.96,0,0
43061.25,75.5322,-2764.24,0,0
43321.575,75.8124,-2747,0,0
43581.9,74.4889,-2730.47,0,0
43842.225,73.7402,-2713.07,0,0
44102.55,74.0006,-2697.46,0,0
44362.875,72.4255,-2680.8,0,0
44623.2,72.2235,-2663.79,0,0
44883.525,72.2262,-2648.03,0,0
45143.85,71.4785,-2632.27,0,0
45404.175,70.4293,-2615.86,0,0
45664.5,71.0981,-2599.14,0,0
45924.825,72.3886,-2584.63,0,0
46185.15,72.3044,-2571.48,0,0
46445.475,70.2784,-2555.62,0,0
46705.8,71.3962,-2540.3,0,0
46966.125,71.74,-2526.16,0,0
47226.45,71.409,-2511.99,0,0
47486.775,71.4726,-2499.22,0,0
47747.1,70.1667,-2485.43,0,0
48007.425,69.5373,-2471.47,0,0
48267.75,68.5851,-2458.02,0,0
48528.075,67.8152,-2444.01,0,0
48788.4,67.087,-2430.17,0,0
49048.725,66.1706,-2416.54,0,0
49309.05,65.9381,-2402.22,0,0
49569.375,65.6208,-2389.36,0,0
49829.7,64.9466,-2375.62,0,0
50090.025,64.9568,-2362.51,0,0
50350.35,64.5241,-2349.15,0,0
50610.675,64.2424,-2336.13,0,0
50871.0,64.1752,-2323.07,0,0
51131.325,63.8915,-2310.32,0,0
51391.65,63.7325,-2297.24,0,0
51651.975,63.8991,-2284.47,0,0
51912.3,63.9532,-2271.96,0,0
52172.625,64.2133,-2259.16,0,0
52432.95,64.3259,-2247.14,0,0
52693.275,64.5427,-2234.33,0,0
52953.6,65.5777,-2221.76,0,0
53213.925,66.5696,-2210.15,0,0
53474.25,67.8206,-2198.08,0,0
53734.575,68.9048,-2186.25,0,0
53994.9,71.4522,-2175.02,0,0
54255.225,73.566,-2165.41,0,0
54515.55,75.9595,-2156.46,0,0
54775.875,76.2336,-2149.48,0,0
55036.2,74.2658,-2141.19,0,0
55296.525,73.2877,-2131.18,0,0
55556.85,71.7817,-2122.14,0,0
55817.175,70.2169,-2111.83,0,0
56077.5,68.7507,-2102.07,0,0
56337.825,67.1944,-2091.15,0,0
56598.15,66.0061,-2079.79,0,0
56858.475,65.8741,-2068.77,0,0
57118.8,65.5965,-2057.68,0,0
57379.125,66.0128,-2047,0,0
57639.45,66.173,-2036.78,0,0
57899.775,66.4217,-2026.64,0,0
58160.1,66.6177,-2016.38,0,0
58420.4,67.2452,-2006.08,0,0
58680.7,68.2468,-1996.95,0,0
58941.1,67.63,-1986.7,0,0
59201.4,68.6402,-1976.01,0,0
59461.7,70.7259,-1965.72,0,0
59722,73.2835,-1956.98,0,0
59982.4,75.859,-1949.04,0,0
60242.7,77.1971,-1942.53,0,0
60503,77.9816,-1934.88,0,0
60763.3,79.9008,-1928,0,0
61023.7,80.6556,-1924.04,0,0
61284,78.4736,-1919.18,0,0
61544.3,74.6383,-1913.16,0,0
61804.6,71.115,-1903.93,0,0
62065,69.6696,-1894.69,0,0
62325.3,68.7744,-1886.21,0,0
62585.6,66.3214,-1878.12,0,0
62845.9,64.9089,-1867.7,0,0
63106.3,64.506,-1858.44,0,0
63366.6,64.4955,-1849.24,0,0
63626.9,64.6145,-1840.41,0,0
63887.2,64.6913,-1832.52,0,0
64147.6,63.4137,-1823.95,0,0
64407.9,63.5348,-1814.39,0,0
64668.2,64.3911,-1805.75,0,0
64928.5,65.1621,-1797.9,0,0
65188.9,65.1309,-1790.19,0,0
65449.2,65.543,-1782,0,0
65709.5,65.4143,-1773.96,0,0
65969.8,66.2961,-1765.71,0,0
66230.2,67.3902,-1758.34,0,0
66490.5,67.9911,-1750.95,0,0
66750.8,68.6981,-1743.97,0,0
67011.1,69.1195,-1736.88,0,0
67271.5,70.1915,-1729.52,0,0
67531.8,71.4896,-1722.88,0,0
67792.1,72.3018,-1716.87,0,0
68052.4,73.2481,-1711.03,0,0
68312.8,73.7043,-1705.59,0,0
68573.1,73.7355,-1700.58,0,0
68833.4,73.1276,-1695.79,0,0
69093.7,71.5187,-1690.8,0,0
69354.1,69.4283,-1684.69,0,0
69614.4,67.5066,-1678.11,0,0
69874.7,66.2244,-1670.41,0,0
70135,65.6038,-1663.58,0,0
70395.4,64.5403,-1656.7,0,0
70655.7,63.8798,-1648.76,0,0
70916,65.1993,-1641.74,0,0
71176.3,65.2418,-1636.69,0,0
71436.7,64.177,-1630.58,0,0
71697,63.6064,-1624.52,0,0
71957.3,62.5323,-1618.84,0,0
72217.6,60.6473,-1612.46,0,0
72478,59.171,-1605.2,0,0
72738.3,58.4263,-1597.92,0,0
72998.6,57.6174,-1590.65,0,0
73258.9,56.9683,-1583.05,0,0
73519.3,57.3035,-1575.53,0,0
73779.6,57.7106,-1568.64,0,0
74039.9,58.0981,-1561.73,0,0
74300.225,58.53,-1555.3,0,0
74560.55,58.778,-1548.76,0,0
74820.875,59.3081,-1542.26,0,0
75081.2,59.8331,-1536.03,0,0
75341.525,60.5057,-1529.96,0,0
75601.85,61.0776,-1524.19,0,0
75862.175,61.3562,-1518.48,0,0
76122.5,61.6878,-1512.62,0,0
76382.825,62.3408,-1507.05,0,0
76643.15,62.2288,-1501.74,0,0
76903.475,62.1031,-1495.91,0,0
77163.8,62.6417,-1489.4,0,0
77424.125,64.1304,-1483.97,0,0
77684.45,65.0408,-1479.28,0,0
77944.775,65.5576,-1474.91,0,0
78205.1,65.5294,-1470.68,0,0
78465.425,65.2543,-1466.18,0,0
78725.75,64.784,-1461.56,0,0
78986.075,64.0283,-1456.91,0,0
79246.4,63.0988,-1451.91,0,0
79506.725,62.2958,-1446.65,0,0
79767.05,61.6683,-1441.14,0,0
80027.375,61.2299,-1435.59,0,0
80287.7,60.9212,-1430.12,0,0
80548.025,60.7644,-1424.8,0,0
80808.35,60.6118,-1419.35,0,0
81068.675,60.5442,-1414.22,0,0
81329.0,60.4699,-1409.15,0,0
81589.325,60.3715,-1404.12,0,0
81849.65,60.1172,-1399.26,0,0
82109.975,59.8244,-1394.3,0,0
82370.3,59.5588,-1389.25,0,0
82630.625,59.3383,-1384.2,0,0
82890.95,59.1097,-1379.15,0,0
83151.275,58.9111,-1374.27,0,0
83411.6,58.5291,-1369.35,0,0
83671.925,58.3367,-1364.31,0,0
83932.25,58.1216,-1359.34,0,0
84192.575,57.9022,-1354.44,0,0
84452.9,57.7305,-1349.49,0,0
84713.225,57.4838,-1344.63,0,0
84973.55,57.3808,-1339.78,0,0
85233.875,57.2074,-1334.88,0,0
85494.2,57.1015,-1330.14,0,0
85754.525,56.9171,-1325.39,0,0
86014.85,56.6963,-1320.61,0,0
86275.175,56.5973,-1315.84,0,0
86535.5,56.5255,-1311.1,0,0
86795.825,56.3737,-1306.6,0,0
87056.15,56.1472,-1301.94,0,0
87316.475,56.0159,-1297.36,0,0
87576.8,55.8157,-1292.85,0,0
87837.125,55.5463,-1288.45,0,0
88097.45,55.0982,-1283.96,0,0
88357.775,54.3791,-1279.4,0,0
88618.1,53.8948,-1274.38,0,0
88878.425,53.7398,-1269.39,0,0
89138.75,53.6476,-1264.53,0,0
89399.075,53.5742,-1259.78,0,0
89659.4,53.6024,-1255.06,0,0
89919.725,53.7029,-1250.3,0,0
90180,53.5969,-1245.77,0,0
90440.4,53.5771,-1241.09,0,0
90700.7,53.5415,-1236.66,0,0
90961,53.468,-1232.1,0,0
91221.3,53.4129,-1227.49,0,0
91481.7,53.4503,-1222.82,0,0
91742,53.5383,-1218.23,0,0
92002.3,53.8373,-1213.69,0,0
92262.6,54.092,-1209.24,0,0
92523,54.4051,-1204.89,0,0
92783.3,54.7071,-1200.71,0,0
93043.6,55.0326,-1196.74,0,0
93303.9,55.105,-1192.92,0,0
93564.3,55.0047,-1188.9,0,0
93824.6,54.8422,-1185.08,0,0
94084.9,54.484,-1181.1,0,0
94345.2,54.0507,-1176.9,0,0
94605.6,53.753,-1172.6,0,0
94865.9,53.3682,-1168.24,0,0
95126.2,53.1834,-1163.72,0,0
95386.5,53.1084,-1159.23,0,0
95646.9,52.9594,-1154.75,0,0
95907.2,53.0289,-1150.2,0,0
96167.5,53.2553,-1145.8,0,0
96427.8,53.361,-1141.44,0,0
96688.2,53.5688,-1137.16,0,0
96948.5,53.7382,-1132.9,0,0
97208.8,53.8902,-1128.62,0,0
97469.1,54.127,-1124.35,0,0
97729.5,54.2962,-1120.15,0,0
97989.8,54.468,-1115.86,0,0
98250.1,54.7625,-1111.52,0,0
98510.4,55.115,-1107.31,0,0
98770.8,55.4371,-1103.06,0,0
99031.1,55.8546,-1098.72,0,0
99291.4,56.4706,-1094.5,0,0
99551.7,57.1487,-1090.49,0,0
99812.1,57.7183,-1086.64,0,0
100072,58.11,-1082.48,0,0
100333,58.8499,-1078.36,0,0
100593,59.8677,-1074.45,0,0
100853,60.9652,-1071.06,0,0
101114,61.7702,-1068.03,0,0
101374,62.3318,-1064.89,0,0
101634,62.8849,-1062.1,0,0
101895,62.8599,-1059.61,0,0
102155,62.0661,-1056.91,0,0
102415,60.8998,-1053.49,0,0
102676,60.0187,-1049.56,0,0
102936,59.1571,-1045.41,0,0
103196,58.441,-1040.88,0,0
103457,57.9968,-1036.07,0,0
103717,57.9078,-1031.13,0,0
103977,58.2341,-1026.14,0,0
104238,58.9577,-1021.32,0,0
104498,59.6097,-1016.7,0,0
104758,60.4528,-1012.05,0,0
105019,61.5421,-1007.5,0,0
105279,62.8047,-1003.15,0,0
105539,64.03,-999.072,0,0
105800,65.2143,-995.008,0,0
106060,66.5353,-991.06,0,0
106320.175,67.8869,-987.23,0,0
106580.5,69.1831,-983.44,0,0
106840.825,70.5932,-979.789,0,0
107101.15,71.9004,-976.29,0,0
107361.475,73.1711,-972.749,0,0
107621.8,74.3866,-969.193,0,0
107882.125,75.6749,-965.623,0,0
108142.45,77.2149,-961.962,0,0
108402.775,78.8775,-958.503,0,0
108663.1,80.609,-955.224,0,0
108923.425,82.4789,-952.166,0,0
109183.75,84.1906,-949.315,0,0
109444.075,85.9155,-946.546,0,0
109704.4,87.6332,-944.034,0,0
109964.725,89.0607,-941.617,0,0
110225.05,90.4359,-939.136,0,0
110485.375,91.7743,-936.747,0,0
110745.7,93.2653,-934.467,0,0
111006.025,94.4178,-932.184,0,0
111266.35,95.6508,-929.984,0,0
111526.675,96.7293,-927.722,0,0
111787.0,97.8876,-925.485,0,0
112047.325,99.0665,-923.383,0,0
112307.65,100.211,-921.353,0,0
112567.975,101.332,-919.403,0,0
112828.3,102.316,-917.481,0,0
113088.625,103.284,-915.615,0,0
113348.95,104.207,-913.833,0,0
113609.275,105.006,-912.141,0,0
113869.6,105.701,-910.464,0,0
114129.925,106.322,-908.739,0,0
114390.25,106.948,-907.068,0,0
114650.575,107.441,-905.372,0,0
114910.9,107.952,-903.686,0,0
115171.225,108.4,-902.185,0,0
115431.55,108.711,-900.709,0,0
115691.875,108.877,-899.243,0,0
115952.2,108.846,-897.655,0,0
116212.525,108.867,-895.963,0,0
116472.85,108.825,-894.289,0,0
116733.175,108.597,-892.725,0,0
116993.5,108.24,-890.926,0,0
117253.825,107.85,-888.974,0,0
117514.15,107.446,-886.911,0,0
117774.475,107.001,-884.759,0,0
118034.8,106.595,-882.382,0,0
118295.125,106.269,-879.794,0,0
118555.45,106.17,-877.063,0,0
118815.775,106.346,-874.277,0,0
119076.1,106.84,-871.405,0,0
119336.425,107.749,-868.727,0,0
119596.75,109.039,-866.421,0,0
119857.075,110.68,-864.819,0,0
120117.4,111.983,-863.964,0,0
120377.725,112.708,-863.779,0,0
120638.05,112.596,-863.737,0,0
120898.375,111.698,-863.623,0,0
121158.7,110.205,-862.84,0,0
121419.025,108.621,-861.478,0,0
121679.35,107.103,-859.743,0,0
121939.675,105.718,-857.701,0,0
122200.0,104.431,-855.476,0,0
122460,103.226,-853.119,0,0
122721,102.151,-850.531,0,0
122981,101.331,-848.012,0,0
123241,100.646,-845.479,0,0
123502,99.9217,-842.991,0,0
123762,99.2833,-840.426,0,0
124022,98.6992,-837.926,0,0
124283,98.1298,-835.44,0,0
124543,97.5531,-832.926,0,0
124803,96.952,-830.476,0,0
125064,96.413,-827.925,0,0
125324,96.0459,-825.377,0,0
125584,95.5994,-822.97,0,0
125845,95.1861,-820.52,0,0
126105,94.8715,-818.201,0,0
126365,94.495,-816.073,0,0
126626,93.8876,-814.089,0,0
126886,92.952,-811.969,0,0
127146,92.1078,-809.78,0,0
127406,91.1868,-807.228,0,0
127667,90.3627,-804.812,0,0
127927,89.5599,-802.477,0,0
128187,88.5486,-800.236,0,0
128448,87.2773,-797.833,0,0
128708,85.9535,-795.2,0,0
128968,84.7059,-792.42,0,0
129229,83.3965,-789.565,0,0
129489,82.005,-786.521,0,0
129749,80.759,-783.268,0,0
130010,79.5916,-779.867,0,0
130270,78.5402,-776.374,0,0
130530,77.601,-772.813,0,0
130791,76.8024,-769.254,0,0
131051,75.9726,-765.686,0,0
131311,75.2255,-761.972,0,0
131572,74.6512,-758.188,0,0
131832,74.1806,-754.41,0,0
132092,73.7967,-750.76,0,0
132353,73.3518,-747.055,0,0
132613,73.0204,-743.268,0,0
132873,72.7974,-739.443,0,0
133134,72.6649,-735.684,0,0
133394,72.5388,-731.923,0,0
133654,72.4511,-728.188,0,0
133915,72.407,-724.392,0,0
134175,72.4789,-720.555,0,0
134435,72.6659,-716.754,0,0
134696,72.8389,-713.022,0,0
134956,73.0301,-709.242,0,0
135216,73.3563,-705.431,0,0
135477,73.7787,-701.671,0,0
135737,74.2483,-698.006,0,0
135997,74.7687,-694.387,0,0
136258,75.2172,-690.894,0,0
136518,75.6549,-687.278,0,0
136778,76.2288,-683.664,0,0
137039,76.8544,-680.132,0,0
137299,77.5355,-676.799,0,0
137559,78.0006,-673.52,0,0
137819,78.404,-670.184,0,0
138080,78.7253,-666.777,0,0
138340.125,79.0143,-663.24,0,0
138600.45,79.379,-659.552,0,0
138860.775,79.8322,-655.877,0,0
139121.1,80.3443,-652.114,0,0
139381.425,80.9075,-648.315,0,0
139641.75,81.5686,-644.535,0,0
139902.075,82.2834,-640.758,0,0
140162.4,83.0319,-636.985,0,0
140422.725,83.8945,-633.133,0,0
140683.05,84.7917,-629.298,0,0
140943.375,85.7964,-625.471,0,0
141203.7,86.9168,-621.645,0,0
141464.025,88.0879,-617.946,0,0
141724.35,89.2889,-614.281,0,0
141984.675,90.488,-610.681,0,0
142245.0,91.6272,-607.066,0,0
142505.325,92.833,-603.431,0,0
142765.65,94.0843,-599.837,0,0
143025.975,95.2891,-596.199,0,0
143286.3,96.559,-592.535,0,0
143546.625,97.8863,-588.901,0,0
143806.95,99.2118,-585.238,0,0
144067.275,100.621,-581.569,0,0
144327.6,102.028,-577.888,0,0
144587.925,103.506,-574.181,0,0
144848.25,105.059,-570.49,0,0
145108.575,106.661,-566.756,0,0
145368.9,108.305,-563.06,0,0
145629.225,110.006,-559.329,0,0
145889.55,111.793,-555.618,0,0
146149.875,113.668,-551.891,0,0
146410.2,115.574,-548.209,0,0
146670.525,117.476,-544.442,0,0
146930.85,119.589,-540.753,0,0
147191.175,121.726,-537.155,0,0
147451.5,123.878,-533.541,0,0
147711.825,126.122,-529.93,0,0
147972.15,128.402,-526.398,0,0
148232.475,130.61,-522.843,0,0
148492.8,132.913,-519.148,0,0
148753.125,135.393,-515.412,0,0
149013.45,138.031,-511.736,0,0
149273.775,140.75,-508.128,0,0
149534.1,143.526,-504.568,0,0
149794.425,146.368,-500.97,0,0
150054.75,149.407,-497.348,0,0
150315.075,152.576,-493.862,0,0
150575.4,155.803,-490.377,0,0
150835.725,159.222,-486.963,0,0
151096.05,162.747,-483.578,0,0
151356.375,166.497,-480.234,0,0
151616.7,170.481,-477.135,0,0
151877.025,174.518,-474.272,0,0
152137.35,178.556,-471.54,0,0
152397.675,182.655,-468.83,0,0
152658.0,187.058,-466.213,0,0
152918.325,191.634,-463.979,0,0
153178.65,196.227,-462.097,0,0
153438.975,200.805,-460.504,0,0
153699.3,205.31,-459.212,0,0
153959.625,209.689,-458.221,0,0
154219.95,213.801,-457.494,0,0
154480,217.657,-456.86,0,0
154741,221.33,-456.286,0,0
155001,224.601,-455.807,0,0
155261,227.699,-454.924,0,0
155522,231.136,-453.865,0,0
155782,234.748,-452.933,0,0
156042,238.333,-452.401,0,0
156303,241.729,-451.999,0,0
156563,245.038,-451.737,0,0
156823,247.866,-451.606,0,0
157084,250.292,-451.115,0,0
157344,252.91,-450.25,0,0
157604,255.817,-449.338,0,0
157864,258.438,-448.449,0,0
158125,261.171,-446.991,0,0
158385,264.635,-445.421,0,0
158645,268.418,-444.288,0,0
158906,272.353,-443.255,0,0
159166,276.665,-442.48,0,0
159426,281.119,-442.372,0,0
159687,285.403,-442.552,0,0
159947,289.835,-443.21,0,0
160207,293.948,-444.518,0,0
160468,297.403,-446.129,0,0
160728,300.619,-447.731,0,0
160988,303.504,-449.669,0,0
161249,305.84,-451.777,0,0
161509,307.364,-453.73,0,0
161769,308.312,-455.398,0,0
162030,309.115,-456.256,0,0
162290,309.922,-456.839,0,0
162550,310.685,-457.082,0,0
162811,311.382,-456.944,0,0
163071,312.486,-456.718,0,0
163331,313.466,-456.164,0,0
163592,314.604,-455.535,0,0
163852,315.718,-454.536,0,0
164112,317.011,-453.084,0,0
164373,318.783,-451.433,0,0
164633,321.093,-449.625,0,0
164893,323.991,-448.184,0,0
165154,327.105,-447.024,0,0
165414,330.222,-446.039,0,0
165674,333.197,-445.092,0,0
165935,336.509,-444.08,0,0
166195,340.018,-442.926,0,0
166455,343.955,-441.838,0,0
166716,348.462,-440.642,0,0
166976,353.762,-439.967,0,0
167236,359.484,-440.046,0,0
167497,365.21,-440.832,0,0
167757,371.328,-442.098,0,0
168017,377.551,-444.339,0,0
168277,383.923,-447.533,0,0
168538,389.643,-451.956,0,0
168798,394.365,-456.893,0,0
169058,398.618,-461.994,0,0
169319,402.493,-467.436,0,0
169579,405.959,-473.384,0,0
169839,408.699,-479.823,0,0
170100,410.8,-486.388,0,0
170360.075,412.36,-493.247,0,0
170620.4,413.441,-500.746,0,0
170880.725,413.256,-508.885,0,0
171141.05,411.507,-516.972,0,0
171401.375,408.312,-524.425,0,0
171661.7,404.282,-530.782,0,0
171922.025,399.898,-536.454,0,0
172182.35,395.022,-541.593,0,0
172442.675,389.714,-546.12,0,0
172703.0,383.924,-550.176,0,0
172963.325,377.427,-553.541,0,0
173223.65,370.423,-555.755,0,0
173483.975,363.526,-556.782,0,0
173744.3,356.86,-557.091,0,0
174004.625,350.289,-556.548,0,0
174264.95,344.168,-555.378,0,0
174525.275,338.151,-553.756,0,0
174785.6,332.412,-551.299,0,0
175045.925,327.346,-548.405,0,0
175306.25,322.645,-545.366,0,0
175566.575,318.085,-541.965,0,0
175826.9,313.784,-538.001,0,0
176087.225,310.134,-533.6,0,0
176347.55,307.059,-529.1,0,0
176607.875,304.42,-524.49,0,0
176868.2,302.245,-519.798,0,0
177128.525,300.425,-515.097,0,0
177388.85,299.015,-510.359,0,0
177649.175,297.959,-505.63,0,0
177909.5,297.332,-500.982,0,0
178169.825,297.096,-496.562,0,0
178430.15,296.98,-492.46,0,0
178690.475,296.859,-488.453,0,0
178950.8,296.834,-484.42,0,0
179211.125,296.989,-480.406,0,0
179471.45,297.304,-476.465,0,0
179731.775,297.739,-472.551,0,0
179992.1,298.361,-468.715,0,0
180252.425,299.136,-465.08,0,0
180512.75,299.936,-461.571,0,0
180773.075,300.701,-458.155,0,0
181033.4,301.474,-454.787,0,0
181293.725,302.27,-451.431,0,0
181554.05,303.08,-448.13,0,0
181814.375,303.913,-444.856,0,0
182074.7,304.678,-441.632,0,0
182335.025,305.316,-438.359,0,0
182595.35,305.942,-434.981,0,0
182855.675,306.562,-431.486,0,0
183116.0,307.147,-427.905,0,0
183376.325,307.729,-424.106,0,0
183636.65,308.417,-420.118,0,0
183896.975,309.217,-415.956,0,0
184157.3,310.176,-411.654,0,0
184417.625,311.285,-407.252,0,0
184677.95,312.583,-402.739,0,0
184938.275,314.039,-398.177,0,0
185198.6,315.612,-393.519,0,0
185458.925,317.308,-388.744,0,0
185719.25,319.197,-383.826,0,0
185979.575,321.318,-378.809,0,0
186239.9,323.697,-373.73,0,0
186500,326.274,-368.653,0,0
186761,329.093,-363.552,0,0
187021,332.03,-358.354,0,0
187281,335.182,-353.143,0,0
187542,338.538,-347.913,0,0
187802,342.066,-342.528,0,0
188062,345.906,-337.172,0,0
188322,350.035,-331.675,0,0
188583,354.5,-326.205,0,0
188843,359.176,-320.826,0,0
189103,364.201,-315.24,0,0
189364,369.58,-309.865,0,0
189624,375.114,-304.461,0,0
189884,381.059,-299.097,0,0
190145,387.315,-293.707,0,0
190405,394.096,-288.381,0,0
190665,401.272,-283.274,0,0
190926,408.794,-278.378,0,0
191186,416.696,-273.716,0,0
191446,424.859,-269.24,0,0
191707,433.286,-264.944,0,0
191967,442.127,-260.937,0,0
192227,451.416,-257.243,0,0
192488,460.842,-253.906,0,0
192748,470.61,-250.881,0,0
193008,480.636,-248.15,0,0
193269,490.892,-245.878,0,0
193529,501.447,-243.904,0,0
193789,512.088,-242.386,0,0
194050,522.74,-241.193,0,0
194310,533.62,-240.222,0,0
194570,544.647,-239.577,0,0
194831,555.998,-239.217,0,0
195091,567.495,-239.377,0,0
195351,579.098,-239.932,0,0
195612,590.751,-240.805,0,0
195872,602.538,-241.896,0,0
196132,614.582,-243.309,0,0
196393,626.893,-245.054,0,0
196653,639.517,-247.186,0,0
196913,652.44,-249.773,0,0
197174,665.649,-252.84,0,0
197434,679.336,-256.495,0,0
197694,693.375,-260.957,0,0
197955,707.657,-266.356,0,0
198215,721.993,-272.691,0,0
198475,736.287,-279.976,0,0
198735,750.601,-288.13,0,0
198996,764.798,-297.349,0,0
199256,778.875,-307.507,0,0
199516,792.728,-319.033,0,0
199777,805.859,-331.803,0,0
200037,818.187,-345.608,0,0
200297,829.559,-360.247,0,0
200558,839.907,-375.612,0,0
200818,849.428,-391.713,0,0
201078,857.823,-408.34,0,0
201339,865.232,-425.64,0,0
201599,871.141,-443.226,0,0
201859,876.05,-460.967,0,0
202120,879.694,-478.849,0,0
202380.025,882.343,-496.515,0,0
202640.35,883.65,-514.107,0,0
202900.675,883.815,-531.336,0,0
203161.0,882.676,-547.596,0,0
203421.325,881.651,-562.858,0,0
203681.65,880.535,-578.119,0,0
203941.975,879.072,-593.494,0,0
204202.3,876.839,-608.803,0,0
204462.625,873.744,-624.089,0,0
204722.95,870.011,-638.679,0,0
204983.275,865.768,-652.628,0,0
205243.6,861.561,-666.496,0,0
205503.925,856.955,-680.444,0,0
205764.25,851.384,-694.026,0,0
206024.575,845.321,-706.928,0,0
206284.9,838.937,-719.453,0,0
206545.225,832.391,-731.431,0,0
206805.55,825.676,-743.169,0,0
207065.875,818.916,-754.844,0,0
207326.2,811.858,-766.67,0,0
207586.525,804.152,-778.619,0,0
207846.85,795.37,-790.572,0,0
208107.175,785.632,-802.038,0,0
208367.5,774.781,-812.577,0,0
208627.825,763.108,-822.127,0,0
208888.15,751.104,-830.586,0,0
209148.475,738.851,-837.736,0,0
209408.8,726.528,-843.849,0,0
209669.125,714.37,-848.714,0,0
209929.45,702.664,-852.853,0,0
210189.775,691.308,-855.958,0,0
210450.1,680.433,-858.553,0,0
210710.425,670.121,-860.657,0,0
210970.75,660.069,-862.505,0,0
211231.075,650.272,-864.005,0,0
211491.4,640.806,-864.798,0,0
211751.725,631.568,-865.259,0,0
212012.05,622.824,-865.197,0,0
212272.375,614.548,-864.794,0,0
212532.7,606.852,-864.102,0,0
212793.025,599.614,-863.204,0,0
213053.35,592.94,-862.289,0,0
213313.675,586.545,-861.262,0,0
213574.0,580.534,-860.093,0,0
213834.325,574.906,-858.75,0,0
214094.65,570.075,-857.191,0,0
214354.975,565.862,-855.739,0,0
214615.3,562.347,-854.736,0,0
214875.625,559.125,-854.146,0,0
215135.95,556.276,-854.315,0,0
215396.275,553.264,-854.953,0,0
215656.6,550.289,-855.857,0,0
215916.925,547.002,-857.128,0,0
216177.25,543.517,-858.539,0,0
216437.575,539.834,-860.224,0,0
216697.9,535.915,-861.946,0,0
216958.225,531.673,-863.546,0,0
217218.55,527.354,-864.89,0,0
217478.875,523.035,-866.14,0,0
217739.2,518.711,-867.368,0,0
217999.525,514.353,-868.669,0,0
218259.85,509.884,-869.774,0,0
218520,505.36,-870.831,0,0
218780,500.792,-871.689,0,0
219041,496.361,-872.368,0,0
219301,492.173,-872.939,0,0
219561,488.165,-873.749,0,0
219822,484.102,-874.741,0,0
220082,479.988,-875.682,0,0
220342,475.695,-876.888,0,0
220603,471.378,-877.927,0,0
220863,466.81,-878.989,0,0
221123,462.157,-879.912,0,0
221384,457.466,-880.676,0,0
221644,452.712,-881.49,0,0
221904,447.959,-882.084,0,0
222165,442.947,-882.49,0,0
222425,438.06,-882.708,0,0
222685,433.348,-882.644,0,0
222946,428.88,-882.644,0,0
223206,424.488,-882.608,0,0
223466,420.15,-882.695,0,0
223727,415.819,-882.891,0,0
223987,411.391,-883.08,0,0
224247,406.861,-883.227,0,0
224508,402.497,-883.481,0,0
224768,397.961,-883.771,0,0
225028,393.282,-883.976,0,0
225289,388.615,-884.256,0,0
225549,383.724,-884.601,0,0
225809,378.556,-884.874,0,0
226070,373.114,-884.937,0,0
226330,367.362,-884.798,0,0
226590,361.697,-884.17,0,0
226851,355.921,-883.283,0,0
227111,350.348,-882.076,0,0
227371,344.887,-880.841,0,0
227632,339.397,-879.475,0,0
227892,333.842,-877.978,0,0
228152,328.274,-876.301,0,0
228413,322.594,-874.324,0,0
228673,317.026,-871.927,0,0
228933,311.637,-869.256,0,0
229193,306.38,-866.306,0,0
229454,301.336,-863.135,0,0
229714,296.549,-859.67,0,0
229974,292.097,-856.2,0,0
230235,287.989,-852.566,0,0
230495,284.111,-848.843,0,0
230755,280.482,-845.086,0,0
231016,277.048,-841.389,0,0
231276,273.881,-837.722,0,0
231536,270.895,-834.099,0,0
231797,268.02,-830.621,0,0
232057,265.233,-827.203,0,0
232317,262.529,-823.679,0,0
232578,259.965,-820.15,0,0
232838,257.514,-816.662,0,0
233098,255.211,-813.128,0,0
233359,253.108,-809.581,0,0
233619,251.153,-806.081,0,0
233879,249.401,-802.705,0,0
234140,247.681,-799.47,0,0
234400,245.991,-796.25,0,0
234660.3,244.437,-793.104,0,0
234920.625,242.85,-789.951,0,0
235180.95,241.594,-786.918,0,0
235441.275,240.265,-783.824,0,0
235701.6,239.124,-780.955,0,0
235961.925,237.993,-778.203,0,0
236222.25,236.773,-775.483,0,0
236482.575,235.52,-772.728,0,0
236742.9,234.279,-769.99,0,0
237003.225,233.147,-767.139,0,0
237263.55,232.092,-764.266,0,0
237523.875,231.187,-761.402,0,0
237784.2,230.396,-758.506,0,0
238044.525,229.778,-755.673,0,0
238304.85,229.349,-752.963,0,0
238565.175,229.067,-750.374,0,0
238825.5,228.885,-747.971,0,0
239085.825,228.71,-745.772,0,0
239346.15,228.45,-743.681,0,0
239606.475,228.213,-741.682,0,0
239866.8,227.937,-739.833,0,0
240127.125,227.844,-737.958,0,0
240387.45,227.591,-736.283,0,0
240647.775,227.308,-734.736,0,0
240908.1,227.028,-733.216,0,0
241168.425,226.646,-731.797,0,0
241428.75,226.195,-730.436,0,0
241689.075,225.698,-729.135,0,0
241949.4,225.149,-727.838,0,0
242209.725,224.578,-726.539,0,0
242470.05,223.978,-725.339,0,0
242730.375,223.302,-724.213,0,0
242990.7,222.497,-723.114,0,0
243251.025,221.611,-721.931,0,0
243511.35,220.75,-720.755,0,0
243771.675,219.801,-719.609,0,0
244032.0,218.762,-718.551,0,0
244292.325,217.671,-717.402,0,0
244552.65,216.374,-716.105,0,0
244812.975,215.105,-714.813,0,0
245073.3,213.686,-713.329,0,0
245333.625,212.316,-711.737,0,0
245593.95,210.843,-710.141,0,0
245854.275,209.588,-708.292,0,0
246114.6,208.25,-706.402,0,0
246374.925,207.047,-704.434,0,0
246635.25,205.983,-702.305,0,0
246895.575,205.008,-700.233,0,0
247155.9,204.102,-698.07,0,0
247416.225,203.314,-695.875,0,0
247676.55,202.745,-693.72,0,0
247936.875,202.307,-691.636,0,0
248197.2,201.916,-689.741,0,0
248457.525,201.455,-687.984,0,0
248717.85,201.133,-686.206,0,0
248978.175,200.698,-684.586,0,0
249238.5,200.2,-683.002,0,0
249498.825,199.683,-681.429,0,0
249759.15,199.053,-679.824,0,0
250019.475,198.368,-678.175,0,0
250279.8,197.814,-676.51,0,0
250540,197.246,-674.774,0,0
250800,196.724,-673.139,0,0
251061,196.236,-671.577,0,0
251321,195.587,-670.087,0,0
251581,194.923,-668.641,0,0
251842,194.09,-667.202,0,0
252102,193.177,-665.728,0,0
252362,192.087,-664.19,0,0
252623,190.867,-662.542,0,0
252883,189.544,-660.694,0,0
253143,188.143,-658.579,0,0
253404,186.771,-656.161,0,0
253664,185.597,-653.49,0,0
253924,184.602,-650.684,0,0
254185,183.891,-647.884,0,0
254445,183.195,-645.044,0,0
254705,182.52,-642.127,0,0
254966,182.01,-639.226,0,0
255226,181.545,-636.173,0,0
255486,181.076,-632.942,0,0
255747,180.802,-629.633,0,0
256007,180.677,-626.17,0,0
256267,180.815,-622.57,0,0
256528,181.215,-618.894,0,0
256788,181.876,-615.224,0,0
257048,182.791,-611.676,0,0
257309,183.823,-608.136,0,0
257569,185.025,-604.625,0,0
257829,186.397,-601.102,0,0
258090,187.985,-597.588,0,0
258350,189.805,-594.167,0,0
258610,191.781,-590.766,0,0
258871,193.974,-587.413,0,0
259131,196.434,-584.06,0,0
259391,199.231,-580.778,0,0
259651,202.388,-577.724,0,0
259912,205.819,-574.97,0,0
260172,209.404,-572.542,0,0
260432,213.049,-570.333,0,0
260693,216.95,-568.36,0,0
260953,220.936,-566.635,0,0
261213,225.06,-565.263,0,0
261474,229.268,-564.223,0,0
261734,233.477,-563.524,0,0
261994,237.609,-563.177,0,0
262255,241.626,-563.013,0,0
262515,245.617,-563.006,0,0
262775,249.677,-563.127,0,0
263036,253.823,-563.524,0,0
263296,258.015,-564.223,0,0
263556,262.16,-565.293,0,0
263817,266.242,-566.666,0,0
264077,270.147,-568.358,0,0
264337,274.026,-570.224,0,0
264598,277.822,-572.849,0,0
264858,281.101,-575.358,0,0
265118,284.246,-578.027,0,0
265379,287.326,-580.915,0,0
265639,290.274,-583.958,0,0
265899,292.977,-587.282,0,0
266160,295.649,-590.784,0,0
266420,298.095,-594.702,0,0
266680.25,300.151,-599.052,0,0
266940.575,301.747,-603.632,0,0
267200.9,302.759,-608.385,0,0
267461.225,303.16,-613,0,0
267721.55,303.123,-617.384,0,0
267981.875,302.946,-621.584,0,0
268242.2,302.481,-625.718,0,0
268502.525,301.862,-629.808,0,0
268762.85,301.013,-633.867,0,0
269023.175,299.916,-638.021,0,0
269283.5,298.541,-642.164,0,0
269543.825,296.464,-646.42,0,0
269804.15,293.775,-650.356,0,0
270064.475,290.51,-653.675,0,0
270324.8,287.073,-656.192,0,0
270585.125,283.749,-658.005,0,0
270845.45,280.716,-659.353,0,0
271105.775,278.08,-660.467,0,0
271366.1,275.748,-661.304,0,0
271626.425,273.843,-662.108,0,0
271886.75,272.279,-663.158,0,0
272147.075,270.85,-664.488,0,0
272407.4,269.316,-666.08,0,0
272667.725,267.604,-667.863,0,0
272928.05,265.703,-669.801,0,0
273188.375,263.47,-671.662,0,0
273448.7,261.124,-673.35,0,0
273709.025,258.732,-675.008,0,0
273969.35,256.257,-676.67,0,0
274229.675,253.554,-678.328,0,0
274490.0,250.727,-680.024,0,0
274750.325,247.62,-681.617,0,0
275010.65,244.252,-683.131,0,0
275270.975,240.543,-684.424,0,0
275531.3,236.667,-685.413,0,0
275791.625,232.535,-686.134,0,0
276051.95,228.289,-686.469,0,0
276312.275,224.011,-686.396,0,0
276572.6,219.686,-685.948,0,0
276832.925,215.41,-685.083,0,0
277093.25,211.273,-683.845,0,0
277353.575,207.315,-682.288,0,0
277613.9,203.518,-680.434,0,0
277874.225,199.884,-678.263,0,0
278134.55,196.525,-675.748,0,0
278394.875,193.512,-672.984,0,0
278655.2,190.853,-670.014,0,0
278915.525,188.605,-666.937,0,0
279175.85,186.758,-663.772,0,0
279436.175,185.35,-660.626,0,0
279696.5,184.425,-657.562,0,0
279956.825,183.8,-654.737,0,0
280217.15,183.538,-652.144,0,0
280477.475,183.42,-649.953,0,0
280737.8,183.354,-648.04,0,0
280998.125,183.287,-646.367,0,0
281258.45,183.152,-644.959,0,0
281518.775,182.889,-643.711,0,0
281779.1,182.482,-642.543,0,0
282039.425,181.904,-641.368,0,0
282299.75,181.221,-640.056,0,0
282560,180.546,-638.517,0,0
282820,180.098,-636.817,0,0
283081,179.951,-635.081,0,0
283341,180.132,-633.517,0,0
283601,180.501,-632.257,0,0
283862,180.915,-631.399,0,0
284122,181.178,-630.837,0,0
284382,181.22,-630.495,0,0
284643,180.92,-630.218,0,0
284903,180.488,-629.845,0,0
285163,179.965,-629.385,0,0
285424,179.459,-628.912,0,0
285684,178.899,-628.472,0,0
285944,178.245,-628.066,0,0
286205,177.437,-627.762,0,0
286465,176.396,-627.422,0,0
286725,175.103,-626.905,0,0
286986,173.662,-626.142,0,0
287246,172.163,-625.09,0,0
287506,170.671,-623.772,0,0
287767,169.204,-622.196,0,0
288027,167.875,-620.295,0,0
288287,166.753,-618.176,0,0
288548,165.843,-615.859,0,0
288808,165.181,-613.33,0,0
289068,164.846,-610.613,0,0
289329,164.881,-607.757,0,0
289589,165.36,-604.913,0,0
289849,166.32,-602.135,0,0
290109,167.731,-599.575,0,0
290370,169.487,-597.311,0,0
290630,171.512,-595.377,0,0
290890,173.749,-593.78,0,0
291151,176.164,-592.566,0,0
291411,178.674,-591.783,0,0
291671,181.215,-591.417,0,0
291932,183.697,-591.45,0,0
292192,186.057,-591.81,0,0
292452,188.285,-592.461,0,0
292713,190.392,-593.365,0,0
292973,192.416,-594.557,0,0
293233,194.304,-596.034,0,0
293494,196.014,-597.882,0,0
293754,197.419,-600.06,0,0
294014,198.447,-602.467,0,0
294275,199.061,-605.021,0,0
294535,199.309,-607.626,0,0
294795,199.204,-610.299,0,0
295056,198.654,-612.977,0,0
295316,197.755,-615.577,0,0
295576,196.45,-618.027,0,0
295837,194.813,-620.237,0,0
296097,192.903,-622.229,0,0
296357,190.827,-623.931,0,0
296618,188.569,-625.316,0,0
296878,186.258,-626.445,0,0
297138,183.869,-627.277,0,0
297399,181.503,-627.85,0,0
297659,179.227,-628.174,0,0
297919,177,-628.333,0,0
298180,174.854,-628.323,0,0
298440,172.833,-628.201,0,0
298700.2,170.925,-627.961,0,0
298960.525,169.105,-627.694,0,0
299220.85,167.365,-627.408,0,0
299481.175,165.633,-627.117,0,0
299741.5,163.979,-626.781,0,0
300001.825,162.365,-626.396,0,0
300262.15,160.76,-626.015,0,0
300522.475,159.145,-625.65,0,0
300782.8,157.508,-625.265,0,0
301043.125,155.841,-624.824,0,0
301303.45,154.17,-624.327,0,0
301563.775,152.475,-623.742,0,0
301824.1,150.793,-623.067,0,0
302084.425,149.145,-622.276,0,0
302344.75,147.537,-621.409,0,0
302605.075,146.044,-620.477,0,0
302865.4,144.623,-619.516,0,0
303125.725,143.287,-618.572,0,0
303386.05,141.959,-617.647,0,0
303646.375,140.61,-616.702,0,0
303906.7,139.273,-615.693,0,0
304167.025,137.955,-614.597,0,0
304427.35,136.736,-613.454,0,0
304687.675,135.587,-612.273,0,0
304948.0,134.505,-611.131,0,0
305208.325,133.484,-609.894,0,0
305468.65,132.496,-608.702,0,0
305728.975,131.6,-607.471,0,0
305989.3,130.749,-606.221,0,0
306249.625,129.993,-604.994,0,0
306509.95,129.286,-603.788,0,0
306770.275,128.67,-602.589,0,0
307030.6,128.105,-601.435,0,0
307290.925,127.615,-600.338,0,0
307551.25,127.155,-599.286,0,0
307811.575,126.704,-598.327,0,0
308071.9,126.303,-597.393,0,0
308332.225,125.868,-596.552,0,0
308592.55,125.422,-595.746,0,0
308852.875,124.964,-594.978,0,0
309113.2,124.48,-594.215,0,0
309373.525,123.981,-593.492,0,0
309633.85,123.459,-592.798,0,0
309894.175,122.936,-592.068,0,0
310154.5,122.357,-591.386,0,0
310414.825,121.797,-590.713,0,0
310675.15,121.204,-590.016,0,0
310935.475,120.575,-589.35,0,0
311195.8,119.9,-588.674,0,0
311456.125,119.198,-587.957,0,0
311716.45,118.458,-587.183,0,0
311976.775,117.753,-586.361,0,0
312237.1,117.076,-585.499,0,0
312497.425,116.402,-584.61,0,0
312757.75,115.787,-583.698,0,0
313018.075,115.201,-582.776,0,0
313278.4,114.662,-581.819,0,0
313538.725,114.163,-580.873,0,0
313799.05,113.673,-579.933,0,0
314059.375,113.265,-579.002,0,0
314319.7,112.859,-578.088,0,0
314580,112.465,-577.198,0,0
314840,112.152,-576.286,0,0
315101,111.761,-575.419,0,0
315361,111.544,-574.599,0,0
315621,111.389,-573.797,0,0
315882,111.132,-573.07,0,0
316142,111.008,-572.379,0,0
316402,110.719,-571.768,0,0
316663,110.586,-571.076,0,0
316923,110.344,-570.482,0,0
317183,110.212,-569.932,0,0
317444,109.978,-569.514,0,0
317704,109.789,-569.073,0,0
317964,109.431,-568.709,0,0
318225,109.242,-568.365,0,0
318485,108.937,-568.091,0,0
318745,108.613,-567.834,0,0
319006,108.069,-567.594,0,0
319266,107.557,-567.351,0,0
319526,107.098,-567.199,0,0
319787,106.506,-566.978,0,0
320047,105.825,-566.746,0,0
320307,105.122,-566.627,0,0
320567,104.405,-566.428,0,0
320828,103.496,-566.321,0,0
321088,102.655,-566.179,0,0
321348,101.537,-565.916,0,0
321609,100.476,-565.714,0,0
321869,99.2185,-565.42,0,0
322129,97.8522,-564.981,0,0
322390,96.5432,-564.451,0,0
322650,95.0467,-563.791,0,0
322910,93.5776,-562.965,0,0
323171,92.1792,-561.956,0,0
323431,90.7821,-560.87,0,0
323691,89.4818,-559.601,0,0
323952,88.2822,-558.15,0,0
324212,87.2192,-556.697,0,0
324472,86.2953,-555.205,0,0
324733,85.5648,-553.728,0,0
324993,84.8339,-552.34,0,0
325253,84.1347,-551.008,0,0
325514,83.5825,-549.653,0,0
325774,83.0557,-548.254,0,0
326034,82.4544,-546.988,0,0
326295,81.9267,-545.726,0,0
326555,81.3321,-544.416,0,0
326815,80.7821,-543.09,0,0
327076,80.3021,-541.798,0,0
327336,79.7418,-540.435,0,0
327596,79.3841,-539.075,0,0
327857,78.9935,-537.659,0,0
328117,78.5929,-536.298,0,0
328377,78.2882,-534.949,0,0
328638,77.9236,-533.508,0,0
328898,77.6926,-532.109,0,0
329158,77.4429,-530.632,0,0
329419,77.3623,-529.205,0,0
329679,77.3261,-527.772,0,0
329939,77.3152,-526.343,0,0
330200,77.4362,-524.967,0,0
330460,77.639,-523.625,0,0
330720.15,77.8211,-522.373,0,0
330980.475,78.1103,-521.256,0,0
331240.8,78.3854,-520.171,0,0
331501.125,78.6763,-519.162,0,0
331761.45,79.0035,-518.223,0,0
332021.775,79.2221,-517.405,0,0
332282.1,79.5171,-516.565,0,0
332542.425,79.723,-515.875,0,0
332802.75,79.8648,-515.197,0,0
333063.075,79.9865,-514.548,0,0
333323.4,80.0438,-513.94,0,0
333583.725,80.0885,-513.396,0,0
333844.05,80.0392,-512.876,0,0
334104.375,79.9901,-512.279,0,0
334364.7,79.7793,-511.696,0,0
334625.025,79.539,-511.095,0,0
334885.35,79.3238,-510.497,0,0
335145.675,79.0394,-509.79,0,0
335406.0,78.7035,-509.071,0,0
335666.325,78.3673,-508.303,0,0
335926.65,78.0175,-507.573,0,0
336186.975,77.6461,-506.753,0,0
336447.3,77.2571,-505.887,0,0
336707.625,76.8518,-504.927,0,0
336967.95,76.4987,-503.94,0,0
337228.275,76.134,-502.918,0,0
337488.6,75.7384,-501.797,0,0
337748.925,75.5086,-500.726,0,0
338009.25,75.2999,-499.488,0,0
338269.575,75.1012,-498.183,0,0
338529.9,74.9744,-497.027,0,0
338790.225,74.9164,-495.764,0,0
339050.55,74.9008,-494.411,0,0
339310.875,74.9434,-493.134,0,0
339571.2,75.0993,-491.824,0,0
339831.525,75.2873,-490.566,0,0
340091.85,75.5373,-489.302,0,0
340352.175,75.804,-488.099,0,0
340612.5,76.199,-486.841,0,0
340872.825,76.6224,-485.62,0,0
341133.15,77.0752,-484.387,0,0
341393.475,77.6813,-483.208,0,0
341653.8,78.3112,-482.077,0,0
341914.125,78.9891,-481.039,0,0
342174.45,79.8347,-480.078,0,0
342434.775,80.7146,-479.232,0,0
342695.1,81.5935,-478.445,0,0
342955.425,82.5261,-477.845,0,0
343215.75,83.4627,-477.329,0,0
343476.075,84.4051,-476.983,0,0
343736.4,85.2207,-476.69,0,0
343996.725,86.0482,-476.52,0,0
344257.05,86.6858,-476.482,0,0
344517.375,87.2761,-476.481,0,0
344777.7,87.8336,-476.505,0,0
345038.025,88.2527,-476.571,0,0
345298.35,88.6607,-476.701,0,0
345558.675,88.8837,-476.81,0,0
345819.0,89.0853,-476.906,0,0
346079.325,89.1986,-477.027,0,0
346339.65,89.236,-477.101,0,0
346599.975,89.2327,-477.177,0,0
346860,89.1841,-477.225,0,0
347121,89.1563,-477.287,0,0
347381,88.936,-477.313,0,0
347641,88.7922,-477.33,0,0
347902,88.5925,-477.176,0,0
348162,88.2505,-477.172,0,0
348422,87.9408,-477.07,0,0
348683,87.6397,-476.924,0,0
348943,87.2844,-476.73,0,0
349203,86.8928,-476.536,0,0
349464,86.4621,-476.244,0,0
349724,86.1257,-475.91,0,0
349984,85.6564,-475.571,0,0
350245,85.2205,-475.201,0,0
350505,84.8059,-474.767,0,0
350765,84.4029,-474.327,0,0
351025,83.9431,-473.86,0,0
351286,83.5982,-473.325,0,0
351546,83.1956,-472.705,0,0
351806,82.7521,-472.123,0,0
352067,82.3665,-471.498,0,0
352327,82.0131,-470.84,0,0
352587,81.6988,-470.162,0,0
352848,81.3369,-469.317,0,0
353108,81.1314,-468.584,0,0
353368,80.8865,-467.781,0,0
353629,80.7497,-466.949,0,0
353889,80.6419,-466.077,0,0
354149,80.6312,-465.302,0,0
354410,80.7359,-464.554,0,0
354670,80.8441,-463.84,0,0
354930,80.9402,-463.187,0,0
355191,81.0994,-462.655,0,0
355451,81.2436,-462.089,0,0
355711,81.2123,-461.653,0,0
355972,81.2709,-461.194,0,0
356232,81.2329,-460.748,0,0
356492,81.197,-460.327,0,0
356753,81.182,-459.888,0,0
357013,81.133,-459.474,0,0
357273,81.0741,-459.07,0,0
357534,80.8807,-458.715,0,0
357794,80.6741,-458.314,0,0
358054,80.4629,-457.936,0,0
358315,80.1694,-457.541,0,0
358575,79.8268,-456.987,0,0
358835,79.438,-456.437,0,0
359096,79.0701,-455.817,0,0
359356,78.6789,-455.121,0,0
359616,78.365,-454.245,0,0
359877,78.0972,-453.35,0,0
360137,77.9294,-452.571,0,0
360397,77.796,-451.613,0,0
360658,77.7524,-450.747,0,0
360918,77.7569,-449.857,0,0
361178,77.7767,-449.028,0,0
361438,77.8514,-448.226,0,0
361699,77.8774,-447.382,0,0
361959,78.0119,-446.58,0,0
362219,78.0985,-445.759,0,0
362480,78.2007,-444.983,0,0
362740.1,78.4846,-444.221,0,0
363000.425,78.6642,-443.517,0,0
363260.75,78.8672,-442.843,0,0
363521.075,79.0878,-442.153,0,0
363781.4,79.3113,-441.651,0,0
364041.725,79.5147,-441.079,0,0
364302.05,79.6395,-440.53,0,0
364562.375,79.7091,-440.074,0,0
364822.7,79.7346,-439.511,0,0
365083.025,79.7239,-438.943,0,0
365343.35,79.674,-438.275,0,0
365603.675,79.6095,-437.612,0,0
365864.0,79.5539,-436.87,0,0
366124.325,79.5147,-436.12,0,0
366384.65,79.5581,-435.254,0,0
366644.975,79.573,-434.304,0,0
366905.3,79.6743,-433.406,0,0
367165.625,79.8924,-432.468,0,0
367425.95,80.1004,-431.463,0,0
367686.275,80.405,-430.483,0,0
367946.6,80.8227,-429.5,0,0
368206.925,81.2611,-428.502,0,0
368467.25,81.8151,-427.533,0,0
368727.575,82.3538,-426.569,0,0
368987.9,83.0866,-425.696,0,0
369248.225,83.825,-424.82,0,0
369508.55,84.6282,-424.088,0,0
369768.875,85.4746,-423.265,0,0
370029.2,86.3628,-422.64,0,0
370289.525,87.3191,-421.975,0,0
370549.85,88.2738,-421.472,0,0
370810.175,89.3407,-420.991,0,0
371070.5,90.3894,-420.634,0,0
371330.825,91.5392,-420.363,0,0
371591.15,92.6599,-420.199,0,0
371851.475,93.8136,-420.169,0,0
372111.8,94.9078,-420.212,0,0
372372.125,96.0217,-420.451,0,0
372632.45,97.0349,-420.815,0,0
372892.775,97.9867,-421.29,0,0
373153.1,98.8035,-421.903,0,0
373413.425,99.5341,-422.58,0,0
373673.75,100.082,-423.311,0,0
373934.075,100.467,-424.095,0,0
374194.4,100.721,-424.831,0,0
374454.725,100.88,-425.473,0,0
374715.05,100.916,-426.114,0,0
374975.375,100.848,-426.693,0,0
375235.7,100.807,-427.202,0,0
375496.025,100.65,-427.617,0,0
375756.35,100.507,-428.04,0,0
376016.675,100.332,-428.352,0,0
376277.0,100.117,-428.609,0,0
376537.325,99.9849,-428.928,0,0
376797.65,99.7776,-429.138,0,0
377057.975,99.5966,-429.423,0,0
377318.3,99.3808,-429.605,0,0
377578.625,99.1991,-429.815,0,0
377838.95,98.9178,-429.961,0,0
378099.275,98.6972,-430.09,0,0
378359.6,98.4103,-430.26,0,0
378619.925,98.2124,-430.324,0,0
378880,97.9094,-430.447,0,0
379141,97.6702,-430.495,0,0
379401,97.4173,-430.568,0,0
379661,97.184,-430.659,0,0
379922,96.8528,-430.634,0,0
380182,96.6159,-430.712,0,0
380442,96.3302,-430.769,0,0
380703,96.0491,-430.809,0,0
380963,95.7185,-430.786,0,0
381223,95.3858,-430.746,0,0
381483,95.0439,-430.723,0,0
381744,94.7045,-430.515,0,0
382004,94.4196,-430.279,0,0
382264,94.3067,-430.063,0,0
382525,94.2107,-429.844,0,0
382785,94.2326,-429.725,0,0
383045,94.35,-429.679,0,0
383306,94.4726,-429.76,0,0
383566,94.627,-430.052,0,0
383826,94.6229,-430.428,0,0
384087,94.4854,-430.944,0,0
384347,94.3167,-431.543,0,0
384607,93.8852,-432.119,0,0
384868,93.2799,-432.689,0,0
385128,92.642,-433.238,0,0
385388,91.8084,-433.61,0,0
385649,90.8863,-433.96,0,0
385909,89.8786,-434.249,0,0
386169,88.8205,-434.3,0,0
386430,87.7,-434.333,0,0
386690,86.5482,-434.181,0,0
386950,85.45,-433.927,0,0
387211,84.3418,-433.559,0,0
387471,83.2438,-433.086,0,0
387731,82.2222,-432.474,0,0
387992,81.2659,-431.777,0,0
388252,80.3542,-430.911,0,0
388512,79.6305,-430.016,0,0
388773,78.9804,-429.024,0,0
389033,78.521,-428.067,0,0
389293,78.2174,-427.117,0,0
389554,78.037,-426.152,0,0
389814,77.929,-425.307,0,0
390074,77.9293,-424.544,0,0
390335,78.0147,-423.88,0,0
390595,78.1518,-423.332,0,0
390855,78.3396,-422.892,0,0
391116,78.5,-422.654,0,0
391376,78.6192,-422.473,0,0
391636,78.6294,-422.492,0,0
391896,78.6306,-422.524,0,0
392157,78.4817,-422.639,0,0
392417,78.1755,-422.874,0,0
392677,77.7284,-423.004,0,0
392938,77.1294,-423.192,0,0
393198,76.4447,-423.314,0,0
393458,75.5656,-423.274,0,0
393719,74.7531,-423.224,0,0
393979,73.7742,-423,0,0
394239,72.828,-422.687,0,0
394500,71.8868,-422.29,0,0
394760.05,70.888,-421.736,0,0
395020.375,69.9662,-421.112,0,0
395280.7,69.0804,-420.468,0,0
395541.025,68.2276,-419.695,0,0
395801.35,67.4753,-418.917,0,0
396061.675,66.7516,-418.008,0,0
396322.0,66.0519,-417.17,0,0
396582.325,65.4438,-416.256,0,0
396842.65,64.8843,-415.327,0,0
397102.975,64.2896,-414.379,0,0
397363.3,63.8076,-413.444,0,0
397623.625,63.3573,-412.506,0,0
397883.95,62.9684,-411.497,0,0
398144.275,62.5269,-410.539,0,0
398404.6,62.2195,-409.601,0,0
398664.925,61.8262,-408.649,0,0
398925.25,61.5266,-407.714,0,0
399185.575,61.2298,-406.717,0,0
399445.9,60.9795,-405.723,0,0
399706.225,60.7324,-404.733,0,0
399966.55,60.5035,-403.731,0,0
400006.6,60.4953,-403.586,0,0