File: Accelerated corrosion test data/2025-10-05_06-00-04/sample_1.csv
Frequency (Hz),Impedance (ohms),Phase (Radians),Temperature (C),Humidity (%)
10000.0,237.282,-12245.5,0,0
10260.325,237.687,-11930.1,0,0
10520.65,226.773,-11649.6,0,0
10780.975,222.748,-11364.3,0,0
11041.3,216.92,-11103.6,0,0
11301.625,211.281,-10845.9,0,0
11561.95,208.034,-10600.8,0,0
11822.275,205.049,-10362.4,0,0
12082.6,221.368,-10130,0,0
12342.925,207.362,-9953.69,0,0
12603.25,192.283,-9742.3,0,0
12863.575,188.466,-9539.78,0,0
13123.9,194.052,-9346.95,0,0
13384.225,183.235,-9175.66,0,0
13644.55,178.724,-8992.83,0,0
13904.875,179.227,-8815.27,0,0
14165.2,192.71,-8680.01,0,0
14425.525,211.324,-8505.52,0,0
14685.8,194.727,-8345.57,0,0
14946.175,176.271,-8245.94,0,0
15206.5,180.395,-8082.45,0,0
15466.825,172.735,-7960.36,0,0
15727.15,170.592,-7835.46,0,0
15987.5,158.294,-7702.44,0,0
16247.8,155.68,-7576.23,0,0
16508.125,153.793,-7452.88,0,0
16768.45,157.42,-7335.42,0,0
17028.775,160.941,-7228.08,0,0
17289.1,151.832,-7124.54,0,0
17549.425,152.179,-7017.95,0,0
17809.75,145.962,-6917.39,0,0
18070.075,145.516,-6816.86,0,0
18330.4,139.577,-6720.11,0,0
18590.725,136.495,-6625.24,0,0
18851.05,136.419,-6527.02,0,0
19111.375,134.708,-6445.36,0,0
19371.7,131.425,-6352.51,0,0
19632.025,130.524,-6263.65,0,0
19892.35,133.403,-6177.32,0,0
20152.675,134.718,-6089.6,0,0
20413.0,153.368,-6001.85,0,0
20673.3,168.511,-5959.65,0,0
20933.65,151.153,-5892.19,0,0
21193.975,156.703,-5824.62,0,0
21454.3,145.922,-5751.93,0,0
21714.625,138.182,-5687.8,0,0
21974.9,133.771,-5601.24,0,0
22235.275,174.058,-5552.48,0,0
22495.6,142.012,-5515.9,0,0
22755.925,126.374,-5446.41,0,0
23016.25,121.59,-5378.47,0,0
23276.6,118.7,-5317.23,0,0
23536.9,115.508,-5256.68,0,0
23797.225,111.923,-5195.46,0,0
24057.55,113.302,-5133.72,0,0
24317.875,112.123,-5086.03,0,0
24578.2,109.826,-5025.66,0,0
24838.525,109.98,-4975.34,0,0
25098.85,109.916,-4920.42,0,0
25359.175,105.352,-4872.34,0,0
25619.5,104.055,-4820.61,0,0
25879.8,102.291,-4769.52,0,0
26140.1,102.644,-4719.54,0,0
26400.5,102.111,-4669.21,0,0
26660.8,104.309,-4618.65,0,0
26921.1,112.655,-4571.7,0,0
27181.4,119.087,-4536.36,0,0
27441.8,112.399,-4504.16,0,0
27702.1,103.471,-4454.87,0,0
27962.4,109.979,-4404.91,0,0
28222.7,109.732,-4366.64,0,0
28483.1,120.282,-4321.68,0,0
28743.4,132.504,-4303.96,0,0
29003.7,116.339,-4270.58,0,0
29264,118.495,-4232.09,0,0
29524.4,106.634,-4199.85,0,0
29784.7,104.223,-4157.4,0,0
30045,101.003,-4125.17,0,0
30305.3,99.3019,-4085.85,0,0
30565.7,96.4012,-4047.77,0,0
30826,100.222,-4012.73,0,0
31086.3,103.715,-3983,0,0
31346.6,99.102,-3954.78,0,0
31607,93.7081,-3917.85,0,0
31867.3,96.5007,-3883.55,0,0
32127.6,97.456,-3853.05,0,0
32387.9,97.7145,-3827.29,0,0
32648.3,92.6215,-3795.37,0,0
32908.6,94.7394,-3765.9,0,0
33168.9,90.16,-3737.66,0,0
33429.2,88.6742,-3709.26,0,0
33689.6,85.6865,-3679.24,0,0
33949.9,84.1654,-3648.41,0,0
34210.2,86.168,-3621.74,0,0
34470.5,83.6964,-3595.04,0,0
34730.9,81.3965,-3567.01,0,0
34991.2,80.5731,-3539.91,0,0
35251.5,79.7482,-3513,0,0
35511.8,79.1306,-3486.59,0,0
35772.2,78.99,-3461,0,0
36032.5,77.4075,-3435.43,0,0
36292.8,76.7415,-3410.19,0,0
36553.1,76.1304,-3384.97,0,0
36813.5,75.7042,-3360.52,0,0
37073.8,75.533,-3336.28,0,0
37334.1,74.6336,-3312.89,0,0
37594.4,74.5669,-3288.91,0,0
37854.8,73.5859,-3266.42,0,0
38115.1,73.145,-3243.44,0,0
38375.4,72.7105,-3220.55,0,0
38635.7,72.47,-3198.65,0,0
38896.1,71.8888,-3176.61,0,0
39156.4,71.835,-3154.56,0,0
39416.7,71.7199,-3133.93,0,0
39677,70.806,-3113.08,0,0
39937.4,70.6133,-3091.65,0,0
40197.7,70.7515,-3071,0,0
40458,70.4946,-3050.88,0,0
40718.3,70.1641,-3030.1,0,0
40978.7,71.8628,-3010.4,0,0
41239,71.8376,-2992.23,0,0
41499.3,71.2893,-2974.24,0,0
41759.6,70.4388,-2955.69,0,0
42020,69.7848,-2936.31,0,0
42280.275,69.7604,-2918.05,0,0
42540.6,70.297,-2900.11,0,0
42800.925,69.753,-2882.6,0,0
43061.25,68.9224,-2864.81,0,0
43321.575,68.7963,-2847.71,0,0
43581.9,68.2709,-2830.36,0,0
43842.225,67.2939,-2812.71,0,0
44102.55,67.3452,-2795,0,0
44362.875,68.4023,-2778.06,0,0
44623.2,68.9292,-2762.04,0,0
44883.525,68.2042,-2746.72,0,0
45143.85,68.3931,-2730.93,0,0
45404.175,68.4597,-2714.96,0,0
45664.5,67.5334,-2700.46,0,0
45924.825,66.7135,-2684.65,0,0
46185.15,66.2643,-2669.49,0,0
46445.475,65.3704,-2654.77,0,0
46705.8,64.8078,-2639.38,0,0
46966.125,64.2937,-2624.33,0,0
47226.45,64.0434,-2609.08,0,0
47486.775,64.1641,-2594.71,0,0
47747.1,63.7209,-2580.43,0,0
48007.425,62.9644,-2565.92,0,0
48267.75,63.0518,-2551.68,0,0
48528.075,62.4033,-2538.44,0,0
48788.4,61.4235,-2524.22,0,0
49048.725,61.1079,-2510.12,0,0
49309.05,61.0044,-2496.27,0,0
49569.375,60.779,-2482.98,0,0
49829.7,60.6088,-2469.67,0,0
50090.025,60.1264,-2456.52,0,0
50350.35,59.515,-2443.31,0,0
50610.675,59.2119,-2429.87,0,0
50871.0,58.9878,-2416.92,0,0
51131.325,58.9614,-2404.03,0,0
51391.65,59.0229,-2391.63,0,0
51651.975,58.4734,-2379.3,0,0
51912.3,58.1015,-2366.92,0,0
52172.625,57.8952,-2354.61,0,0
52432.95,57.7277,-2342.44,0,0
52693.275,57.4335,-2330.28,0,0
52953.6,57.4277,-2318.23,0,0
53213.925,57.3609,-2306.55,0,0
53474.25,57.1718,-2294.97,0,0
53734.575,57.1063,-2283.3,0,0
53994.9,57.1173,-2272.12,0,0
54255.225,56.6331,-2261.06,0,0
54515.55,56.2412,-2249.75,0,0
54775.875,55.7586,-2238.58,0,0
55036.2,55.6428,-2227.08,0,0
55296.525,55.7233,-2216.17,0,0
55556.85,55.697,-2205.52,0,0
55817.175,55.4752,-2194.94,0,0
56077.5,54.906,-2184.14,0,0
56337.825,54.8017,-2173.31,0,0
56598.15,54.763,-2162.86,0,0
56858.475,54.6939,-2152.37,0,0
57118.8,54.5438,-2142.07,0,0
57379.125,54.3126,-2131.78,0,0
57639.45,54.4797,-2121.61,0,0
57899.775,54.4293,-2111.48,0,0
58160.1,54.422,-2101.6,0,0
58420.4,54.3533,-2091.9,0,0
58680.7,54.1519,-2082.1,0,0
58941.1,53.9755,-2072.25,0,0
59201.4,54.2299,-2062.57,0,0
59461.7,54.2126,-2053.44,0,0
59722,53.9541,-2044,0,0
59982.4,53.9923,-2034.56,0,0
60242.7,53.8779,-2025.38,0,0
60503,54.0117,-2016.08,0,0
60763.3,54.3087,-2007.23,0,0
61023.7,53.7803,-1998.63,0,0
61284,53.4696,-1989.62,0,0
61544.3,53.104,-1980.63,0,0
61804.6,53.4055,-1971.58,0,0
62065,53.0691,-1963.28,0,0
62325.3,52.5415,-1954.32,0,0
62585.6,52.408,-1945.44,0,0
62845.9,52.3527,-1936.7,0,0
63106.3,52.455,-1928.04,0,0
63366.6,52.2322,-1919.5,0,0
63626.9,52.3659,-1910.92,0,0
63887.2,52.4169,-1902.36,0,0
64147.6,52.5549,-1894.17,0,0
64407.9,52.6842,-1885.69,0,0
64668.2,52.9024,-1877.43,0,0
64928.5,53.3219,-1869.2,0,0
65188.9,53.8542,-1861.16,0,0
65449.2,54.693,-1853.5,0,0
65709.5,55.131,-1846.5,0,0
65969.8,55.0806,-1839.29,0,0
66230.2,54.931,-1832.21,0,0
66490.5,54.6452,-1824.79,0,0
66750.8,54.7982,-1817.54,0,0
67011.1,54.2876,-1810.63,0,0
67271.5,53.4435,-1802.79,0,0
67531.8,54.0088,-1795.01,0,0
67792.1,54.3525,-1788.05,0,0
68052.4,54.1645,-1781.56,0,0
68312.8,53.4381,-1774.45,0,0
68573.1,53.1581,-1767.11,0,0
68833.4,53.3736,-1759.77,0,0
69093.7,53.2555,-1753.2,0,0
69354.1,52.8658,-1746.47,0,0
69614.4,52.7011,-1739.73,0,0
69874.7,52.0856,-1733.04,0,0
70135,51.6282,-1726.05,0,0
70395.4,51.0268,-1719.06,0,0
70655.7,50.6567,-1711.96,0,0
70916,50.5034,-1705.03,0,0
71176.3,50.3483,-1698.23,0,0
71436.7,50.2281,-1691.53,0,0
71697,49.8545,-1685.21,0,0
71957.3,49.1613,-1678.35,0,0
72217.6,48.8449,-1671.57,0,0
72478,48.4564,-1664.46,0,0
72738.3,48.3179,-1657.68,0,0
72998.6,48.2054,-1650.76,0,0
73258.9,48.2873,-1644.11,0,0
73519.3,48.1861,-1637.57,0,0
73779.6,48.0756,-1630.96,0,0
74039.9,48.0506,-1624.27,0,0
74300.225,48.1739,-1617.83,0,0
74560.55,48.1459,-1611.38,0,0
74820.875,48.2958,-1604.9,0,0
75081.2,48.3927,-1598.68,0,0
75341.525,48.4777,-1592.47,0,0
75601.85,48.3964,-1586.1,0,0
75862.175,48.522,-1579.67,0,0
76122.5,48.9071,-1573.48,0,0
76382.825,49.1766,-1567.42,0,0
76643.15,49.3696,-1561.52,0,0
76903.475,49.448,-1555.53,0,0
77163.8,49.7441,-1549.51,0,0
77424.125,50.0266,-1543.87,0,0
77684.45,50.0759,-1538.06,0,0
77944.775,50.2089,-1532.06,0,0
78205.1,50.5894,-1526.2,0,0
78465.425,51.2514,-1520.5,0,0
78725.75,51.7627,-1515.29,0,0
78986.075,51.8691,-1510.23,0,0
79246.4,51.8092,-1505.02,0,0
79506.725,51.7557,-1499.69,0,0
79767.05,51.5682,-1494.55,0,0
80027.375,51.3771,-1488.98,0,0
80287.7,51.07,-1483.8,0,0
80548.025,50.6761,-1478.14,0,0
80808.35,50.626,-1472.52,0,0
81068.675,50.4844,-1466.9,0,0
81329.0,50.5851,-1461.23,0,0
81589.325,50.7698,-1455.75,0,0
81849.65,50.8065,-1450.39,0,0
82109.975,50.9619,-1445.07,0,0
82370.3,51.0586,-1439.71,0,0
82630.625,51.1027,-1434.35,0,0
82890.95,51.1497,-1428.92,0,0
83151.275,51.4521,-1423.47,0,0
83411.6,51.6987,-1418.17,0,0
83671.925,51.9929,-1412.92,0,0
83932.25,52.3083,-1407.68,0,0
84192.575,52.7262,-1402.51,0,0
84452.9,53.1069,-1397.39,0,0
84713.225,53.5801,-1392.33,0,0
84973.55,54.0691,-1387.38,0,0
85233.875,54.5535,-1382.58,0,0
85494.2,55.0208,-1378.01,0,0
85754.525,55.2103,-1373.36,0,0
86014.85,55.3199,-1368.57,0,0
86275.175,55.536,-1363.88,0,0
86535.5,55.8568,-1359.23,0,0
86795.825,55.9884,-1354.53,0,0
87056.15,56.1152,-1349.71,0,0
87316.475,56.5944,-1345.14,0,0
87576.8,56.6969,-1340.74,0,0
87837.125,56.533,-1336.33,0,0
88097.45,56.4312,-1331.39,0,0
88357.775,56.4403,-1326.44,0,0
88618.1,56.7279,-1321.37,0,0
88878.425,57.2271,-1316.55,0,0
89138.75,57.3201,-1311.87,0,0
89399.075,57.6454,-1306.77,0,0
89659.4,58.2105,-1301.77,0,0
89919.725,59.0625,-1296.8,0,0
90180,60.0008,-1292.1,0,0
90440.4,60.9063,-1287.72,0,0
90700.7,61.5186,-1283.26,0,0
90961,62.4486,-1278.33,0,0
91221.3,63.7061,-1273.68,0,0
91481.7,65.1765,-1269.38,0,0
91742,66.8525,-1265.43,0,0
92002.3,67.9679,-1261.92,0,0
92262.6,69.0842,-1258.03,0,0
92523,70.4695,-1254.27,0,0
92783.3,72.2072,-1250.79,0,0
93043.6,73.6436,-1247.88,0,0
93303.9,75.0624,-1244.93,0,0
93564.3,76.6736,-1242.26,0,0
93824.6,79.0345,-1241.15,0,0
94084.9,79.1354,-1241.51,0,0
94345.2,76.6101,-1240.9,0,0
94605.6,73.7956,-1237.75,0,0
94865.9,72.9104,-1233.89,0,0
95126.2,71.4465,-1230.94,0,0
95386.5,70.1639,-1227.23,0,0
95646.9,68.7134,-1223.58,0,0
95907.2,67.4801,-1219.29,0,0
96167.5,66.7472,-1214.63,0,0
96427.8,66.8076,-1210.37,0,0
96688.2,66.4481,-1206.92,0,0
96948.5,65.659,-1203.01,0,0
97208.8,64.8357,-1198.8,0,0
97469.1,64.4581,-1194.38,0,0
97729.5,64.4558,-1190,0,0
97989.8,64.5704,-1185.89,0,0
98250.1,64.5926,-1182.2,0,0
98510.4,64.3921,-1178.45,0,0
98770.8,63.9617,-1174.61,0,0
99031.1,63.5981,-1170.44,0,0
99291.4,63.4965,-1166.27,0,0
99551.7,63.4244,-1162.22,0,0
99812.1,63.2837,-1158,0,0
100072,63.49,-1153.82,0,0
100333,63.7184,-1149.95,0,0
100593,63.7109,-1146.14,0,0
100853,63.7222,-1142.2,0,0
101114,63.7458,-1138.27,0,0
101374,63.762,-1134.47,0,0
101634,63.4663,-1130.59,0,0
101895,63.051,-1126.31,0,0
102155,62.7758,-1121.51,0,0
102415,63.1889,-1116.58,0,0
102676,64.0696,-1111.71,0,0
102936,65.2192,-1107.44,0,0
103196,66.171,-1103.38,0,0
103457,67.097,-1099.35,0,0
103717,67.9771,-1095.31,0,0
103977,69.0894,-1090.99,0,0
104238,70.8471,-1086.96,0,0
104498,72.6057,-1083.66,0,0
104758,73.7658,-1080.65,0,0
105019,74.7281,-1077.3,0,0
105279,75.7871,-1073.9,0,0
105539,76.9462,-1070.46,0,0
105800,78.3976,-1067.13,0,0
106060,79.9466,-1064.07,0,0
106320.175,81.2324,-1061.3,0,0
106580.5,82.5145,-1058.37,0,0
106840.825,83.8604,-1055.6,0,0
107101.15,85.3282,-1052.96,0,0
107361.475,86.846,-1050.74,0,0
107621.8,87.8971,-1048.65,0,0
107882.125,88.6496,-1046.46,0,0
108142.45,89.4905,-1044.01,0,0
108402.775,90.5532,-1041.69,0,0
108663.1,91.5753,-1039.55,0,0
108923.425,92.6146,-1037.65,0,0
109183.75,93.4151,-1035.94,0,0
109444.075,93.9782,-1034.37,0,0
109704.4,94.2148,-1032.75,0,0
109964.725,94.4057,-1031.07,0,0
110225.05,94.1204,-1029.2,0,0
110485.375,93.9415,-1026.8,0,0
110745.7,94.0795,-1024.45,0,0
111006.025,93.9801,-1022.14,0,0
111266.35,94.1577,-1019.22,0,0
111526.675,94.7699,-1016.79,0,0
111787.0,95.4415,-1014.67,0,0
112047.325,95.9418,-1012.7,0,0
112307.65,96.3308,-1010.7,0,0
112567.975,96.721,-1008.9,0,0
112828.3,97.0239,-1007.3,0,0
113088.625,97.2066,-1005.53,0,0
113348.95,97.3204,-1003.91,0,0
113609.275,97.2746,-1002.62,0,0
113869.6,96.9032,-1001.2,0,0
114129.925,96.4372,-999.761,0,0
114390.25,95.6324,-998.051,0,0
114650.575,94.8612,-996.191,0,0
114910.9,94.0989,-994.28,0,0
115171.225,93.2471,-992.202,0,0
115431.55,92.3786,-990.353,0,0
115691.875,91.3106,-988.281,0,0
115952.2,90.1609,-985.973,0,0
116212.525,89.0871,-983.469,0,0
116472.85,88.0162,-980.797,0,0
116733.175,87.1375,-978.058,0,0
116993.5,86.2877,-975.346,0,0
117253.825,85.3201,-972.526,0,0
117514.15,84.4779,-969.512,0,0
117774.475,83.745,-966.412,0,0
118034.8,83.1986,-963.268,0,0
118295.125,82.7167,-960.128,0,0
118555.45,82.2952,-956.989,0,0
118815.775,82.0734,-953.851,0,0
119076.1,81.8029,-950.839,0,0
119336.425,81.6412,-947.607,0,0
119596.75,81.6831,-944.512,0,0
119857.075,81.7972,-941.546,0,0
120117.4,82.1353,-938.819,0,0
120377.725,82.1695,-936.158,0,0
120638.05,82.1928,-933.584,0,0
120898.375,82.1585,-931.127,0,0
121158.7,81.8985,-928.629,0,0
121419.025,81.6756,-926.038,0,0
121679.35,81.4836,-923.542,0,0
121939.675,81.0444,-920.914,0,0
122200.0,80.6501,-918.088,0,0
122460,80.3858,-915.325,0,0
122721,79.9632,-912.518,0,0
122981,79.5916,-909.639,0,0
123241,79.3478,-906.549,0,0
123502,79.3088,-903.51,0,0
123762,79.1716,-900.568,0,0
124022,78.9942,-897.592,0,0
124283,78.9409,-894.479,0,0
124543,79.0243,-891.376,0,0
124803,79.1925,-888.493,0,0
125064,79.2374,-885.524,0,0
125324,79.328,-882.572,0,0
125584,79.4263,-879.583,0,0
125845,79.6641,-876.545,0,0
126105,79.9119,-873.62,0,0
126365,80.1811,-870.733,0,0
126626,80.4673,-867.885,0,0
126886,80.583,-865.008,0,0
127146,80.9192,-862.234,0,0
127406,81.1651,-859.16,0,0
127667,81.4018,-856.126,0,0
127927,81.749,-853.206,0,0
128187,82.1832,-850.162,0,0
128448,82.7205,-847.214,0,0
128708,83.366,-844.342,0,0
128968,83.8241,-841.579,0,0
129229,84.3137,-838.644,0,0
129489,84.9146,-835.65,0,0
129749,85.6335,-832.671,0,0
130010,86.6319,-829.751,0,0
130270,87.6849,-827.028,0,0
130530,88.7382,-824.37,0,0
130791,89.8174,-821.889,0,0
131051,90.8793,-819.565,0,0
131311,91.8449,-817.349,0,0
131572,92.7903,-815.227,0,0
131832,93.569,-813.118,0,0
132092,94.3256,-811.014,0,0
132353,95.0986,-808.925,0,0
132613,95.7198,-806.818,0,0
132873,96.3965,-804.708,0,0
133134,97.1058,-802.625,0,0
133394,97.8066,-800.589,0,0
133654,98.3999,-798.578,0,0
133915,98.9429,-796.601,0,0
134175,99.4727,-794.622,0,0
134435,99.9246,-792.55,0,0
134696,100.287,-790.504,0,0
134956,100.72,-788.314,0,0
135216,101.293,-786.011,0,0
135477,101.91,-783.706,0,0
135737,102.627,-781.592,0,0
135997,103.278,-779.347,0,0
136258,104.062,-777.195,0,0
136518,104.972,-775.164,0,0
136778,105.746,-773.173,0,0
137039,106.648,-771.182,0,0
137299,107.607,-769.258,0,0
137559,108.77,-767.448,0,0
137819,110.013,-766.157,0,0
138080,110.79,-765.196,0,0
138340.125,111.247,-764.232,0,0
138600.45,111.319,-763.176,0,0
138860.775,111.185,-761.909,0,0
139121.1,111.02,-760.328,0,0
139381.425,110.996,-758.591,0,0
139641.75,111.089,-756.893,0,0
139902.075,111.057,-755.465,0,0
140162.4,110.676,-753.67,0,0
140422.725,110.387,-751.67,0,0
140683.05,110.308,-749.562,0,0
140943.375,110.312,-747.484,0,0
141203.7,110.283,-745.402,0,0
141464.025,110.279,-743.289,0,0
141724.35,110.254,-741.132,0,0
141984.675,110.247,-738.784,0,0
142245.0,110.505,-736.4,0,0
142505.325,110.857,-734.218,0,0
142765.65,111.114,-732.122,0,0
143025.975,111.359,-729.936,0,0
143286.3,111.716,-727.83,0,0
143546.625,111.851,-725.774,0,0
143806.95,112.034,-723.549,0,0
144067.275,112.254,-721.253,0,0
144327.6,112.529,-718.95,0,0
144587.925,112.97,-716.606,0,0
144848.25,113.436,-714.334,0,0
145108.575,113.919,-712.121,0,0
145368.9,114.378,-709.907,0,0
145629.225,114.884,-707.676,0,0
145889.55,115.441,-705.453,0,0
146149.875,115.997,-703.269,0,0
146410.2,116.683,-701.082,0,0
146670.525,117.384,-698.913,0,0
146930.85,118.3,-696.937,0,0
147191.175,119.024,-695.355,0,0
147451.5,119.312,-693.637,0,0
147711.825,119.618,-691.549,0,0
147972.15,120.255,-689.49,0,0
148232.475,120.913,-687.608,0,0
148492.8,121.528,-685.895,0,0
148753.125,121.923,-684.362,0,0
149013.45,121.979,-682.567,0,0
149273.775,122.282,-680.453,0,0
149534.1,122.748,-678.543,0,0
149794.425,123.146,-676.754,0,0
150054.75,123.416,-675.055,0,0
150315.075,123.58,-673.294,0,0
150575.4,123.623,-671.554,0,0
150835.725,123.477,-669.804,0,0
151096.05,123.085,-667.816,0,0
151356.375,122.618,-665.479,0,0
151616.7,122.406,-662.849,0,0
151877.025,122.358,-660.21,0,0
152137.35,122.342,-657.567,0,0
152397.675,122.256,-654.875,0,0
152658.0,122.167,-651.981,0,0
152918.325,122.176,-648.712,0,0
153178.65,122.604,-645.343,0,0
153438.975,123.312,-642.176,0,0
153699.3,123.918,-639.143,0,0
153959.625,124.459,-635.97,0,0
154219.95,125.157,-632.588,0,0
154480,126.04,-629.175,0,0
154741,127.118,-625.618,0,0
155001,128.563,-622.052,0,0
155261,130.183,-618.785,0,0
155522,131.733,-615.575,0,0
155782,133.45,-612.094,0,0
156042,135.637,-608.756,0,0
156303,137.906,-605.759,0,0
156563,140.088,-602.833,0,0
156823,142.523,-599.789,0,0
157084,145.41,-597.045,0,0
157344,148.368,-594.872,0,0
157604,151.017,-593.02,0,0
157864,153.405,-591.299,0,0
158125,155.612,-589.518,0,0
158385,157.709,-587.672,0,0
158645,159.808,-585.636,0,0
158906,161.924,-583.746,0,0
159166,163.917,-581.772,0,0
159426,165.881,-579.336,0,0
159687,168.327,-576.719,0,0
159947,171.141,-574.221,0,0
160207,174.318,-571.885,0,0
160468,177.779,-569.662,0,0
160728,181.594,-567.778,0,0
160988,185.651,-566.464,0,0
161249,189.644,-565.709,0,0
161509,193.456,-565.462,0,0
161769,196.701,-565.488,0,0
162030,199.654,-565.385,0,0
162290,202.665,-565.314,0,0
162550,205.486,-565.412,0,0
162811,208.063,-565.425,0,0
163071,210.798,-565.251,0,0
163331,213.75,-565.27,0,0
163592,216.691,-565.644,0,0
163852,219.346,-566.271,0,0
164112,221.684,-566.86,0,0
164373,223.928,-567.251,0,0
164633,226.325,-567.504,0,0
164893,228.955,-567.778,0,0
165154,231.869,-568.257,0,0
165414,234.974,-569.224,0,0
165674,238.068,-570.663,0,0
165935,240.881,-572.707,0,0
166195,243.208,-575.133,0,0
166455,245.036,-577.71,0,0
166716,246.444,-580.294,0,0
166976,247.478,-582.91,0,0
167236,248.193,-585.458,0,0
167497,248.556,-588.01,0,0
167757,248.555,-590.423,0,0
168017,248.325,-592.69,0,0
168277,247.816,-594.822,0,0
168538,247.132,-596.736,0,0
168798,246.252,-598.626,0,0
169058,244.997,-600.242,0,0
169319,243.738,-601.534,0,0
169579,242.292,-602.844,0,0
169839,240.539,-603.818,0,0
170100,238.68,-604.169,0,0
170360.075,237.076,-604.389,0,0
170620.4,235.479,-604.38,0,0
170880.725,233.95,-604.073,0,0
171141.05,232.747,-603.632,0,0
171401.375,231.655,-603.257,0,0
171661.7,230.589,-602.917,0,0
171922.025,229.504,-602.636,0,0
172182.35,228.168,-602.313,0,0
172442.675,226.671,-601.662,0,0
172703.0,225.334,-600.681,0,0
172963.325,224.104,-599.489,0,0
173223.65,223.146,-598.141,0,0
173483.975,222.397,-596.755,0,0
173744.3,221.828,-595.376,0,0
174004.625,221.365,-593.961,0,0
174264.95,221.111,-592.488,0,0
174525.275,221.069,-591.229,0,0
174785.6,221.065,-589.943,0,0
175045.925,221.343,-588.897,0,0
175306.25,221.722,-587.908,0,0
175566.575,222.179,-587.246,0,0
175826.9,222.516,-587.027,0,0
176087.225,222.407,-587.139,0,0
176347.55,221.766,-586.98,0,0
176607.875,221.188,-586.365,0,0
176868.2,220.844,-585.838,0,0
177128.525,220.333,-585.482,0,0
177388.85,219.548,-584.963,0,0
177649.175,218.903,-584.167,0,0
177909.5,218.416,-583.474,0,0
178169.825,217.868,-582.832,0,0
178430.15,217.2,-582.221,0,0
178690.475,216.547,-581.513,0,0
178950.8,215.963,-580.882,0,0
179211.125,215.169,-580.323,0,0
179471.45,214.345,-579.751,0,0
179731.775,213.445,-579.074,0,0
179992.1,212.706,-578.55,0,0
180252.425,211.418,-578.351,0,0
180512.75,209.476,-577.892,0,0
180773.075,207.443,-576.636,0,0
181033.4,205.767,-575.067,0,0
181293.725,204.185,-573.441,0,0
181554.05,202.636,-571.644,0,0
181814.375,201.308,-569.682,0,0
182074.7,200.19,-567.821,0,0
182335.025,198.903,-566.141,0,0
182595.35,197.384,-564.366,0,0
182855.675,195.697,-562.297,0,0
183116.0,194.025,-559.876,0,0
183376.325,192.464,-557.129,0,0
183636.65,191.173,-554.14,0,0
183896.975,190.127,-551.034,0,0
184157.3,189.264,-547.838,0,0
184417.625,188.692,-544.598,0,0
184677.95,188.279,-541.469,0,0
184938.275,187.9,-538.329,0,0
185198.6,187.631,-535.105,0,0
185458.925,187.605,-531.821,0,0
185719.25,187.806,-528.647,0,0
185979.575,188.04,-525.612,0,0
186239.9,188.314,-522.583,0,0
186500,188.692,-519.691,0,0
186761,189.004,-516.906,0,0
187021,189.263,-514.024,0,0
187281,189.557,-511.091,0,0
187542,189.931,-508.045,0,0
187802,190.479,-505.157,0,0
188062,190.984,-502.389,0,0
188322,191.202,-499.425,0,0
188583,191.561,-496.276,0,0
188843,191.999,-493.141,0,0
189103,192.697,-489.846,0,0
189364,193.394,-486.502,0,0
189624,194.345,-483.104,0,0
189884,195.35,-479.743,0,0
190145,196.575,-476.546,0,0
190405,197.799,-473.388,0,0
190665,199.103,-470.316,0,0
190926,200.274,-467.168,0,0
191186,201.571,-464.212,0,0
191446,202.746,-461.087,0,0
191707,203.992,-457.822,0,0
191967,205.458,-454.528,0,0
192227,207.081,-451.257,0,0
192488,208.8,-448.174,0,0
192748,210.476,-445.158,0,0
193008,211.935,-442.132,0,0
193269,213.461,-438.848,0,0
193529,215.105,-435.412,0,0
193789,216.953,-432.03,0,0
194050,218.958,-428.618,0,0
194310,221.015,-425.286,0,0
194570,223.015,-421.942,0,0
194831,225.134,-418.481,0,0
195091,227.45,-414.865,0,0
195351,229.886,-411.334,0,0
195612,232.418,-407.885,0,0
195872,235.077,-404.367,0,0
196132,237.755,-400.842,0,0
196393,240.576,-397.228,0,0
196653,243.548,-393.542,0,0
196913,246.85,-389.751,0,0
197174,250.379,-386.085,0,0
197434,254.177,-382.548,0,0
197694,258.088,-379.226,0,0
197955,262.027,-376.109,0,0
198215,266.117,-373.04,0,0
198475,270.257,-370.11,0,0
198735,274.259,-367.375,0,0
198996,278.218,-364.744,0,0
199256,282.021,-361.738,0,0
199516,286.029,-358.695,0,0
199777,290.187,-355.523,0,0
200037,294.457,-352.32,0,0
200297,298.845,-348.815,0,0
200558,303.634,-345.254,0,0
200818,308.719,-341.641,0,0
201078,314.271,-337.887,0,0
201339,320.319,-334.228,0,0
201599,326.853,-330.796,0,0
201859,333.814,-327.674,0,0
202120,341.031,-324.905,0,0
202380.025,348.476,-322.379,0,0
202640.35,356.222,-320.176,0,0
202900.675,364.182,-318.269,0,0
203161.0,372.351,-316.659,0,0
203421.325,380.817,-315.241,0,0
203681.65,389.638,-314.128,0,0
203941.975,398.729,-313.314,0,0
204202.3,408.312,-312.814,0,0
204462.625,418.556,-313.022,0,0
204722.95,429.24,-314.193,0,0
204983.275,440.098,-316.477,0,0
205243.6,450.76,-319.989,0,0
205503.925,460.819,-324.501,0,0
205764.25,470.262,-329.627,0,0
206024.575,479.163,-335.233,0,0
206284.9,487.579,-341.42,0,0
206545.225,495.443,-347.864,0,0
206805.55,503.029,-354.737,0,0
207065.875,510.057,-362.298,0,0
207326.2,516.044,-370.445,0,0
207586.525,521.142,-378.555,0,0
207846.85,525.479,-386.393,0,0
208107.175,529.498,-394.026,0,0
208367.5,533.341,-401.812,0,0
208627.825,536.7,-409.953,0,0
208888.15,539.211,-418.314,0,0
209148.475,540.858,-426.722,0,0
209408.8,541.658,-434.803,0,0
209669.125,541.62,-442.4,0,0
209929.45,541.073,-449.376,0,0
210189.775,540.002,-455.737,0,0
210450.1,538.752,-461.434,0,0
210710.425,537.289,-466.538,0,0
210970.75,535.862,-471.195,0,0
211231.075,534.132,-475.371,0,0
211491.4,532.254,-478.758,0,0
211751.725,530.551,-481.355,0,0
212012.05,529.082,-483.392,0,0
212272.375,527.809,-484.627,0,0
212532.7,527.715,-485.233,0,0
212793.025,528.546,-485.734,0,0
213053.35,530.264,-486.703,0,0
213313.675,532.26,-488.361,0,0
213574.0,534.194,-490.45,0,0
213834.325,536.01,-492.764,0,0
214094.65,537.595,-495.014,0,0
214354.975,539.529,-496.982,0,0
214615.3,541.757,-499.264,0,0
214875.625,544.143,-501.929,0,0
215135.95,546.393,-504.907,0,0
215396.275,548.361,-508.01,0,0
215656.6,550.442,-511.216,0,0
215916.925,552.18,-514.626,0,0
216177.25,553.353,-518.001,0,0
216437.575,554.248,-520.804,0,0
216697.9,555.384,-522.92,0,0
216958.225,557.085,-524.678,0,0
217218.55,559.517,-526.271,0,0
217478.875,562.741,-528.327,0,0
217739.2,566.311,-531.14,0,0
217999.525,569.624,-534.657,0,0
218259.85,572.714,-538.466,0,0
218520,575.454,-542.342,0,0
218780,578.088,-545.996,0,0
219041,581.103,-549.59,0,0
219301,584.183,-553.246,0,0
219561,587.663,-557.296,0,0
219822,591.301,-561.519,0,0
220082,595.057,-566.32,0,0
220342,598.516,-571.482,0,0
220603,602.183,-576.565,0,0
220863,606.088,-582.01,0,0
221123,610.422,-588.361,0,0
221384,614.352,-595.469,0,0
221644,617.9,-603.461,0,0
221904,620.801,-611.659,0,0
222165,623.236,-620.08,0,0
222425,625.499,-628.845,0,0
222685,626.938,-638.034,0,0
222946,628.007,-647.222,0,0
223206,628.622,-656.535,0,0
223466,629.062,-665.99,0,0
223727,628.993,-675.721,0,0
223987,628.352,-685.751,0,0
224247,626.868,-695.849,0,0
224508,624.907,-705.671,0,0
224768,622.817,-715.286,0,0
225028,620.295,-724.992,0,0
225289,617.445,-734.955,0,0
225549,613.794,-745.14,0,0
225809,609.436,-755.015,0,0
226070,604.617,-764.843,0,0
226330,599.067,-774.346,0,0
226590,592.894,-783.447,0,0
226851,586.601,-792.234,0,0
227111,579.798,-800.861,0,0
227371,572.308,-809.283,0,0
227632,564.204,-817.268,0,0
227892,555.563,-824.616,0,0
228152,546.455,-831.345,0,0
228413,536.953,-837.19,0,0
228673,527.43,-842.167,0,0
228933,517.918,-846.344,0,0
229193,508.779,-850.175,0,0
229454,499.465,-853.5,0,0
229714,490.243,-856.396,0,0
229974,481.062,-858.935,0,0
230235,471.895,-860.863,0,0
230495,462.775,-862.387,0,0
230755,453.92,-863.329,0,0
231016,445.317,-863.739,0,0
231276,436.987,-863.728,0,0
231536,428.999,-863.437,0,0
231797,421.328,-862.713,0,0
232057,414.117,-861.763,0,0
232317,407.419,-860.583,0,0
232578,401.253,-859.483,0,0
232838,395.292,-858.611,0,0
233098,389.449,-857.774,0,0
233359,383.577,-856.963,0,0
233619,377.691,-856.15,0,0
233879,371.996,-855.003,0,0
234140,366.634,-853.898,0,0
234400,361.314,-852.755,0,0
234660.3,356.099,-851.534,0,0
234920.625,351.199,-850.152,0,0
235180.95,346.197,-848.989,0,0
235441.275,341.636,-847.746,0,0
235701.6,336.89,-846.773,0,0
235961.925,332.03,-845.77,0,0
236222.25,327.312,-844.46,0,0
236482.575,322.582,-843.092,0,0
236742.9,318.202,-841.548,0,0
237003.225,313.89,-840.103,0,0
237263.55,309.781,-838.795,0,0
237523.875,305.53,-837.676,0,0
237784.2,301.25,-836.413,0,0
238044.525,297.046,-835.202,0,0
238304.85,292.708,-833.871,0,0
238565.175,288.408,-832.594,0,0
238825.5,284.046,-831.349,0,0
239085.825,279.57,-829.922,0,0
239346.15,274.973,-828.21,0,0
239606.475,270.407,-826.331,0,0
239866.8,265.887,-824.146,0,0
240127.125,261.751,-821.866,0,0
240387.45,257.781,-819.249,0,0
240647.775,253.966,-816.71,0,0
240908.1,250.35,-814.15,0,0
241168.425,247.026,-811.546,0,0
241428.75,243.732,-809.16,0,0
241689.075,240.582,-806.766,0,0
241949.4,237.413,-804.275,0,0
242209.725,234.401,-801.842,0,0
242470.05,231.414,-799.306,0,0
242730.375,228.479,-796.889,0,0
242990.7,225.771,-794.383,0,0
243251.025,223.111,-791.838,0,0
243511.35,220.654,-789.338,0,0
243771.675,218.211,-787.008,0,0
244032.0,215.878,-784.802,0,0
244292.325,213.489,-782.643,0,0
244552.65,211.047,-780.459,0,0
244812.975,208.646,-778.309,0,0
245073.3,206.139,-776.039,0,0
245333.625,203.698,-773.895,0,0
245593.95,201.441,-771.682,0,0
245854.275,199.106,-769.429,0,0
246114.6,196.732,-767.238,0,0
246374.925,194.32,-764.977,0,0
246635.25,191.97,-762.52,0,0
246895.575,189.735,-760.082,0,0
247155.9,187.576,-757.565,0,0
247416.225,185.476,-755.089,0,0
247676.55,183.47,-752.512,0,0
247936.875,181.559,-749.991,0,0
248197.2,179.693,-747.453,0,0
248457.525,177.915,-744.907,0,0
248717.85,176.206,-742.404,0,0
248978.175,174.533,-740.005,0,0
249238.5,172.942,-737.363,0,0
249498.825,171.233,-734.949,0,0
249759.15,169.862,-732.351,0,0
250019.475,168.45,-729.981,0,0
250279.8,166.919,-727.551,0,0
250540,165.516,-725.31,0,0
250800,164.102,-722.86,0,0
251061,162.705,-720.499,0,0
251321,161.412,-718.055,0,0
251581,160.094,-715.647,0,0
251842,158.826,-713.254,0,0
252102,157.531,-710.847,0,0
252362,156.286,-708.399,0,0
252623,155.118,-705.965,0,0
252883,153.975,-703.444,0,0
253143,152.863,-700.943,0,0
253404,151.825,-698.459,0,0
253664,150.762,-695.938,0,0
253924,149.782,-693.342,0,0
254185,148.858,-690.719,0,0
254445,148.033,-688.038,0,0
254705,147.421,-685.335,0,0
254966,146.794,-682.702,0,0
255226,146.253,-680.13,0,0
255486,145.86,-677.637,0,0
255747,145.542,-675.183,0,0
256007,145.176,-672.771,0,0
256267,144.817,-670.433,0,0
256528,144.473,-668.083,0,0
256788,144.158,-665.687,0,0
257048,143.881,-663.313,0,0
257309,143.66,-660.928,0,0
257569,143.465,-658.533,0,0
257829,143.364,-656.107,0,0
258090,143.31,-653.669,0,0
258350,143.419,-651.217,0,0
258610,143.544,-648.842,0,0
258871,143.815,-646.462,0,0
259131,144.187,-644.124,0,0
259391,144.645,-641.862,0,0
259651,145.185,-639.755,0,0
259912,145.802,-637.594,0,0
260172,146.387,-635.549,0,0
260432,147.097,-633.589,0,0
260693,147.828,-631.695,0,0
260953,148.624,-629.813,0,0
261213,149.475,-628.111,0,0
261474,150.366,-626.454,0,0
261734,151.318,-624.903,0,0
261994,152.245,-623.416,0,0
262255,153.155,-622.055,0,0
262515,154.043,-620.695,0,0
262775,154.963,-619.382,0,0
263036,155.943,-618.046,0,0
263296,156.998,-616.777,0,0
263556,158.157,-615.595,0,0
263817,159.395,-614.559,0,0
264077,160.636,-613.575,0,0
264337,161.979,-612.794,0,0
264598,163.337,-612.161,0,0
264858,164.731,-611.725,0,0
265118,166.051,-611.272,0,0
265379,167.42,-611.133,0,0
265639,168.767,-611.157,0,0
265899,170.091,-611.384,0,0
266160,171.289,-611.777,0,0
266420,172.378,-612.438,0,0
266680.25,173.337,-613.211,0,0
266940.575,174.159,-614.207,0,0
267200.9,174.757,-615.395,0,0
267461.225,175.083,-616.726,0,0
267721.55,175.112,-618.19,0,0
267981.875,174.817,-619.679,0,0
268242.2,174.167,-621.158,0,0
268502.525,173.181,-622.59,0,0
268762.85,171.869,-623.857,0,0
269023.175,170.342,-624.918,0,0
269283.5,168.491,-625.709,0,0
269543.825,166.536,-626.273,0,0
269804.15,164.452,-626.545,0,0
270064.475,162.205,-626.495,0,0
270324.8,160.002,-626.111,0,0
270585.125,157.85,-625.462,0,0
270845.45,155.887,-624.591,0,0
271105.775,153.999,-623.55,0,0
271366.1,152.141,-622.328,0,0
271626.425,150.491,-620.967,0,0
271886.75,148.928,-619.432,0,0
272147.075,147.538,-617.803,0,0
272407.4,146.353,-616.11,0,0
272667.725,145.296,-614.397,0,0
272928.05,144.387,-612.649,0,0
273188.375,143.556,-610.913,0,0
273448.7,142.892,-609.107,0,0
273709.025,142.405,-607.364,0,0
273969.35,142.021,-605.657,0,0
274229.675,141.683,-604.011,0,0
274490.0,141.418,-602.401,0,0
274750.325,141.26,-600.827,0,0
275010.65,141.151,-599.311,0,0
275270.975,141.021,-597.773,0,0
275531.3,141.004,-596.385,0,0
275791.625,141.016,-594.943,0,0
276051.95,141.056,-593.536,0,0
276312.275,141.125,-592.129,0,0
276572.6,141.306,-590.736,0,0
276832.925,141.617,-589.374,0,0
277093.25,141.999,-588.117,0,0
277353.575,142.466,-586.978,0,0
277613.9,142.965,-585.94,0,0
277874.225,143.467,-585.02,0,0
278134.55,143.896,-584.201,0,0
278394.875,144.356,-583.41,0,0
278655.2,144.861,-582.706,0,0
278915.525,145.359,-582.106,0,0
279175.85,145.851,-581.665,0,0
279436.175,146.265,-581.289,0,0
279696.5,146.576,-581.053,0,0
279956.825,146.807,-580.843,0,0
280217.15,146.921,-580.74,0,0
280477.475,146.949,-580.567,0,0
280737.8,146.877,-580.374,0,0
280998.125,146.731,-580.197,0,0
281258.45,146.508,-580.053,0,0
281518.775,146.253,-579.837,0,0
281779.1,145.922,-579.589,0,0
282039.425,145.558,-579.312,0,0
282299.75,145.184,-579.021,0,0
282560,144.768,-578.729,0,0
282820,144.309,-578.419,0,0
283081,143.772,-578.088,0,0
283341,143.145,-577.686,0,0
283601,142.531,-577.194,0,0
283862,141.909,-576.611,0,0
284122,141.361,-576.031,0,0
284382,140.781,-575.374,0,0
284643,140.282,-574.806,0,0
284903,139.673,-574.211,0,0
285163,139.009,-573.649,0,0
285424,138.305,-572.965,0,0
285684,137.563,-572.223,0,0
285944,136.846,-571.413,0,0
286205,136.134,-570.562,0,0
286465,135.38,-569.734,0,0
286725,134.546,-568.832,0,0
286986,133.635,-567.765,0,0
287246,132.72,-566.512,0,0
287506,131.888,-565.055,0,0
287767,131.18,-563.444,0,0
288027,130.644,-561.714,0,0
288287,130.327,-559.894,0,0
288548,130.148,-558.097,0,0
288808,130.209,-556.184,0,0
289068,130.568,-554.35,0,0
289329,131.117,-552.669,0,0
289589,131.844,-551.166,0,0
289849,132.67,-549.86,0,0
290109,133.51,-548.825,0,0
290370,134.403,-547.988,0,0
290630,135.176,-547.41,0,0
290890,135.762,-546.999,0,0
291151,136.219,-546.645,0,0
291411,136.469,-546.234,0,0
291671,136.639,-545.893,0,0
291932,136.69,-545.548,0,0
292192,136.618,-545.158,0,0
292452,136.439,-544.704,0,0
292713,136.132,-544.152,0,0
292973,135.763,-543.475,0,0
293233,135.375,-542.618,0,0
293494,135.025,-541.621,0,0
293754,134.739,-540.509,0,0
294014,134.541,-539.3,0,0
294275,134.467,-538.022,0,0
294535,134.463,-536.679,0,0
294795,134.584,-535.252,0,0
295056,134.824,-533.86,0,0
295316,135.141,-532.462,0,0
295576,135.576,-531.01,0,0
295837,136.152,-529.587,0,0
296097,136.891,-528.235,0,0
296357,137.752,-526.961,0,0
296618,138.703,-525.81,0,0
296878,139.69,-524.804,0,0
297138,140.673,-523.897,0,0
297399,141.612,-523.083,0,0
297659,142.551,-522.271,0,0
297919,143.513,-521.49,0,0
298180,144.505,-520.756,0,0
298440,145.543,-520.058,0,0
298700.2,146.605,-519.402,0,0
298960.525,147.624,-518.848,0,0
299220.85,148.771,-518.388,0,0
299481.175,149.898,-517.937,0,0
299741.5,150.95,-517.606,0,0
300001.825,152.001,-517.363,0,0
300262.15,153.014,-517.084,0,0
300522.475,153.983,-516.916,0,0
300782.8,154.929,-516.571,0,0
301043.125,155.927,-516.289,0,0
301303.45,156.973,-515.993,0,0
301563.775,158.217,-515.693,0,0
301824.1,159.47,-515.482,0,0
302084.425,160.818,-515.487,0,0
302344.75,162.218,-515.504,0,0
302605.075,163.603,-515.786,0,0
302865.4,165.04,-516.178,0,0
303125.725,166.251,-516.66,0,0
303386.05,167.386,-517.2,0,0
303646.375,168.494,-517.946,0,0
303906.7,169.572,-518.698,0,0
304167.025,170.636,-519.447,0,0
304427.35,171.535,-520.337,0,0
304687.675,172.298,-521.366,0,0
304948.0,172.965,-522.304,0,0
305208.325,173.546,-523.138,0,0
305468.65,174.111,-523.952,0,0
305728.975,174.72,-524.81,0,0
305989.3,175.433,-525.614,0,0
306249.625,176.029,-526.51,0,0
306509.95,176.708,-527.449,0,0
306770.275,177.372,-528.682,0,0
307030.6,177.915,-529.93,0,0
307290.925,178.341,-531.296,0,0
307551.25,178.713,-532.637,0,0
307811.575,178.93,-534.047,0,0
308071.9,179.09,-535.419,0,0
308332.225,179.116,-536.878,0,0
308592.55,178.962,-538.406,0,0
308852.875,178.731,-539.779,0,0
309113.2,178.387,-541.216,0,0
309373.525,178.056,-542.487,0,0
309633.85,177.578,-543.767,0,0
309894.175,177.213,-545.039,0,0
310154.5,176.646,-546.29,0,0
310414.825,176.16,-547.678,0,0
310675.15,175.574,-548.938,0,0
310935.475,174.874,-550.296,0,0
311195.8,174.14,-551.682,0,0
311456.125,173.229,-553.032,0,0
311716.45,172.239,-554.317,0,0
311976.775,171.178,-555.63,0,0
312237.1,169.862,-556.841,0,0
312497.425,168.468,-557.942,0,0
312757.75,167.172,-558.909,0,0
313018.075,165.639,-559.769,0,0
313278.4,164.307,-560.522,0,0
313538.725,162.755,-561.191,0,0
313799.05,161.359,-561.807,0,0
314059.375,159.957,-562.344,0,0
314319.7,158.579,-562.839,0,0
314580,157.135,-563.321,0,0
314840,155.713,-563.659,0,0
315101,154.295,-564.079,0,0
315361,152.823,-564.44,0,0
315621,151.473,-564.834,0,0
315882,150.168,-565.163,0,0
316142,148.636,-565.521,0,0
316402,147.076,-565.804,0,0
316663,145.464,-566.1,0,0
316923,143.754,-566.249,0,0
317183,142.064,-566.31,0,0
317444,140.39,-566.371,0,0
317704,138.683,-566.24,0,0
317964,136.965,-566.005,0,0
318225,135.43,-565.763,0,0
318485,133.818,-565.5,0,0
318745,132.222,-565.113,0,0
319006,130.735,-564.669,0,0
319266,129.212,-564.315,0,0
319526,127.717,-563.848,0,0
319787,126.198,-563.409,0,0
320047,124.64,-562.81,0,0
320307,123.093,-562.195,0,0
320567,121.627,-561.54,0,0
320828,120.194,-560.753,0,0
321088,118.767,-560.022,0,0
321348,117.405,-559.133,0,0
321609,116.09,-558.347,0,0
321869,114.895,-557.471,0,0
322129,113.551,-556.534,0,0
322390,112.294,-555.488,0,0
322650,111.106,-554.438,0,0
322910,110.001,-553.347,0,0
323171,108.98,-552.161,0,0
323431,107.959,-551.015,0,0
323691,107.147,-549.851,0,0
323952,106.384,-548.639,0,0
324212,105.594,-547.437,0,0
324472,104.948,-546.196,0,0
324733,104.399,-545.126,0,0
324993,103.864,-543.928,0,0
325253,103.451,-542.926,0,0
325514,103.11,-541.863,0,0
325774,102.687,-540.917,0,0
326034,102.327,-539.93,0,0
326295,102.057,-538.979,0,0
326555,101.8,-538.094,0,0
326815,101.557,-537.294,0,0
327076,101.231,-536.475,0,0
327336,101.143,-535.792,0,0
327596,100.915,-535.105,0,0
327857,100.658,-534.482,0,0
328117,100.546,-533.842,0,0
328377,100.278,-533.289,0,0
328638,100.014,-532.76,0,0
328898,99.8481,-532.295,0,0
329158,99.5514,-531.813,0,0
329419,99.2752,-531.352,0,0
329679,98.9672,-530.99,0,0
329939,98.705,-530.617,0,0
330200,98.3284,-530.295,0,0
330460,97.9524,-529.907,0,0
330720.15,97.5721,-529.71,0,0
330980.475,97.158,-529.288,0,0
331240.8,96.6675,-529.026,0,0
331501.125,96.1741,-528.714,0,0
331761.45,95.6309,-528.443,0,0
332021.775,95.1468,-528.188,0,0
332282.1,94.5315,-527.865,0,0
332542.425,93.9792,-527.614,0,0
332802.75,93.2693,-527.25,0,0
333063.075,92.5404,-526.886,0,0
333323.4,91.8293,-526.565,0,0
333583.725,91.1038,-526.16,0,0
333844.05,90.3906,-525.71,0,0
334104.375,89.6329,-525.318,0,0
334364.7,88.906,-524.814,0,0
334625.025,88.1318,-524.279,0,0
334885.35,87.3525,-523.809,0,0
335145.675,86.564,-523.214,0,0
335406.0,85.7648,-522.661,0,0
335666.325,84.9995,-522.072,0,0
335926.65,84.2569,-521.393,0,0
336186.975,83.4764,-520.709,0,0
336447.3,82.741,-520.085,0,0
336707.625,82.0332,-519.436,0,0
336967.95,81.3836,-518.628,0,0
337228.275,80.6926,-517.921,0,0
337488.6,79.9848,-517.235,0,0
337748.925,79.2362,-516.517,0,0
338009.25,78.5793,-515.67,0,0
338269.575,77.9334,-514.931,0,0
338529.9,77.2423,-514.127,0,0
338790.225,76.6177,-513.246,0,0
339050.55,75.9852,-512.507,0,0
339310.875,75.3983,-511.692,0,0
339571.2,74.7684,-510.862,0,0
339831.525,74.1739,-509.948,0,0
340091.85,73.5842,-509.082,0,0
340352.175,73.059,-508.281,0,0
340612.5,72.5508,-507.312,0,0
340872.825,72.1323,-506.38,0,0
341133.15,71.6604,-505.535,0,0
341393.475,71.1508,-504.676,0,0
341653.8,70.7867,-503.842,0,0
341914.125,70.3663,-502.994,0,0
342174.45,70.0199,-502.148,0,0
342434.775,69.5741,-501.302,0,0
342695.1,69.1782,-500.542,0,0
342955.425,68.7487,-499.744,0,0
343215.75,68.3875,-498.958,0,0
343476.075,67.941,-498.221,0,0
343736.4,67.5442,-497.43,0,0
343996.725,67.0906,-496.618,0,0
344257.05,66.7315,-495.794,0,0
344517.375,66.223,-495.019,0,0
344777.7,65.7733,-494.204,0,0
345038.025,65.3781,-493.334,0,0
345298.35,64.9254,-492.499,0,0
345558.675,64.5378,-491.607,0,0
345819.0,64.072,-490.756,0,0
346079.325,63.6259,-489.818,0,0
346339.65,63.2748,-488.906,0,0
346599.975,62.906,-487.996,0,0
346860,62.5308,-487.056,0,0
347121,62.2586,-486.145,0,0
347381,61.8859,-485.223,0,0
347641,61.6034,-484.312,0,0
347902,61.2784,-483.347,0,0
348162,61.0505,-482.423,0,0
348422,60.7783,-481.503,0,0
348683,60.4988,-480.586,0,0
348943,60.2799,-479.611,0,0
349203,60.0693,-478.637,0,0
349464,59.8387,-477.717,0,0
349724,59.6794,-476.776,0,0
349984,59.471,-475.821,0,0
350245,59.3744,-474.913,0,0
350505,59.2651,-473.978,0,0
350765,59.1463,-473.105,0,0
351025,59.0613,-472.245,0,0
351286,58.9737,-471.317,0,0
351546,58.877,-470.514,0,0
351806,58.8218,-469.667,0,0
352067,58.7321,-468.847,0,0
352327,58.6375,-468.048,0,0
352587,58.4591,-467.252,0,0
352848,58.3864,-466.418,0,0
353108,58.284,-465.671,0,0
353368,58.1869,-464.811,0,0
353629,58.0607,-464.035,0,0
353889,57.9317,-463.214,0,0
354149,57.8574,-462.376,0,0
354410,57.7436,-461.522,0,0
354670,57.6695,-460.701,0,0
354930,57.5771,-459.846,0,0
355191,57.5303,-458.978,0,0
355451,57.4541,-458.097,0,0
355711,57.4529,-457.267,0,0
355972,57.4191,-456.445,0,0
356232,57.4444,-455.598,0,0
356492,57.469,-454.828,0,0
356753,57.5154,-453.971,0,0
357013,57.5554,-453.212,0,0
357273,57.5882,-452.418,0,0
357534,57.6552,-451.707,0,0
357794,57.6669,-450.927,0,0
358054,57.6963,-450.228,0,0
358315,57.7387,-449.469,0,0
358575,57.776,-448.705,0,0
358835,57.7634,-448.004,0,0
359096,57.7896,-447.283,0,0
359356,57.8049,-446.571,0,0
359616,57.8722,-445.831,0,0
359877,57.8968,-445.164,0,0
360137,57.8918,-444.311,0,0
360397,57.9031,-443.585,0,0
360658,58.0102,-442.847,0,0
360918,58.1137,-442.109,0,0
361178,58.1578,-441.387,0,0
361438,58.2381,-440.725,0,0
361699,58.326,-440.053,0,0
361959,58.3987,-439.398,0,0
362219,58.4362,-438.717,0,0
362480,58.4734,-438.022,0,0
362740.1,58.4833,-437.389,0,0
363000.425,58.541,-436.69,0,0
363260.75,58.6236,-435.979,0,0
363521.075,58.6369,-435.307,0,0
363781.4,58.6789,-434.618,0,0
364041.725,58.7416,-433.917,0,0
364302.05,58.8014,-433.191,0,0
364562.375,58.8557,-432.547,0,0
364822.7,58.9313,-431.843,0,0
365083.025,58.9773,-431.135,0,0
365343.35,59.0239,-430.475,0,0
365603.675,59.061,-429.704,0,0
365864.0,59.1359,-429.072,0,0
366124.325,59.2258,-428.28,0,0
366384.65,59.3206,-427.613,0,0
366644.975,59.3775,-426.879,0,0
366905.3,59.4076,-426.163,0,0
367165.625,59.4881,-425.413,0,0
367425.95,59.5645,-424.703,0,0
367686.275,59.601,-423.879,0,0
367946.6,59.6559,-423.111,0,0
368206.925,59.6982,-422.236,0,0
368467.25,59.7933,-421.407,0,0
368727.575,59.9091,-420.431,0,0
368987.9,60.1325,-419.541,0,0
369248.225,60.4168,-418.584,0,0
369508.55,60.6972,-417.638,0,0
369768.875,61.0805,-416.672,0,0
370029.2,61.5239,-415.742,0,0
370289.525,61.9622,-414.825,0,0
370549.85,62.5318,-414.029,0,0
370810.175,63.063,-413.152,0,0
371070.5,63.6902,-412.433,0,0
371330.825,64.3224,-411.703,0,0
371591.15,64.9804,-411.043,0,0
371851.475,65.6234,-410.41,0,0
372111.8,66.31,-409.843,0,0
372372.125,66.9931,-409.297,0,0
372632.45,67.696,-408.79,0,0
372892.775,68.3499,-408.345,0,0
373153.1,69.0399,-407.972,0,0
373413.425,69.7131,-407.613,0,0
373673.75,70.4209,-407.345,0,0
373934.075,71.0347,-407.059,0,0
374194.4,71.6918,-406.828,0,0
374454.725,72.3033,-406.661,0,0
374715.05,72.9012,-406.467,0,0
374975.375,73.5055,-406.343,0,0
375235.7,74.0021,-406.258,0,0
375496.025,74.4808,-406.23,0,0
375756.35,74.8985,-406.168,0,0
376016.675,75.3356,-406.055,0,0
376277.0,75.6863,-405.959,0,0
376537.325,76.0208,-405.881,0,0
376797.65,76.4279,-405.758,0,0
377057.975,76.8145,-405.688,0,0
377318.3,77.2004,-405.597,0,0
377578.625,77.5878,-405.501,0,0
377838.95,77.9444,-405.435,0,0
378099.275,78.3444,-405.432,0,0
378359.6,78.7129,-405.417,0,0
378619.925,79.066,-405.354,0,0
378880,79.3728,-405.408,0,0
379141,79.6617,-405.426,0,0
379401,79.9756,-405.415,0,0
379661,80.2459,-405.467,0,0
379922,80.4896,-405.5,0,0
380182,80.7806,-405.469,0,0
380442,81.0881,-405.442,0,0
380703,81.4742,-405.49,0,0
380963,81.8482,-405.549,0,0
381223,82.1713,-405.669,0,0
381483,82.5549,-405.88,0,0
381744,82.9155,-406.123,0,0
382004,83.1969,-406.433,0,0
382264,83.4789,-406.835,0,0
382525,83.6462,-407.271,0,0
382785,83.7742,-407.72,0,0
383045,83.7965,-408.198,0,0
383306,83.8008,-408.682,0,0
383566,83.6318,-409.141,0,0
383826,83.4784,-409.608,0,0
384087,83.2059,-410.014,0,0
384347,82.8751,-410.453,0,0
384607,82.4649,-410.838,0,0
384868,82.0361,-411.091,0,0
385128,81.5679,-411.349,0,0
385388,81.1478,-411.526,0,0
385649,80.6246,-411.691,0,0
385909,80.1162,-411.803,0,0
386169,79.5915,-411.894,0,0
386430,79.0618,-411.994,0,0
386690,78.529,-412.044,0,0
386950,77.9085,-412.071,0,0
387211,77.2482,-411.964,0,0
387471,76.5793,-411.869,0,0
387731,75.9633,-411.687,0,0
387992,75.375,-411.389,0,0
388252,74.7509,-411.132,0,0
388512,74.2438,-410.733,0,0
388773,73.7061,-410.377,0,0
389033,73.2594,-409.954,0,0
389293,72.8179,-409.545,0,0
389554,72.4451,-409.096,0,0
389814,72.1171,-408.683,0,0
390074,71.8188,-408.299,0,0
390335,71.5382,-407.908,0,0
390595,71.3057,-407.55,0,0
390855,71.0353,-407.198,0,0
391116,70.7959,-406.9,0,0
391376,70.5759,-406.583,0,0
391636,70.303,-406.348,0,0
391896,70.0036,-406.108,0,0
392157,69.6983,-405.872,0,0
392417,69.3644,-405.626,0,0
392677,69.0102,-405.397,0,0
392938,68.6274,-405.158,0,0
393198,68.1503,-404.927,0,0
393458,67.7045,-404.684,0,0
393719,67.1893,-404.362,0,0
393979,66.7134,-403.999,0,0
394239,66.1679,-403.644,0,0
394500,65.6645,-403.206,0,0
394760.05,65.1443,-402.71,0,0
395020.375,64.6115,-402.191,0,0
395280.7,64.1277,-401.676,0,0
395541.025,63.6359,-401.129,0,0
395801.35,63.1588,-400.539,0,0
396061.675,62.753,-399.956,0,0
396322.0,62.36,-399.326,0,0
396582.325,61.9387,-398.642,0,0
396842.65,61.5937,-397.944,0,0
397102.975,61.2663,-397.313,0,0
397363.3,60.9514,-396.627,0,0
397623.625,60.6074,-395.953,0,0
397883.95,60.327,-395.25,0,0
398144.275,60.0532,-394.575,0,0
398404.6,59.7844,-393.879,0,0
398664.925,59.561,-393.155,0,0
398925.25,59.3364,-392.442,0,0
399185.575,59.1042,-391.718,0,0
399445.9,58.9152,-390.996,0,0
399706.225,58.7064,-390.248,0,0
399966.55,58.5504,-389.559,0,0
400006.6,58.5776,-389.4,0,0