File: Accelerated corrosion test data/2025-10-05_06-00-04/sample_6.csv
Frequency (Hz),Impedance (ohms),Phase (Radians),Temperature (C),Humidity (%)
10000.0,4242.74,-6565.33,0,0
10260.325,4104.51,-6489.06,0,0
10520.65,3973.04,-6412.37,0,0
10780.975,3846.43,-6336.42,0,0
11041.3,3727.01,-6260.62,0,0
11301.625,3612.04,-6186.17,0,0
11561.95,3502.23,-6112.5,0,0
11822.275,3397.29,-6039.13,0,0
12082.6,3296.32,-5966.26,0,0
12342.925,3200.25,-5894.29,0,0
12603.25,3110.02,-5822.81,0,0
12863.575,3022.23,-5753.53,0,0
13123.9,2940.84,-5686.09,0,0
13384.225,2858.22,-5621.2,0,0
13644.55,2778.81,-5555.11,0,0
13904.875,2703.54,-5489.6,0,0
14165.2,2631.21,-5425.53,0,0
14425.525,2561.32,-5361.84,0,0
14685.8,2495.22,-5298.48,0,0
14946.175,2432.2,-5237.91,0,0
15206.5,2371.03,-5177.36,0,0
15466.825,2311.64,-5119.01,0,0
15727.15,2254.92,-5061.19,0,0
15987.5,2200.29,-5004.56,0,0
16247.8,2147.17,-4948.37,0,0
16508.125,2096.39,-4893.15,0,0
16768.45,2047.71,-4838.51,0,0
17028.775,2000.17,-4786.15,0,0
17289.1,1954.58,-4734.82,0,0
17549.425,1910.26,-4683.68,0,0
17809.75,1867.07,-4632.81,0,0
18070.075,1825.81,-4584.16,0,0
18330.4,1786.11,-4534.65,0,0
18590.725,1747.1,-4486.51,0,0
18851.05,1711.85,-4439.15,0,0
19111.375,1676.04,-4394.03,0,0
19371.7,1641.81,-4349.82,0,0
19632.025,1606.23,-4305.76,0,0
19892.35,1574.77,-4262.7,0,0
20152.675,1542.14,-4219.9,0,0
20413.0,1510.95,-4178.32,0,0
20673.3,1480.39,-4136.76,0,0
20933.65,1451.54,-4094.95,0,0
21193.975,1423.51,-4055.5,0,0
21454.3,1396.28,-4016.23,0,0
21714.625,1369.67,-3977.28,0,0
21974.9,1343.66,-3939.21,0,0
22235.275,1318.11,-3901.41,0,0
22495.6,1294.1,-3862.69,0,0
22755.925,1272.47,-3824.6,0,0
23016.25,1253.44,-3788.27,0,0
23276.6,1233.85,-3756.26,0,0
23536.9,1212.49,-3724.86,0,0
23797.225,1190.25,-3693.52,0,0
24057.55,1167.91,-3661.38,0,0
24317.875,1147.22,-3628.38,0,0
24578.2,1126.74,-3596.24,0,0
24838.525,1107.86,-3564.16,0,0
25098.85,1089.56,-3532.78,0,0
25359.175,1071.92,-3502.18,0,0
25619.5,1054.15,-3472.39,0,0
25879.8,1036.25,-3442.7,0,0
26140.1,1019.78,-3413.12,0,0
26400.5,1003.28,-3384.2,0,0
26660.8,987.539,-3355.31,0,0
26921.1,972.139,-3326.89,0,0
27181.4,957.625,-3298.37,0,0
27441.8,943.75,-3271.88,0,0
27702.1,930.201,-3245.01,0,0
27962.4,916.475,-3219.54,0,0
28222.7,902.745,-3194.23,0,0
28483.1,888.772,-3169.01,0,0
28743.4,875.086,-3143.39,0,0
29003.7,862.263,-3118.42,0,0
29264,849.603,-3092.43,0,0
29524.4,838.654,-3067.62,0,0
29784.7,827.129,-3044.1,0,0
30045,815.793,-3019.95,0,0
30305.3,806.187,-2996.6,0,0
30565.7,795.628,-2975,0,0
30826,784.182,-2953.25,0,0
31086.3,772.896,-2930.49,0,0
31346.6,762.749,-2908.17,0,0
31607,752.368,-2885.81,0,0
31867.3,743.126,-2863.45,0,0
32127.6,734.744,-2841.83,0,0
32387.9,726.359,-2820.68,0,0
32648.3,718.334,-2800,0,0
32908.6,710.883,-2779.98,0,0
33168.9,703.498,-2760.14,0,0
33429.2,696.581,-2741.26,0,0
33689.6,689.789,-2723.55,0,0
33949.9,681.451,-2706.61,0,0
34210.2,672.833,-2688.61,0,0
34470.5,664.765,-2670.73,0,0
34730.9,656.933,-2652.86,0,0
34991.2,649.793,-2634.85,0,0
35251.5,642.976,-2617.52,0,0
35511.8,636.347,-2601.18,0,0
35772.2,629.367,-2585.82,0,0
36032.5,621.077,-2569.72,0,0
36292.8,613.541,-2553.66,0,0
36553.1,605.828,-2537.57,0,0
36813.5,598.223,-2521.45,0,0
37073.8,590.648,-2505.1,0,0
37334.1,583.972,-2489.39,0,0
37594.4,576.285,-2473.3,0,0
37854.8,569.419,-2457.29,0,0
38115.1,562.643,-2441.38,0,0
38375.4,556.038,-2425.64,0,0
38635.7,549.858,-2409.57,0,0
38896.1,543.806,-2394.12,0,0
39156.4,537.887,-2378.42,0,0
39416.7,532.503,-2363.24,0,0
39677,527.082,-2348.36,0,0
39937.4,521.88,-2333.6,0,0
40197.7,516.77,-2319.03,0,0
40458,511.888,-2304.78,0,0
40718.3,506.973,-2290.73,0,0
40978.7,501.501,-2277.16,0,0
41239,496.156,-2262.92,0,0
41499.3,492.224,-2248.63,0,0
41759.6,487.938,-2234.93,0,0
42020,484.129,-2222.05,0,0
42280.275,479.682,-2209.89,0,0
42540.6,474.055,-2197.3,0,0
42800.925,469.077,-2183.71,0,0
43061.25,464.505,-2170.32,0,0
43321.575,460.317,-2156.44,0,0
43581.9,456.822,-2143.23,0,0
43842.225,453.851,-2130.14,0,0
44102.55,450.251,-2118.24,0,0
44362.875,446.481,-2105.27,0,0
44623.2,443.382,-2092.77,0,0
44883.525,440.444,-2079.95,0,0
45143.85,438.585,-2067.61,0,0
45404.175,436.457,-2056.41,0,0
45664.5,434.225,-2044.96,0,0
45924.825,432.124,-2033.59,0,0
46185.15,430.728,-2022.91,0,0
46445.475,428.705,-2013.02,0,0
46705.8,426.068,-2003.36,0,0
46966.125,423.839,-1993.1,0,0
47226.45,421.941,-1983.46,0,0
47486.775,419.578,-1973.59,0,0
47747.1,417.947,-1964.34,0,0
48007.425,415.899,-1955.11,0,0
48267.75,414.245,-1946.52,0,0
48528.075,411.914,-1938.45,0,0
48788.4,409.829,-1930.52,0,0
49048.725,407.611,-1922.74,0,0
49309.05,405.496,-1916.11,0,0
49569.375,401.846,-1909.88,0,0
49829.7,397.572,-1903.31,0,0
50090.025,392.751,-1896.04,0,0
50350.35,387.879,-1888.65,0,0
50610.675,382.387,-1880.48,0,0
50871.0,377.513,-1871.59,0,0
51131.325,372.885,-1862.53,0,0
51391.65,368.598,-1853.55,0,0
51651.975,364.325,-1844.52,0,0
51912.3,360.412,-1835.38,0,0
52172.625,356.479,-1826.07,0,0
52432.95,353.191,-1816.8,0,0
52693.275,350.212,-1807.73,0,0
52953.6,347.318,-1799.35,0,0
53213.925,344.118,-1791.27,0,0
53474.25,340.466,-1783.04,0,0
53734.575,336.936,-1774.6,0,0
53994.9,333.15,-1766.11,0,0
54255.225,329.771,-1757.13,0,0
54515.55,326.662,-1748.29,0,0
54775.875,323.779,-1739.96,0,0
55036.2,320.654,-1731.75,0,0
55296.525,317.298,-1723.46,0,0
55556.85,313.814,-1714.74,0,0
55817.175,310.525,-1705.88,0,0
56077.5,307.295,-1696.84,0,0
56337.825,304.548,-1687.15,0,0
56598.15,302.72,-1677.34,0,0
56858.475,301.365,-1668.31,0,0
57118.8,300.332,-1659.56,0,0
57379.125,299.607,-1651.36,0,0
57639.45,298.762,-1643.58,0,0
57899.775,298.157,-1636.49,0,0
58160.1,296.981,-1629.96,0,0
58420.4,295.427,-1623.42,0,0
58680.7,293.692,-1616.75,0,0
58941.1,291.919,-1610.09,0,0
59201.4,290.106,-1603.69,0,0
59461.7,288.114,-1597.38,0,0
59722,285.811,-1591.02,0,0
59982.4,283.215,-1584.75,0,0
60242.7,280.461,-1578.12,0,0
60503,278.003,-1571.18,0,0
60763.3,275.63,-1564.28,0,0
61023.7,273.063,-1557.58,0,0
61284,270.553,-1550.62,0,0
61544.3,267.922,-1543.62,0,0
61804.6,265.145,-1536.33,0,0
62065,262.513,-1528.45,0,0
62325.3,260.446,-1520.23,0,0
62585.6,259.14,-1512.07,0,0
62845.9,258.542,-1504.2,0,0
63106.3,258.328,-1496.7,0,0
63366.6,258.642,-1490.17,0,0
63626.9,258.597,-1484.26,0,0
63887.2,258.575,-1478.98,0,0
64147.6,257.693,-1474.72,0,0
64407.9,255.501,-1470.27,0,0
64668.2,252.655,-1464.95,0,0
64928.5,250.096,-1458.82,0,0
65188.9,248.186,-1452.41,0,0
65449.2,246.481,-1446.16,0,0
65709.5,245.043,-1440.19,0,0
65969.8,243.46,-1434.85,0,0
66230.2,241.442,-1429.25,0,0
66490.5,239.127,-1423.42,0,0
66750.8,237.165,-1417.83,0,0
67011.1,234.794,-1412.01,0,0
67271.5,232.298,-1405.85,0,0
67531.8,229.984,-1399.32,0,0
67792.1,227.945,-1392.92,0,0
68052.4,226.368,-1386.15,0,0
68312.8,224.615,-1379.62,0,0
68573.1,223.084,-1373.08,0,0
68833.4,221.438,-1366.54,0,0
69093.7,220.102,-1359.92,0,0
69354.1,218.927,-1353.46,0,0
69614.4,217.672,-1346.96,0,0
69874.7,216.626,-1340.34,0,0
70135,215.626,-1333.9,0,0
70395.4,215.018,-1327.4,0,0
70655.7,214.421,-1321.12,0,0
70916,213.946,-1314.81,0,0
71176.3,213.465,-1308.52,0,0
71436.7,213.437,-1302.41,0,0
71697,213.353,-1296.62,0,0
71957.3,213.456,-1290.95,0,0
72217.6,212.998,-1285.16,0,0
72478,213.092,-1279.56,0,0
72738.3,213.311,-1274.03,0,0
72998.6,213.488,-1268.91,0,0
73258.9,213.688,-1263.88,0,0
73519.3,213.675,-1259.13,0,0
73779.6,213.657,-1254.49,0,0
74039.9,213.443,-1249.84,0,0
74300.225,213.081,-1245.17,0,0
74560.55,212.779,-1240.43,0,0
74820.875,212.501,-1235.8,0,0
75081.2,212.28,-1231.03,0,0
75341.525,212.222,-1226.5,0,0
75601.85,212.087,-1221.99,0,0
75862.175,211.895,-1217.65,0,0
76122.5,211.583,-1213.27,0,0
76382.825,211.306,-1208.92,0,0
76643.15,211.018,-1204.62,0,0
76903.475,210.771,-1200.34,0,0
77163.8,210.556,-1196.02,0,0
77424.125,210.368,-1191.79,0,0
77684.45,210.206,-1187.68,0,0
77944.775,210.054,-1183.64,0,0
78205.1,209.874,-1179.75,0,0
78465.425,209.581,-1175.87,0,0
78725.75,209.311,-1172.12,0,0
78986.075,208.977,-1168.35,0,0
79246.4,208.509,-1164.65,0,0
79506.725,208.096,-1160.97,0,0
79767.05,207.678,-1157.37,0,0
80027.375,207.132,-1153.72,0,0
80287.7,206.42,-1150.21,0,0
80548.025,205.71,-1146.66,0,0
80808.35,204.979,-1142.98,0,0
81068.675,204.252,-1139.42,0,0
81329.0,203.476,-1135.79,0,0
81589.325,202.594,-1132.18,0,0
81849.65,201.762,-1128.45,0,0
82109.975,200.909,-1124.8,0,0
82370.3,200.043,-1121.07,0,0
82630.625,199.172,-1117.33,0,0
82890.95,198.235,-1113.6,0,0
83151.275,197.288,-1109.84,0,0
83411.6,196.333,-1106.03,0,0
83671.925,195.399,-1102.07,0,0
83932.25,194.513,-1098.21,0,0
84192.575,193.577,-1094.14,0,0
84452.9,192.727,-1089.96,0,0
84713.225,192.074,-1085.82,0,0
84973.55,191.47,-1081.77,0,0
85233.875,190.957,-1077.53,0,0
85494.2,190.521,-1073.55,0,0
85754.525,190.228,-1069.6,0,0
86014.85,189.925,-1065.65,0,0
86275.175,189.63,-1061.82,0,0
86535.5,189.383,-1057.92,0,0
86795.825,189.182,-1054.17,0,0
87056.15,188.984,-1050.59,0,0
87316.475,188.753,-1047.06,0,0
87576.8,188.371,-1043.35,0,0
87837.125,187.952,-1039.85,0,0
88097.45,187.601,-1036.22,0,0
88357.775,187.326,-1032.5,0,0
88618.1,187.085,-1028.86,0,0
88878.425,186.884,-1025,0,0
89138.75,186.866,-1021.33,0,0
89399.075,186.891,-1017.98,0,0
89659.4,187.063,-1014.3,0,0
89919.725,187.148,-1010.98,0,0
90180,187.2,-1007.73,0,0
90440.4,187.309,-1004.53,0,0
90700.7,187.586,-1001.77,0,0
90961,187.418,-998.98,0,0
91221.3,187.093,-996.147,0,0
91481.7,186.528,-993.222,0,0
91742,186.048,-990.133,0,0
92002.3,185.5,-986.928,0,0
92262.6,185.06,-983.691,0,0
92523,184.678,-980.182,0,0
92783.3,184.726,-976.852,0,0
93043.6,184.459,-973.937,0,0
93303.9,184.16,-970.724,0,0
93564.3,183.719,-967.569,0,0
93824.6,183.468,-964.052,0,0
94084.9,183.194,-960.5,0,0
94345.2,183.252,-956.799,0,0
94605.6,183.904,-953.197,0,0
94865.9,184.558,-950.189,0,0
95126.2,185.013,-947.357,0,0
95386.5,185.319,-944.684,0,0
95646.9,185.721,-941.906,0,0
95907.2,186.131,-939.402,0,0
96167.5,186.438,-937.008,0,0
96427.8,186.713,-934.643,0,0
96688.2,186.798,-932.589,0,0
96948.5,186.449,-930.612,0,0
97208.8,185.879,-928.207,0,0
97469.1,185.325,-925.689,0,0
97729.5,184.674,-922.824,0,0
97989.8,184.318,-919.71,0,0
98250.1,184.101,-916.636,0,0
98510.4,184.069,-913.161,0,0
98770.8,184.778,-909.623,0,0
99031.1,186.048,-906.629,0,0
99291.4,187.531,-904.263,0,0
99551.7,188.887,-902.761,0,0
99812.1,189.683,-901.68,0,0
100072,190.008,-900.711,0,0
100333,189.944,-899.594,0,0
100593,189.954,-898.711,0,0
100853,189.328,-897.96,0,0
101114,188.099,-896.968,0,0
101374,186.692,-895.376,0,0
101634,185.475,-893.364,0,0
101895,184.593,-891.163,0,0
102155,183.883,-889.209,0,0
102415,183.252,-887.241,0,0
102676,182.705,-885.488,0,0
102936,182.082,-884.082,0,0
103196,181.176,-882.896,0,0
103457,179.743,-881.657,0,0
103717,178.128,-880.323,0,0
103977,176.397,-878.862,0,0
104238,174.187,-877.444,0,0
104498,171.568,-875.575,0,0
104758,169,-873.339,0,0
105019,166.112,-870.796,0,0
105279,163.111,-867.652,0,0
105539,160.514,-863.954,0,0
105800,158.062,-860.006,0,0
106060,155.714,-855.586,0,0
106320.175,153.94,-850.724,0,0
106580.5,152.7,-845.947,0,0
106840.825,151.865,-841.069,0,0
107101.15,151.489,-836.403,0,0
107361.475,151.319,-831.98,0,0
107621.8,151.19,-827.425,0,0
107882.125,151.586,-822.962,0,0
108142.45,152.318,-818.882,0,0
108402.775,153.044,-815.179,0,0
108663.1,153.695,-811.793,0,0
108923.425,154.24,-808.486,0,0
109183.75,154.665,-805.214,0,0
109444.075,155.141,-802.108,0,0
109704.4,155.498,-798.745,0,0
109964.725,156.097,-795.636,0,0
110225.05,156.636,-792.621,0,0
110485.375,157.041,-789.532,0,0
110745.7,157.424,-786.327,0,0
111006.025,158.036,-783.028,0,0
111266.35,159.107,-780.06,0,0
111526.675,159.906,-777.2,0,0
111787.0,160.757,-774.385,0,0
112047.325,161.405,-771.554,0,0
112307.65,162.481,-768.784,0,0
112567.975,163.377,-766.154,0,0
112828.3,164.248,-763.586,0,0
113088.625,165.355,-761.029,0,0
113348.95,166.459,-758.673,0,0
113609.275,167.459,-756.39,0,0
113869.6,168.52,-754.235,0,0
114129.925,169.697,-752.212,0,0
114390.25,170.58,-750.451,0,0
114650.575,171.3,-748.518,0,0
114910.9,172.119,-746.582,0,0
115171.225,173.084,-744.814,0,0
115431.55,173.637,-743.133,0,0
115691.875,174.298,-741.021,0,0
115952.2,175.386,-739.157,0,0
116212.525,176.618,-737.574,0,0
116472.85,177.772,-736.415,0,0
116733.175,178.536,-735.662,0,0
116993.5,178.849,-734.849,0,0
117253.825,179.089,-733.906,0,0
117514.15,179.043,-733.122,0,0
117774.475,178.604,-732.22,0,0
118034.8,177.846,-730.966,0,0
118295.125,176.969,-729.245,0,0
118555.45,176.257,-727.011,0,0
118815.775,176.048,-724.604,0,0
119076.1,175.993,-722.267,0,0
119336.425,176.138,-719.715,0,0
119596.75,176.585,-717.247,0,0
119857.075,177.089,-714.822,0,0
120117.4,178.176,-712.094,0,0
120377.725,179.976,-709.789,0,0
120638.05,182.123,-708.511,0,0
120898.375,183.906,-707.972,0,0
121158.7,185.341,-707.997,0,0
121419.025,186.15,-708.561,0,0
121679.35,186.08,-709.238,0,0
121939.675,185.163,-709.662,0,0
122200.0,183.751,-709.371,0,0
122460,182.343,-708.308,0,0
122721,181.275,-707.074,0,0
122981,180.43,-705.711,0,0
123241,179.554,-704.32,0,0
123502,178.724,-702.867,0,0
123762,178.105,-701.213,0,0
124022,177.461,-699.744,0,0
124283,176.838,-698.402,0,0
124543,176.071,-697.029,0,0
124803,175.129,-695.535,0,0
125064,174.273,-693.761,0,0
125324,173.436,-692.104,0,0
125584,172.653,-690.292,0,0
125845,171.925,-688.466,0,0
126105,171.212,-686.68,0,0
126365,170.388,-684.9,0,0
126626,169.579,-682.924,0,0
126886,168.719,-680.723,0,0
127146,167.799,-678.614,0,0
127406,167.103,-676.3,0,0
127667,166.621,-673.74,0,0
127927,166.311,-671.099,0,0
128187,166.175,-668.507,0,0
128448,166.366,-665.941,0,0
128708,166.785,-663.576,0,0
128968,167.307,-661.53,0,0
129229,167.786,-659.696,0,0
129489,168.249,-658.041,0,0
129749,168.65,-656.639,0,0
130010,168.838,-655.298,0,0
130270,168.933,-654.015,0,0
130530,168.925,-652.716,0,0
130791,168.719,-651.499,0,0
131051,168.543,-650.222,0,0
131311,168.296,-648.892,0,0
131572,168.021,-647.615,0,0
131832,167.696,-646.332,0,0
132092,167.249,-645.158,0,0
132353,166.745,-643.879,0,0
132613,166.179,-642.572,0,0
132873,165.592,-641.357,0,0
133134,164.897,-640.122,0,0
133394,164.039,-638.839,0,0
133654,163.086,-637.49,0,0
133915,162.021,-635.894,0,0
134175,160.884,-634.377,0,0
134435,159.729,-632.572,0,0
134696,158.679,-630.631,0,0
134956,157.609,-628.693,0,0
135216,156.642,-626.736,0,0
135477,155.554,-624.662,0,0
135737,154.469,-622.443,0,0
135997,153.374,-620.065,0,0
136258,152.482,-617.694,0,0
136518,151.663,-615.239,0,0
136778,150.904,-612.768,0,0
137039,150.096,-610.246,0,0
137299,149.394,-607.654,0,0
137559,148.773,-605.001,0,0
137819,148.201,-602.438,0,0
138080,147.663,-599.761,0,0
138340.125,147.189,-597.083,0,0
138600.45,146.805,-594.334,0,0
138860.775,146.51,-591.612,0,0
139121.1,146.272,-588.886,0,0
139381.425,146.056,-586.129,0,0
139641.75,145.926,-583.427,0,0
139902.075,145.878,-580.585,0,0
140162.4,145.951,-577.889,0,0
140422.725,145.94,-575.248,0,0
140683.05,146,-572.515,0,0
140943.375,146.138,-569.705,0,0
141203.7,146.497,-566.958,0,0
141464.025,146.913,-564.393,0,0
141724.35,147.361,-561.957,0,0
141984.675,147.676,-559.581,0,0
142245.0,148.021,-557.191,0,0
142505.325,148.275,-554.833,0,0
142765.65,148.566,-552.441,0,0
143025.975,148.775,-550.01,0,0
143286.3,149.078,-547.453,0,0
143546.625,149.49,-544.895,0,0
143806.95,149.994,-542.342,0,0
144067.275,150.688,-539.757,0,0
144327.6,151.494,-537.35,0,0
144587.925,152.409,-535.122,0,0
144848.25,153.289,-533.007,0,0
145108.575,154.215,-531.081,0,0
145368.9,155.044,-529.341,0,0
145629.225,155.768,-527.766,0,0
145889.55,156.244,-526.284,0,0
146149.875,156.525,-524.753,0,0
146410.2,156.68,-523.138,0,0
146670.525,156.772,-521.408,0,0
146930.85,156.843,-519.628,0,0
147191.175,156.915,-517.875,0,0
147451.5,156.872,-516.116,0,0
147711.825,156.662,-514.273,0,0
147972.15,156.39,-512.234,0,0
148232.475,156.173,-510.037,0,0
148492.8,156.018,-507.777,0,0
148753.125,155.871,-505.473,0,0
149013.45,155.723,-503.056,0,0
149273.775,155.561,-500.566,0,0
149534.1,155.461,-497.938,0,0
149794.425,155.438,-495.153,0,0
150054.75,155.576,-492.365,0,0
150315.075,155.725,-489.535,0,0
150575.4,155.891,-486.629,0,0
150835.725,156.141,-483.553,0,0
151096.05,156.488,-480.301,0,0
151356.375,157.127,-476.895,0,0
151616.7,158.071,-473.475,0,0
151877.025,159.29,-470.032,0,0
152137.35,160.842,-466.645,0,0
152397.675,162.884,-463.445,0,0
152658.0,165.179,-460.602,0,0
152918.325,167.651,-458.399,0,0
153178.65,169.91,-456.711,0,0
153438.975,171.866,-455.225,0,0
153699.3,173.67,-453.893,0,0
153959.625,175.201,-452.826,0,0
154219.95,176.319,-451.861,0,0
154480,176.9,-450.59,0,0
154741,177.411,-448.866,0,0
155001,178.075,-446.925,0,0
155261,178.943,-444.771,0,0
155522,179.956,-442.471,0,0
155782,181.426,-440.217,0,0
156042,182.927,-438.077,0,0
156303,184.797,-435.944,0,0
156563,186.931,-434.161,0,0
156823,189.151,-432.926,0,0
157084,191.183,-432.115,0,0
157344,192.897,-431.612,0,0
157604,194.19,-431.332,0,0
157864,195.157,-430.92,0,0
158125,195.838,-430.477,0,0
158385,196.352,-429.823,0,0
158645,196.806,-429.019,0,0
158906,197.133,-428.249,0,0
159166,197.421,-427.329,0,0
159426,197.431,-426.295,0,0
159687,197.463,-424.911,0,0
159947,197.808,-423.481,0,0
160207,198.132,-422.044,0,0
160468,198.498,-420.698,0,0
160728,198.797,-419.379,0,0
160988,199.036,-417.892,0,0
161249,199.369,-416.427,0,0
161509,199.665,-414.953,0,0
161769,199.925,-413.564,0,0
162030,200.112,-412.124,0,0
162290,200.138,-410.668,0,0
162550,200.189,-409.105,0,0
162811,200.131,-407.408,0,0
163071,200.138,-405.538,0,0
163331,200.286,-403.585,0,0
163592,200.555,-401.726,0,0
163852,200.736,-400.01,0,0
164112,200.738,-398.211,0,0
164373,200.629,-396.267,0,0
164633,200.469,-394.153,0,0
164893,200.376,-391.859,0,0
165154,200.332,-389.342,0,0
165414,200.522,-386.67,0,0
165674,200.867,-383.973,0,0
165935,201.449,-381.283,0,0
166195,202.116,-378.596,0,0
166455,202.878,-376.075,0,0
166716,203.715,-373.64,0,0
166976,204.559,-371.312,0,0
167236,205.28,-369.02,0,0
167497,205.899,-366.645,0,0
167757,206.557,-364.149,0,0
168017,207.298,-361.591,0,0
168277,208.182,-359.078,0,0
168538,209.049,-356.532,0,0
168798,209.929,-354.029,0,0
169058,210.894,-351.476,0,0
169319,211.983,-348.941,0,0
169579,213.11,-346.529,0,0
169839,214.147,-344.201,0,0
170100,215.066,-341.813,0,0
170360.075,215.99,-339.392,0,0
170620.4,217.002,-336.935,0,0
170880.725,217.985,-334.5,0,0
171141.05,218.975,-331.995,0,0
171401.375,219.928,-329.472,0,0
171661.7,220.898,-326.897,0,0
171922.025,221.933,-324.201,0,0
172182.35,223.043,-321.555,0,0
172442.675,224.135,-318.938,0,0
172703.0,225.192,-316.282,0,0
172963.325,226.331,-313.632,0,0
173223.65,227.474,-310.93,0,0
173483.975,228.543,-308.218,0,0
173744.3,229.641,-305.56,0,0
174004.625,230.629,-302.767,0,0
174264.95,231.551,-299.887,0,0
174525.275,232.514,-296.833,0,0
174785.6,233.543,-293.582,0,0
175045.925,234.591,-290.251,0,0
175306.25,235.774,-286.795,0,0
175566.575,237.073,-283.255,0,0
175826.9,238.471,-279.664,0,0
176087.225,239.881,-275.987,0,0
176347.55,241.488,-272.156,0,0
176607.875,243.167,-268.224,0,0
176868.2,245.027,-264.243,0,0
177128.525,247.084,-260.2,0,0
177388.85,249.247,-256.101,0,0
177649.175,251.55,-251.986,0,0
177909.5,254.02,-247.81,0,0
178169.825,256.614,-243.598,0,0
178430.15,259.372,-239.272,0,0
178690.475,262.395,-234.915,0,0
178950.8,265.66,-230.519,0,0
179211.125,269.222,-226.134,0,0
179471.45,273.074,-221.86,0,0
179731.775,277.203,-217.671,0,0
179992.1,281.608,-213.754,0,0
180252.425,286.052,-209.988,0,0
180512.75,290.689,-206.427,0,0
180773.075,295.422,-203.089,0,0
181033.4,300.234,-199.883,0,0
181293.725,305.081,-196.904,0,0
181554.05,309.996,-194.019,0,0
181814.375,315.034,-191.168,0,0
182074.7,320.245,-188.57,0,0
182335.025,325.493,-186.355,0,0
182595.35,330.658,-184.396,0,0
182855.675,335.61,-182.588,0,0
183116.0,340.411,-180.835,0,0
183376.325,345.117,-179.077,0,0
183636.65,349.894,-177.288,0,0
183896.975,354.685,-175.516,0,0
184157.3,359.637,-173.817,0,0
184417.625,364.605,-172.38,0,0
184677.95,369.606,-171.19,0,0
184938.275,374.443,-170.206,0,0
185198.6,378.996,-169.412,0,0
185458.925,383.351,-168.618,0,0
185719.25,387.505,-167.942,0,0
185979.575,391.419,-167.298,0,0
186239.9,394.84,-166.469,0,0
186500,398.328,-165.582,0,0
186761,401.366,-164.522,0,0
187021,404.082,-163.161,0,0
187281,406.518,-161.319,0,0
187542,408.816,-159.018,0,0
187802,411.117,-155.997,0,0
188062,413.731,-152.355,0,0
188322,416.622,-148.288,0,0
188583,419.932,-143.814,0,0
188843,423.564,-138.959,0,0
189103,427.479,-133.685,0,0
189364,432.023,-127.916,0,0
189624,437.169,-121.831,0,0
189884,443.002,-115.456,0,0
190145,449.588,-108.81,0,0
190405,457.037,-102.087,0,0
190665,465.525,-95.3091,0,0
190926,474.909,-88.8638,0,0
191186,485.106,-82.862,0,0
191446,496.162,-77.2896,0,0
191707,507.986,-72.2186,0,0
191967,520.158,-67.974,0,0
192227,532.821,-64.3669,0,0
192488,545.638,-61.5872,0,0
192748,558.47,-59.0903,0,0
193008,571.519,-56.8754,0,0
193269,584.864,-54.6737,0,0
193529,598.96,-52.8489,0,0
193789,613.606,-51.4427,0,0
194050,628.98,-50.623,0,0
194310,644.928,-50.7547,0,0
194570,661.345,-51.6873,0,0
194831,678.24,-53.6147,0,0
195091,695.259,-56.6652,0,0
195351,712.266,-61.0057,0,0
195612,728.943,-66.1114,0,0
195872,745.413,-72.0528,0,0
196132,761.604,-78.6361,0,0
196393,777.859,-85.8005,0,0
196653,794.004,-93.8314,0,0
196913,809.882,-102.822,0,0
197174,825.53,-112.626,0,0
197434,840.894,-123.153,0,0
197694,855.254,-134.475,0,0
197955,869.374,-145.924,0,0
198215,883.219,-157.652,0,0
198475,897.043,-169.881,0,0
198735,910.938,-182.842,0,0
198996,924.467,-196.561,0,0
199256,937.993,-211.049,0,0
199516,950.75,-226.606,0,0
199777,963.39,-242.647,0,0
200037,975.279,-259.645,0,0
200297,986.388,-277.02,0,0
200558,997.215,-295.625,0,0
200818,1007.6,-314.24,0,0
201078,1017.5,-334.026,0,0
201339,1026.68,-354.837,0,0
201599,1035.66,-376.954,0,0
201859,1042.77,-399.649,0,0
202120,1049.22,-423.733,0,0
202380.025,1053.46,-449.317,0,0
202640.35,1055.8,-475.165,0,0
202900.675,1055.94,-501.004,0,0
203161.0,1054.13,-526.378,0,0
203421.325,1050.25,-551.366,0,0
203681.65,1045.4,-575.001,0,0
203941.975,1038.79,-598.256,0,0
204202.3,1031.69,-620.623,0,0
204462.625,1023.01,-642.024,0,0
204722.95,1013.71,-662.727,0,0
204983.275,1003.6,-682.311,0,0
205243.6,992.724,-701.806,0,0
205503.925,980.947,-719.917,0,0
205764.25,968.372,-737.205,0,0
206024.575,955.551,-753.417,0,0
206284.9,941.721,-768.535,0,0
206545.225,927.879,-782.683,0,0
206805.55,913.387,-795.473,0,0
207065.875,899.463,-807.522,0,0
207326.2,885.167,-818.317,0,0
207586.525,870.929,-828.614,0,0
207846.85,856.574,-837.874,0,0
208107.175,842.537,-846.178,0,0
208367.5,828.695,-853.848,0,0
208627.825,815.42,-860.807,0,0
208888.15,802.304,-867.217,0,0
209148.475,789.403,-872.99,0,0
209408.8,777.005,-878.463,0,0
209669.125,765.198,-883.688,0,0
209929.45,753.749,-888.847,0,0
210189.775,742.323,-893.808,0,0
210450.1,731.433,-899.108,0,0
210710.425,720.511,-904.196,0,0
210970.75,709.693,-909.663,0,0
211231.075,698.49,-915.224,0,0
211491.4,686.798,-921.035,0,0
211751.725,674.593,-926.594,0,0
212012.05,661.499,-931.797,0,0
212272.375,647.92,-936.259,0,0
212532.7,633.882,-939.854,0,0
212793.025,619.646,-942.464,0,0
213053.35,605.334,-944.172,0,0
213313.675,591.718,-945.044,0,0
213574.0,578.183,-945.288,0,0
213834.325,565.084,-944.756,0,0
214094.65,552.372,-943.815,0,0
214354.975,539.804,-942.439,0,0
214615.3,527.771,-940.661,0,0
214875.625,515.835,-938.503,0,0
215135.95,504.698,-935.662,0,0
215396.275,494.077,-932.667,0,0
215656.6,483.787,-929.894,0,0
215916.925,473.921,-925.803,0,0
216177.25,464.631,-922.688,0,0
216437.575,455.18,-919.18,0,0
216697.9,446.324,-915.593,0,0
216958.225,437.963,-911.662,0,0
217218.55,429.882,-907.862,0,0
217478.875,421.806,-904.06,0,0
217739.2,414.183,-900.136,0,0
217999.525,406.755,-896.19,0,0
218259.85,399.542,-892.052,0,0
218520,392.71,-888.058,0,0
218780,385.871,-883.926,0,0
219041,379.392,-879.833,0,0
219301,373.017,-875.511,0,0
219561,366.906,-871.341,0,0
219822,361.063,-867.015,0,0
220082,355.442,-862.761,0,0
220342,349.881,-858.459,0,0
220603,344.514,-854.236,0,0
220863,339.363,-849.957,0,0
221123,334.371,-845.592,0,0
221384,329.53,-841.265,0,0
221644,324.728,-837.025,0,0
221904,320.197,-832.424,0,0
222165,315.744,-827.905,0,0
222425,311.34,-823.535,0,0
222685,307.329,-818.785,0,0
222946,303.363,-814.296,0,0
223206,299.567,-809.536,0,0
223466,296.045,-804.943,0,0
223727,292.852,-800.15,0,0
223987,289.675,-795.353,0,0
224247,286.775,-790.857,0,0
224508,284.039,-785.843,0,0
224768,281.56,-781.131,0,0
225028,279.459,-776.192,0,0
225289,277.59,-771.643,0,0
225549,275.866,-766.965,0,0
225809,274.669,-762.575,0,0
226070,273.604,-758.222,0,0
226330,272.84,-754.063,0,0
226590,272.282,-750.119,0,0
226851,271.955,-746.638,0,0
227111,271.79,-743.305,0,0
227371,271.779,-740.222,0,0
227632,271.779,-737.598,0,0
227892,271.793,-735.417,0,0
228152,271.637,-733.477,0,0
228413,271.398,-731.696,0,0
228673,270.874,-730.505,0,0
228933,270.288,-729.237,0,0
229193,269.297,-728.125,0,0
229454,268.126,-727.259,0,0
229714,266.615,-726.177,0,0
229974,264.8,-725.283,0,0
230235,263.032,-724.043,0,0
230495,260.875,-722.923,0,0
230755,258.813,-721.473,0,0
231016,256.518,-719.95,0,0
231276,254.178,-718.255,0,0
231536,251.84,-716.47,0,0
231797,249.542,-714.433,0,0
232057,247.168,-712.251,0,0
232317,244.991,-709.915,0,0
232578,242.612,-707.506,0,0
232838,240.467,-704.991,0,0
233098,238.534,-702.452,0,0
233359,236.541,-699.689,0,0
233619,234.636,-696.92,0,0
233879,232.923,-694.029,0,0
234140,231.348,-691.159,0,0
234400,229.803,-688.241,0,0
234660.3,228.501,-685.333,0,0
234920.625,227.327,-682.382,0,0
235180.95,225.991,-679.317,0,0
235441.275,225.059,-676.564,0,0
235701.6,224.199,-673.57,0,0
235961.925,223.276,-670.704,0,0
236222.25,222.499,-667.832,0,0
236482.575,221.843,-665.036,0,0
236742.9,221.222,-662.263,0,0
237003.225,220.603,-659.498,0,0
237263.55,220.166,-656.721,0,0
237523.875,219.722,-653.944,0,0
237784.2,219.364,-651.358,0,0
238044.525,219.027,-648.649,0,0
238304.85,218.789,-646.021,0,0
238565.175,218.674,-643.438,0,0
238825.5,218.482,-640.855,0,0
239085.825,218.467,-638.384,0,0
239346.15,218.42,-635.884,0,0
239606.475,218.463,-633.407,0,0
239866.8,218.606,-630.946,0,0
240127.125,218.603,-628.684,0,0
240387.45,218.863,-626.222,0,0
240647.775,219.006,-623.897,0,0
240908.1,219.237,-621.666,0,0
241168.425,219.476,-619.387,0,0
241428.75,219.798,-617.185,0,0
241689.075,220.079,-614.889,0,0
241949.4,220.504,-612.693,0,0
242209.725,220.943,-610.459,0,0
242470.05,221.398,-608.309,0,0
242730.375,221.951,-606.066,0,0
242990.7,222.526,-603.894,0,0
243251.025,223.206,-601.732,0,0
243511.35,223.949,-599.597,0,0
243771.675,224.68,-597.522,0,0
244032.0,225.509,-595.437,0,0
244292.325,226.452,-593.382,0,0
244552.65,227.362,-591.41,0,0
244812.975,228.41,-589.342,0,0
245073.3,229.547,-587.454,0,0
245333.625,230.725,-585.419,0,0
245593.95,231.883,-583.521,0,0
245854.275,233.277,-581.525,0,0
246114.6,234.646,-579.613,0,0
246374.925,236.173,-577.741,0,0
246635.25,237.861,-575.878,0,0
246895.575,239.674,-574.093,0,0
247155.9,241.596,-572.398,0,0
247416.225,243.66,-570.784,0,0
247676.55,246.089,-569.368,0,0
247936.875,248.525,-568.016,0,0
248197.2,250.991,-567.035,0,0
248457.525,253.654,-566.238,0,0
248717.85,256.218,-565.607,0,0
248978.175,258.839,-565.174,0,0
249238.5,261.287,-564.979,0,0
249498.825,263.8,-565.106,0,0
249759.15,266.214,-565.14,0,0
250019.475,268.507,-565.231,0,0
250279.8,270.74,-565.543,0,0
250540,272.844,-565.735,0,0
250800,275.041,-565.77,0,0
251061,277.368,-565.91,0,0
251321,279.809,-566.114,0,0
251581,282.555,-566.333,0,0
251842,285.364,-566.889,0,0
252102,288.446,-567.641,0,0
252362,291.565,-568.653,0,0
252623,294.826,-570.07,0,0
252883,298.072,-571.891,0,0
253143,301.148,-574.094,0,0
253404,304.395,-576.66,0,0
253664,307.224,-579.589,0,0
253924,309.964,-582.895,0,0
254185,312.489,-586.556,0,0
254445,314.627,-590.48,0,0
254705,316.281,-594.699,0,0
254966,317.765,-599.249,0,0
255226,318.628,-603.771,0,0
255486,319.212,-608.363,0,0
255747,319.437,-613.12,0,0
256007,319.171,-617.819,0,0
256267,318.535,-622.472,0,0
256528,317.558,-627.097,0,0
256788,316.212,-631.572,0,0
257048,314.616,-635.967,0,0
257309,312.668,-640.155,0,0
257569,310.425,-644.223,0,0
257829,308.018,-648.103,0,0
258090,305.385,-651.676,0,0
258350,302.55,-655.179,0,0
258610,299.585,-658.506,0,0
258871,296.33,-661.518,0,0
259131,292.958,-664.439,0,0
259391,289.705,-666.985,0,0
259651,286.038,-669.438,0,0
259912,282.404,-671.797,0,0
260172,278.717,-673.787,0,0
260432,274.978,-675.663,0,0
260693,271.086,-677.256,0,0
260953,267.174,-678.721,0,0
261213,263.234,-679.845,0,0
261474,259.401,-680.753,0,0
261734,255.436,-681.542,0,0
261994,251.635,-682.088,0,0
262255,247.807,-682.456,0,0
262515,244.179,-682.722,0,0
262775,240.585,-682.83,0,0
263036,236.95,-682.714,0,0
263296,233.528,-682.59,0,0
263556,230.161,-682.331,0,0
263817,226.798,-682.026,0,0
264077,223.623,-681.623,0,0
264337,220.391,-681.086,0,0
264598,217.257,-680.519,0,0
264858,214.095,-680.03,0,0
265118,210.988,-679.067,0,0
265379,208.04,-678.461,0,0
265639,205.185,-677.583,0,0
265899,202.46,-676.572,0,0
266160,199.68,-675.648,0,0
266420,197.136,-674.567,0,0
266680.25,194.335,-673.539,0,0
266940.575,191.793,-672.463,0,0
267200.9,189.276,-671.37,0,0
267461.225,186.866,-670.233,0,0
267721.55,184.571,-669.026,0,0
267981.875,182.139,-667.845,0,0
268242.2,179.898,-666.622,0,0
268502.525,177.757,-665.419,0,0
268762.85,175.509,-664.152,0,0
269023.175,173.482,-662.896,0,0
269283.5,171.452,-661.612,0,0
269543.825,169.433,-660.333,0,0
269804.15,167.411,-658.918,0,0
270064.475,165.473,-657.746,0,0
270324.8,163.565,-656.334,0,0
270585.125,161.631,-655.008,0,0
270845.45,159.763,-653.731,0,0
271105.775,158.017,-652.485,0,0
271366.1,156.164,-651.046,0,0
271626.425,154.462,-649.714,0,0
271886.75,152.729,-648.348,0,0
272147.075,151.019,-646.9,0,0
272407.4,149.41,-645.615,0,0
272667.725,147.716,-644.193,0,0
272928.05,146.106,-642.728,0,0
273188.375,144.581,-641.35,0,0
273448.7,143.009,-639.907,0,0
273709.025,141.471,-638.446,0,0
273969.35,139.963,-636.982,0,0
274229.675,138.506,-635.522,0,0
274490.0,137.021,-634.097,0,0
274750.325,135.603,-632.565,0,0
275010.65,134.156,-631.14,0,0
275270.975,132.994,-629.608,0,0
275531.3,131.582,-628.031,0,0
275791.625,130.338,-626.57,0,0
276051.95,129.089,-625.069,0,0
276312.275,127.823,-623.487,0,0
276572.6,126.668,-621.972,0,0
276832.925,125.501,-620.463,0,0
277093.25,124.352,-618.903,0,0
277353.575,123.243,-617.411,0,0
277613.9,122.182,-615.847,0,0
277874.225,121.087,-614.307,0,0
278134.55,120.076,-612.762,0,0
278394.875,119.051,-611.217,0,0
278655.2,118.052,-609.657,0,0
278915.525,117.13,-608.049,0,0
279175.85,116.21,-606.485,0,0
279436.175,115.314,-604.908,0,0
279696.5,114.461,-603.262,0,0
279956.825,113.754,-601.666,0,0
280217.15,113.062,-600.059,0,0
280477.475,112.508,-598.415,0,0
280737.8,111.803,-596.876,0,0
280998.125,111.323,-595.392,0,0
281258.45,110.866,-593.918,0,0
281518.775,110.397,-592.54,0,0
281779.1,109.954,-591.213,0,0
282039.425,109.473,-589.932,0,0
282299.75,108.976,-588.676,0,0
282560,108.441,-587.457,0,0
282820,107.908,-586.24,0,0
283081,107.379,-584.994,0,0
283341,106.837,-583.763,0,0
283601,106.31,-582.498,0,0
283862,105.797,-581.242,0,0
284122,105.342,-579.95,0,0
284382,104.869,-578.793,0,0
284643,104.425,-577.496,0,0
284903,104.035,-576.268,0,0
285163,103.649,-575.019,0,0
285424,103.287,-573.847,0,0
285684,102.935,-572.689,0,0
285944,102.675,-571.597,0,0
286205,102.378,-570.483,0,0
286465,102.065,-569.458,0,0
286725,101.744,-568.488,0,0
286986,101.409,-567.532,0,0
287246,100.999,-566.609,0,0
287506,100.567,-565.668,0,0
287767,100.09,-564.692,0,0
288027,99.6164,-563.707,0,0
288287,99.1831,-562.697,0,0
288548,98.7256,-561.663,0,0
288808,98.2939,-560.624,0,0
289068,97.8544,-559.609,0,0
289329,97.5292,-558.567,0,0
289589,97.1297,-557.542,0,0
289849,96.8043,-556.554,0,0
290109,96.4594,-555.541,0,0
290370,96.1354,-554.568,0,0
290630,95.824,-553.586,0,0
290890,95.5107,-552.619,0,0
291151,95.2044,-551.69,0,0
291411,94.9067,-550.756,0,0
291671,94.6189,-549.865,0,0
291932,94.326,-548.977,0,0
292192,94.0698,-548.091,0,0
292452,93.779,-547.247,0,0
292713,93.4744,-546.439,0,0
292973,93.1963,-545.663,0,0
293233,92.8694,-544.881,0,0
293494,92.5559,-544.131,0,0
293754,92.1923,-543.396,0,0
294014,91.8074,-542.696,0,0
294275,91.3765,-542.032,0,0
294535,90.9348,-541.268,0,0
294795,90.4452,-540.58,0,0
295056,89.9428,-539.82,0,0
295316,89.3637,-539.097,0,0
295576,88.7846,-538.279,0,0
295837,88.1779,-537.462,0,0
296097,87.5712,-536.629,0,0
296357,86.9776,-535.718,0,0
296618,86.3605,-534.792,0,0
296878,85.7576,-533.792,0,0
297138,85.1799,-532.733,0,0
297399,84.6033,-531.668,0,0
297659,84.069,-530.535,0,0
297919,83.5968,-529.366,0,0
298180,83.1997,-528.182,0,0
298440,82.8462,-526.95,0,0
298700.2,82.5674,-525.674,0,0
298960.525,82.379,-524.574,0,0
299220.85,82.2445,-523.42,0,0
299481.175,82.1204,-522.339,0,0
299741.5,82.0959,-521.35,0,0
300001.825,82.0454,-520.302,0,0
300262.15,82.0012,-519.341,0,0
300522.475,81.922,-518.516,0,0
300782.8,81.8265,-517.637,0,0
301043.125,81.8045,-516.753,0,0
301303.45,81.6562,-515.973,0,0
301563.775,81.6065,-515.225,0,0
301824.1,81.4448,-514.412,0,0
302084.425,81.3183,-513.712,0,0
302344.75,81.1198,-512.876,0,0
302605.075,80.9882,-512.118,0,0
302865.4,80.8315,-511.429,0,0
303125.725,80.617,-510.664,0,0
303386.05,80.3909,-509.839,0,0
303646.375,80.1797,-509.068,0,0
303906.7,80.0124,-508.337,0,0
304167.025,79.8043,-507.505,0,0
304427.35,79.5648,-506.675,0,0
304687.675,79.3946,-505.819,0,0
304948.0,79.2614,-505.04,0,0
305208.325,79.1197,-504.152,0,0
305468.65,79.1269,-503.317,0,0
305728.975,78.9906,-502.472,0,0
305989.3,79.0079,-501.619,0,0
306249.625,79.0617,-500.868,0,0
306509.95,79.097,-500.223,0,0
306770.275,79.1894,-499.549,0,0
307030.6,79.1651,-498.976,0,0
307290.925,79.2062,-498.481,0,0
307551.25,79.1151,-497.964,0,0
307811.575,79.1004,-497.494,0,0
308071.9,78.9847,-497.011,0,0
308332.225,78.7746,-496.513,0,0
308592.55,78.6593,-496.061,0,0
308852.875,78.4408,-495.586,0,0
309113.2,78.1885,-495.061,0,0
309373.525,78.02,-494.534,0,0
309633.85,77.7492,-493.994,0,0
309894.175,77.4763,-493.43,0,0
310154.5,77.2259,-492.942,0,0
310414.825,76.9407,-492.444,0,0
310675.15,76.6979,-491.882,0,0
310935.475,76.4167,-491.351,0,0
311195.8,76.1799,-490.84,0,0
311456.125,75.8749,-490.265,0,0
311716.45,75.6155,-489.801,0,0
311976.775,75.3138,-489.259,0,0
312237.1,74.9255,-488.655,0,0
312497.425,74.6641,-488.145,0,0
312757.75,74.2761,-487.538,0,0
313018.075,73.986,-486.997,0,0
313278.4,73.576,-486.341,0,0
313538.725,73.3297,-485.798,0,0
313799.05,72.9142,-485.128,0,0
314059.375,72.6114,-484.486,0,0
314319.7,72.2965,-483.891,0,0
314580,71.9491,-483.264,0,0
314840,71.6387,-482.615,0,0
315101,71.3053,-481.96,0,0
315361,70.9774,-481.331,0,0
315621,70.7409,-480.719,0,0
315882,70.4534,-480.016,0,0
316142,70.1257,-479.378,0,0
316402,69.8407,-478.752,0,0
316663,69.6084,-478.13,0,0
316923,69.3449,-477.491,0,0
317183,68.9829,-476.835,0,0
317444,68.7529,-476.226,0,0
317704,68.4309,-475.587,0,0
317964,68.191,-474.938,0,0
318225,67.853,-474.317,0,0
318485,67.5468,-473.661,0,0
318745,67.2346,-473.038,0,0
319006,66.942,-472.436,0,0
319266,66.6054,-471.823,0,0
319526,66.3112,-471.155,0,0
319787,65.9812,-470.419,0,0
320047,65.6769,-469.797,0,0
320307,65.3974,-469.114,0,0
320567,65.0933,-468.463,0,0
320828,64.7447,-467.731,0,0
321088,64.4412,-467.048,0,0
321348,64.1791,-466.353,0,0
321609,63.8744,-465.577,0,0
321869,63.6461,-464.856,0,0
322129,63.3886,-464.161,0,0
322390,63.1834,-463.392,0,0
322650,62.935,-462.706,0,0
322910,62.7358,-461.99,0,0
323171,62.5154,-461.311,0,0
323431,62.3203,-460.623,0,0
323691,62.1394,-459.94,0,0
323952,61.9375,-459.294,0,0
324212,61.7161,-458.625,0,0
324472,61.518,-457.954,0,0
324733,61.2927,-457.288,0,0
324993,61.1028,-456.635,0,0
325253,60.8693,-456.012,0,0
325514,60.6478,-455.331,0,0
325774,60.4036,-454.674,0,0
326034,60.26,-454.047,0,0
326295,59.9662,-453.359,0,0
326555,59.7606,-452.648,0,0
326815,59.49,-451.972,0,0
327076,59.3166,-451.306,0,0
327336,59.1199,-450.618,0,0
327596,58.879,-449.961,0,0
327857,58.6881,-449.244,0,0
328117,58.5516,-448.562,0,0
328377,58.3035,-447.891,0,0
328638,58.1372,-447.211,0,0
328898,57.9336,-446.507,0,0
329158,57.7685,-445.807,0,0
329419,57.5704,-445.119,0,0
329679,57.3977,-444.483,0,0
329939,57.2477,-443.737,0,0
330200,57.0345,-443.127,0,0
330460,56.8682,-442.403,0,0
330720.15,56.6979,-441.717,0,0
330980.475,56.5536,-441.022,0,0
331240.8,56.3962,-440.383,0,0
331501.125,56.2191,-439.704,0,0
331761.45,56.0761,-439.012,0,0
332021.775,55.9424,-438.369,0,0
332282.1,55.7925,-437.652,0,0
332542.425,55.6037,-436.975,0,0
332802.75,55.4742,-436.258,0,0
333063.075,55.3722,-435.566,0,0
333323.4,55.245,-434.865,0,0
333583.725,55.142,-434.188,0,0
333844.05,54.9527,-433.5,0,0
334104.375,54.8868,-432.835,0,0
334364.7,54.7796,-432.132,0,0
334625.025,54.6791,-431.463,0,0
334885.35,54.5431,-430.777,0,0
335145.675,54.4984,-430.135,0,0
335406.0,54.3799,-429.45,0,0
335666.325,54.3575,-428.797,0,0
335926.65,54.2417,-428.136,0,0
336186.975,54.1665,-427.469,0,0
336447.3,54.1296,-426.864,0,0
336707.625,54.0611,-426.218,0,0
336967.95,53.9365,-425.619,0,0
337228.275,53.887,-424.927,0,0
337488.6,53.8191,-424.298,0,0
337748.925,53.7389,-423.703,0,0
338009.25,53.6574,-423.072,0,0
338269.575,53.6089,-422.426,0,0
338529.9,53.5311,-421.787,0,0
338790.225,53.4312,-421.194,0,0
339050.55,53.3735,-420.541,0,0
339310.875,53.3274,-419.942,0,0
339571.2,53.224,-419.306,0,0
339831.525,53.1675,-418.646,0,0
340091.85,53.1055,-418.047,0,0
340352.175,53.0894,-417.398,0,0
340612.5,52.9676,-416.753,0,0
340872.825,53.0066,-416.129,0,0
341133.15,52.9032,-415.499,0,0
341393.475,52.9438,-414.867,0,0
341653.8,52.9328,-414.25,0,0
341914.125,52.9001,-413.609,0,0
342174.45,52.9066,-413.055,0,0
342434.775,52.9419,-412.414,0,0
342695.1,52.9817,-411.833,0,0
342955.425,53.0423,-411.244,0,0
343215.75,53.1375,-410.675,0,0
343476.075,53.2169,-410.193,0,0
343736.4,53.2404,-409.723,0,0
343996.725,53.2426,-409.258,0,0
344257.05,53.3051,-408.877,0,0
344517.375,53.2442,-408.44,0,0
344777.7,53.1101,-408.027,0,0
345038.025,52.9804,-407.633,0,0
345298.35,52.8655,-407.161,0,0
345558.675,52.7006,-406.703,0,0
345819.0,52.5519,-406.214,0,0
346079.325,52.3681,-405.69,0,0
346339.65,52.2375,-405.115,0,0
346599.975,52.0886,-404.552,0,0
346860,51.9204,-403.976,0,0
347121,51.8203,-403.334,0,0
347381,51.6958,-402.796,0,0
347641,51.6322,-402.197,0,0
347902,51.5088,-401.634,0,0
348162,51.4027,-401.007,0,0
348422,51.365,-400.419,0,0
348683,51.3064,-399.817,0,0
348943,51.2528,-399.237,0,0
349203,51.2131,-398.607,0,0
349464,51.1433,-398.044,0,0
349724,51.1007,-397.442,0,0
349984,51.0215,-396.874,0,0
350245,51.0572,-396.291,0,0
350505,51.0062,-395.731,0,0
350765,50.9527,-395.118,0,0
351025,50.964,-394.601,0,0
351286,50.9316,-394.05,0,0
351546,50.8949,-393.482,0,0
351806,50.8869,-392.864,0,0
352067,50.8894,-392.34,0,0
352327,50.9146,-391.764,0,0
352587,50.8813,-391.214,0,0
352848,50.9199,-390.696,0,0
353108,50.9456,-390.157,0,0
353368,50.9568,-389.621,0,0
353629,50.979,-389.093,0,0
353889,50.9821,-388.628,0,0
354149,50.9832,-388.093,0,0
354410,50.9456,-387.616,0,0
354670,50.9355,-387.123,0,0
354930,50.9317,-386.619,0,0
355191,50.8814,-386.145,0,0
355451,50.8828,-385.642,0,0
355711,50.8291,-385.154,0,0
355972,50.8277,-384.649,0,0
356232,50.7558,-384.12,0,0
356492,50.7615,-383.619,0,0
356753,50.6997,-383.117,0,0
357013,50.6744,-382.554,0,0
357273,50.6522,-382.052,0,0
357534,50.6607,-381.498,0,0
357794,50.7016,-380.925,0,0
358054,50.7295,-380.482,0,0
358315,50.7635,-379.974,0,0
358575,50.7947,-379.415,0,0
358835,50.8144,-378.952,0,0
359096,50.8716,-378.504,0,0
359356,50.8958,-378.004,0,0
359616,50.9327,-377.577,0,0
359877,50.8981,-377.178,0,0
360137,50.9622,-376.743,0,0
360397,50.9454,-376.257,0,0
360658,51.0288,-375.826,0,0
360918,50.9529,-375.397,0,0
361178,50.9412,-375.022,0,0
361438,50.9027,-374.589,0,0
361699,50.8939,-374.185,0,0
361959,50.8962,-373.786,0,0
362219,50.7983,-373.357,0,0
362480,50.744,-372.945,0,0
362740.1,50.6887,-372.491,0,0
363000.425,50.6071,-371.998,0,0
363260.75,50.54,-371.58,0,0
363521.075,50.4679,-371.138,0,0
363781.4,50.4001,-370.655,0,0
364041.725,50.3708,-370.185,0,0
364302.05,50.2782,-369.706,0,0
364562.375,50.2217,-369.246,0,0
364822.7,50.1874,-368.778,0,0
365083.025,50.0612,-368.272,0,0
365343.35,50.0322,-367.781,0,0
365603.675,49.958,-367.314,0,0
365864.0,49.9644,-366.816,0,0
366124.325,49.9257,-366.301,0,0
366384.65,49.8756,-365.787,0,0
366644.975,49.8517,-365.322,0,0
366905.3,49.8144,-364.843,0,0
367165.625,49.8217,-364.369,0,0
367425.95,49.7624,-363.905,0,0
367686.275,49.7358,-363.38,0,0
367946.6,49.7409,-362.887,0,0
368206.925,49.7142,-362.459,0,0
368467.25,49.6799,-361.931,0,0
368727.575,49.683,-361.479,0,0
368987.9,49.6421,-360.977,0,0
369248.225,49.6583,-360.523,0,0
369508.55,49.6165,-359.985,0,0
369768.875,49.6062,-359.481,0,0
370029.2,49.6445,-358.986,0,0
370289.525,49.6424,-358.512,0,0
370549.85,49.6931,-358.007,0,0
370810.175,49.6978,-357.536,0,0
371070.5,49.6763,-357.043,0,0
371330.825,49.7265,-356.577,0,0
371591.15,49.7872,-356.118,0,0
371851.475,49.8241,-355.637,0,0
372111.8,49.8903,-355.171,0,0
372372.125,49.9334,-354.753,0,0
372632.45,50.006,-354.315,0,0
372892.775,50.0694,-353.887,0,0
373153.1,50.1609,-353.489,0,0
373413.425,50.2182,-353.109,0,0
373673.75,50.278,-352.767,0,0
373934.075,50.3363,-352.407,0,0
374194.4,50.4082,-352.097,0,0
374454.725,50.3919,-351.793,0,0
374715.05,50.393,-351.472,0,0
374975.375,50.325,-351.17,0,0
375235.7,50.2152,-350.867,0,0
375496.025,50.1535,-350.523,0,0
375756.35,50.0445,-350.167,0,0
376016.675,49.9234,-349.812,0,0
376277.0,49.8062,-349.421,0,0
376537.325,49.6899,-349.026,0,0
376797.65,49.5904,-348.648,0,0
377057.975,49.4738,-348.196,0,0
377318.3,49.3795,-347.768,0,0
377578.625,49.2964,-347.373,0,0
377838.95,49.1978,-346.946,0,0
378099.275,49.0801,-346.507,0,0
378359.6,48.9461,-346.072,0,0
378619.925,48.8436,-345.666,0,0
378880,48.7221,-345.18,0,0
379141,48.6153,-344.799,0,0
379401,48.5164,-344.344,0,0
379661,48.369,-343.835,0,0
379922,48.232,-343.394,0,0
380182,48.106,-342.877,0,0
380442,48.0045,-342.377,0,0
380703,47.8377,-341.852,0,0
380963,47.7284,-341.372,0,0
381223,47.6242,-340.782,0,0
381483,47.5152,-340.227,0,0
381744,47.4919,-339.674,0,0
382004,47.4356,-339.108,0,0
382264,47.4096,-338.499,0,0
382525,47.4041,-337.916,0,0
382785,47.4692,-337.365,0,0
383045,47.4924,-336.792,0,0
383306,47.6118,-336.281,0,0
383566,47.6997,-335.839,0,0
383826,47.7758,-335.405,0,0
384087,47.8223,-335.003,0,0
384347,47.8166,-334.622,0,0
384607,47.8208,-334.254,0,0
384868,47.75,-333.836,0,0
385128,47.691,-333.431,0,0
385388,47.6109,-333.035,0,0
385649,47.5512,-332.553,0,0
385909,47.4456,-332.103,0,0
386169,47.3952,-331.682,0,0
386430,47.2843,-331.192,0,0
386690,47.2333,-330.682,0,0
386950,47.1841,-330.248,0,0
387211,47.0821,-329.74,0,0
387471,47.0437,-329.236,0,0
387731,46.9445,-328.732,0,0
387992,46.9199,-328.224,0,0
388252,46.8472,-327.71,0,0
388512,46.7833,-327.191,0,0
388773,46.7382,-326.642,0,0
389033,46.7045,-326.137,0,0
389293,46.6559,-325.616,0,0
389554,46.6148,-325.106,0,0
389814,46.5798,-324.574,0,0
390074,46.5545,-324.044,0,0
390335,46.544,-323.501,0,0
390595,46.5152,-322.957,0,0
390855,46.5258,-322.448,0,0
391116,46.4921,-321.898,0,0
391376,46.4746,-321.398,0,0
391636,46.4632,-320.884,0,0
391896,46.4866,-320.353,0,0
392157,46.4794,-319.808,0,0
392417,46.4613,-319.266,0,0
392677,46.4809,-318.735,0,0
392938,46.4738,-318.211,0,0
393198,46.4754,-317.672,0,0
393458,46.4983,-317.14,0,0
393719,46.4845,-316.626,0,0
393979,46.4974,-316.091,0,0
394239,46.5172,-315.532,0,0
394500,46.5266,-315.027,0,0
394760.05,46.5343,-314.482,0,0
395020.375,46.5596,-313.935,0,0
395280.7,46.573,-313.391,0,0
395541.025,46.6017,-312.88,0,0
395801.35,46.59,-312.333,0,0
396061.675,46.668,-311.786,0,0
396322.0,46.7035,-311.267,0,0
396582.325,46.7484,-310.709,0,0
396842.65,46.7539,-310.176,0,0
397102.975,46.8139,-309.655,0,0
397363.3,46.8459,-309.09,0,0
397623.625,46.885,-308.563,0,0
397883.95,46.9092,-308.043,0,0
398144.275,46.9799,-307.465,0,0
398404.6,47.0401,-306.928,0,0
398664.925,47.0672,-306.391,0,0
398925.25,47.1456,-305.86,0,0
399185.575,47.1583,-305.338,0,0
399445.9,47.2517,-304.808,0,0
399706.225,47.2928,-304.248,0,0
399966.55,47.3602,-303.711,0,0
400006.6,47.3591,-303.635,0,0