File: Accelerated corrosion test data/2025-10-13_06-00-03/sample_3.csv
Frequency (Hz),Impedance (ohms),Phase (Radians),Temperature (C),Humidity (%)
10000.0,253.494,-11807.6,0,0
10260.325,247.471,-11510,0,0
10520.65,241.402,-11226.8,0,0
10780.975,237.696,-10956.4,0,0
11041.3,230.909,-10704.2,0,0
11301.625,225.727,-10458.8,0,0
11561.95,221.076,-10224.9,0,0
11822.275,216.505,-10001.2,0,0
12082.6,213.893,-9787.29,0,0
12342.925,212.09,-9581.7,0,0
12603.25,204.842,-9386.3,0,0
12863.575,200.915,-9196.27,0,0
13123.9,201.745,-9012.84,0,0
13384.225,194.493,-8844.68,0,0
13644.55,190.715,-8675.72,0,0
13904.875,187.419,-8512.96,0,0
14165.2,187.291,-8355.9,0,0
14425.525,181.34,-8206.31,0,0
14685.8,180.775,-8060.2,0,0
14946.175,176.66,-7921.48,0,0
15206.5,175.003,-7780.52,0,0
15466.825,184.669,-7642.01,0,0
15727.15,194.748,-7541.43,0,0
15987.5,172.846,-7426.92,0,0
16247.8,168.79,-7298.47,0,0
16508.125,162.77,-7185.01,0,0
16768.45,168.809,-7064.85,0,0
17028.775,159.074,-6966.55,0,0
17289.1,163.847,-6852.94,0,0
17549.425,158.241,-6761.77,0,0
17809.75,158.176,-6657.05,0,0
18070.075,162.595,-6570.96,0,0
18330.4,152.304,-6476.04,0,0
18590.725,149.836,-6384.35,0,0
18851.05,146.32,-6293.56,0,0
19111.375,147.748,-6204.75,0,0
19371.7,146.513,-6121.24,0,0
19632.025,147.995,-6037.37,0,0
19892.35,147.933,-5956.54,0,0
20152.675,151.822,-5880.85,0,0
20413.0,162.348,-5805.95,0,0
20673.3,165.112,-5734.26,0,0
20933.65,163.898,-5686.15,0,0
21193.975,162.226,-5620.06,0,0
21454.3,145.429,-5556.68,0,0
21714.625,140.603,-5481.08,0,0
21974.9,143.689,-5418.05,0,0
22235.275,139.81,-5358.8,0,0
22495.6,137.723,-5295.56,0,0
22755.925,130.482,-5234.87,0,0
23016.25,128.865,-5175.69,0,0
23276.6,129.52,-5113.05,0,0
23536.9,129.702,-5068.02,0,0
23797.225,122.314,-5009.05,0,0
24057.55,120.064,-4951.66,0,0
24317.875,120.873,-4895.94,0,0
24578.2,118.331,-4846.11,0,0
24838.525,119.524,-4793.57,0,0
25098.85,116.523,-4746.75,0,0
25359.175,114.429,-4697.15,0,0
25619.5,114.195,-4649.01,0,0
25879.8,111.984,-4602.25,0,0
26140.1,109.261,-4554.65,0,0
26400.5,109.279,-4507.98,0,0
26660.8,109.06,-4462.51,0,0
26921.1,109.784,-4418.58,0,0
27181.4,109.497,-4377.66,0,0
27441.8,108.716,-4334.03,0,0
27702.1,108.696,-4294.48,0,0
27962.4,106.645,-4253.68,0,0
28222.7,105.461,-4210,0,0
28483.1,113.975,-4169.66,0,0
28743.4,114.686,-4136.32,0,0
29003.7,115.329,-4104.62,0,0
29264,108.835,-4070.74,0,0
29524.4,109.246,-4034.63,0,0
29784.7,105.419,-3998.77,0,0
30045,102.728,-3965.28,0,0
30305.3,101.599,-3927.73,0,0
30565.7,102.494,-3893.9,0,0
30826,102.399,-3862.01,0,0
31086.3,103.484,-3829.37,0,0
31346.6,99.2935,-3798.37,0,0
31607,98.4013,-3764.36,0,0
31867.3,99.1227,-3730.23,0,0
32127.6,102.842,-3696.66,0,0
32387.9,110.887,-3668.38,0,0
32648.3,112.883,-3652.62,0,0
32908.6,104.2,-3626.78,0,0
33168.9,102.089,-3598.11,0,0
33429.2,100.581,-3573.07,0,0
33689.6,94.0275,-3544.81,0,0
33949.9,91.8179,-3514.75,0,0
34210.2,91.6262,-3487.14,0,0
34470.5,90.7624,-3461.01,0,0
34730.9,88.5001,-3434.51,0,0
34991.2,87.2353,-3407.69,0,0
35251.5,86.187,-3381.7,0,0
35511.8,85.2874,-3356.33,0,0
35772.2,84.8904,-3331.33,0,0
36032.5,83.8951,-3306.58,0,0
36292.8,83.4738,-3281.97,0,0
36553.1,83.282,-3257.99,0,0
36813.5,82.0479,-3234.7,0,0
37073.8,81.4682,-3211.58,0,0
37334.1,80.7918,-3188.3,0,0
37594.4,80.7188,-3165.7,0,0
37854.8,79.6854,-3143.46,0,0
38115.1,79.3016,-3121.41,0,0
38375.4,78.8831,-3099.66,0,0
38635.7,78.6151,-3078.24,0,0
38896.1,78.0958,-3057.31,0,0
39156.4,77.7705,-3036.24,0,0
39416.7,77.2458,-3016.05,0,0
39677,76.8051,-2995.63,0,0
39937.4,76.2326,-2975.38,0,0
40197.7,76.0748,-2955.66,0,0
40458,75.594,-2936.39,0,0
40718.3,75.2014,-2916.82,0,0
40978.7,75.0024,-2897.35,0,0
41239,74.8947,-2878.58,0,0
41499.3,74.5631,-2860.05,0,0
41759.6,75.2163,-2841.99,0,0
42020,74.5522,-2824.19,0,0
42280.275,74.1758,-2806.47,0,0
42540.6,73.6417,-2788.51,0,0
42800.925,73.7167,-2771.33,0,0
43061.25,73.098,-2754.3,0,0
43321.575,72.5971,-2737.05,0,0
43581.9,72.2869,-2719.98,0,0
43842.225,72.5486,-2702.88,0,0
44102.55,72.7756,-2686.62,0,0
44362.875,72.519,-2670.97,0,0
44623.2,71.7827,-2654.86,0,0
44883.525,71.5536,-2639.16,0,0
45143.85,71.2065,-2623.3,0,0
45404.175,70.9741,-2607.71,0,0
45664.5,70.7827,-2591.69,0,0
45924.825,71.5049,-2577.05,0,0
46185.15,70.5325,-2562.51,0,0
46445.475,70.094,-2547.09,0,0
46705.8,70.6497,-2532.02,0,0
46966.125,70.2563,-2518.11,0,0
47226.45,70.1649,-2503.44,0,0
47486.775,70.0984,-2489.17,0,0
47747.1,71.0105,-2474.84,0,0
48007.425,70.6602,-2461.97,0,0
48267.75,70.6782,-2448.95,0,0
48528.075,70.2147,-2435.52,0,0
48788.4,69.7235,-2422.7,0,0
49048.725,68.9578,-2409.21,0,0
49309.05,68.3337,-2395.76,0,0
49569.375,68.1012,-2382.43,0,0
49829.7,68.0315,-2369.65,0,0
50090.025,67.4157,-2356.86,0,0
50350.35,66.8922,-2343.87,0,0
50610.675,66.9009,-2331.04,0,0
50871.0,66.8535,-2318.36,0,0
51131.325,66.7898,-2305.98,0,0
51391.65,66.6913,-2293.67,0,0
51651.975,66.6472,-2281.35,0,0
51912.3,66.5094,-2269.34,0,0
52172.625,66.2081,-2257.36,0,0
52432.95,66.2409,-2245.13,0,0
52693.275,66.5245,-2233.2,0,0
52953.6,66.7355,-2221.49,0,0
53213.925,67.5073,-2209.92,0,0
53474.25,68.1099,-2199.08,0,0
53734.575,68.2253,-2188.17,0,0
53994.9,68.5074,-2177.05,0,0
54255.225,69.736,-2166.3,0,0
54515.55,70.3466,-2157.27,0,0
54775.875,69.4815,-2147.85,0,0
55036.2,69.1411,-2137.76,0,0
55296.525,68.424,-2128.44,0,0
55556.85,67.1086,-2118.89,0,0
55817.175,65.7204,-2108.18,0,0
56077.5,64.5761,-2097.84,0,0
56337.825,63.7795,-2087.39,0,0
56598.15,62.6643,-2076.67,0,0
56858.475,61.9141,-2065.93,0,0
57118.8,61.7421,-2055,0,0
57379.125,61.4499,-2044.54,0,0
57639.45,61.4692,-2034.14,0,0
57899.775,61.3491,-2024,0,0
58160.1,61.3837,-2014,0,0
58420.4,61.359,-2004.02,0,0
58680.7,61.3317,-1993.91,0,0
58941.1,61.4341,-1984.12,0,0
59201.4,61.6115,-1974.22,0,0
59461.7,61.9176,-1964.69,0,0
59722,62.1005,-1955.13,0,0
59982.4,62.5184,-1945.78,0,0
60242.7,62.6472,-1936.5,0,0
60503,62.7623,-1927.27,0,0
60763.3,63.2709,-1917.88,0,0
61023.7,63.4848,-1908.78,0,0
61284,63.9124,-1899.78,0,0
61544.3,64.5357,-1890.66,0,0
61804.6,64.9266,-1882.04,0,0
62065,65.3858,-1873.08,0,0
62325.3,65.6214,-1864.38,0,0
62585.6,66.1985,-1855.39,0,0
62845.9,67.2964,-1846.53,0,0
63106.3,68.1489,-1837.99,0,0
63366.6,68.6404,-1829.44,0,0
63626.9,69.947,-1820.65,0,0
63887.2,71.0481,-1812.06,0,0
64147.6,72.8566,-1803.43,0,0
64407.9,75.4249,-1795.48,0,0
64668.2,77.1324,-1787.98,0,0
64928.5,80.2369,-1779.75,0,0
65188.9,83.9776,-1774.02,0,0
65449.2,86.6915,-1769.11,0,0
65709.5,88.9218,-1763.99,0,0
65969.8,92.9402,-1761.67,0,0
66230.2,91.4661,-1762.45,0,0
66490.5,86.2593,-1759.86,0,0
66750.8,80.7621,-1752.98,0,0
67011.1,78.5929,-1744.77,0,0
67271.5,75.9451,-1736.77,0,0
67531.8,74.9663,-1728.18,0,0
67792.1,74.8027,-1720,0,0
68052.4,75.2213,-1712.11,0,0
68312.8,76.0621,-1705.51,0,0
68573.1,75.8027,-1698.84,0,0
68833.4,76.1344,-1692.06,0,0
69093.7,76.9855,-1685.58,0,0
69354.1,77.6047,-1679.95,0,0
69614.4,77.3939,-1675.29,0,0
69874.7,76.1705,-1669.63,0,0
70135,75.4447,-1663.69,0,0
70395.4,74.703,-1657.99,0,0
70655.7,73.4795,-1651.94,0,0
70916,72.1764,-1645.46,0,0
71176.3,71.4678,-1638.9,0,0
71436.7,70.5102,-1632.61,0,0
71697,69.7449,-1625.51,0,0
71957.3,69.8684,-1618.66,0,0
72217.6,69.9389,-1612.41,0,0
72478,70.1311,-1606.35,0,0
72738.3,70.2472,-1600.65,0,0
72998.6,69.9729,-1595.27,0,0
73258.9,69.3802,-1589.48,0,0
73519.3,68.9882,-1583.77,0,0
73779.6,68.6954,-1578.29,0,0
74039.9,67.9899,-1572.72,0,0
74300.225,67.2492,-1567.17,0,0
74560.55,66.5438,-1561.56,0,0
74820.875,65.7894,-1555.94,0,0
75081.2,64.9747,-1550.21,0,0
75341.525,64.2778,-1544.41,0,0
75601.85,63.4873,-1538.63,0,0
75862.175,62.6838,-1532.86,0,0
76122.5,61.9817,-1526.95,0,0
76382.825,61.313,-1521.05,0,0
76643.15,60.7789,-1515.23,0,0
76903.475,60.2073,-1509.35,0,0
77163.8,59.7018,-1503.62,0,0
77424.125,59.2585,-1497.9,0,0
77684.45,58.5908,-1492.18,0,0
77944.775,58.1098,-1486.43,0,0
78205.1,57.6515,-1480.73,0,0
78465.425,57.1475,-1475.08,0,0
78725.75,56.7679,-1469.33,0,0
78986.075,56.3688,-1463.67,0,0
79246.4,55.9129,-1457.95,0,0
79506.725,55.6144,-1452.36,0,0
79767.05,55.2487,-1446.68,0,0
80027.375,54.9469,-1441.16,0,0
80287.7,54.7268,-1435.59,0,0
80548.025,54.5047,-1430.12,0,0
80808.35,54.2112,-1424.62,0,0
81068.675,54.0454,-1419.18,0,0
81329.0,53.8146,-1413.73,0,0
81589.325,53.6324,-1408.31,0,0
81849.65,53.4706,-1402.93,0,0
82109.975,53.3788,-1397.63,0,0
82370.3,53.2819,-1392.34,0,0
82630.625,53.1427,-1387,0,0
82890.95,53.0723,-1381.79,0,0
83151.275,52.9571,-1376.66,0,0
83411.6,52.8817,-1371.5,0,0
83671.925,52.8198,-1366.32,0,0
83932.25,52.7696,-1361.21,0,0
84192.575,52.7156,-1356.16,0,0
84452.9,52.6792,-1351.1,0,0
84713.225,52.6155,-1346.05,0,0
84973.55,52.6274,-1341.04,0,0
85233.875,52.6084,-1336.04,0,0
85494.2,52.6403,-1331.17,0,0
85754.525,52.6219,-1326.18,0,0
86014.85,52.7042,-1321.33,0,0
86275.175,52.6495,-1316.45,0,0
86535.5,52.7231,-1311.55,0,0
86795.825,52.7192,-1306.78,0,0
87056.15,52.7366,-1301.88,0,0
87316.475,52.83,-1297.1,0,0
87576.8,52.9511,-1292.28,0,0
87837.125,53.0507,-1287.52,0,0
88097.45,53.2776,-1282.84,0,0
88357.775,53.2696,-1278.18,0,0
88618.1,53.4289,-1273.24,0,0
88878.425,53.7135,-1268.41,0,0
89138.75,54.0117,-1263.64,0,0
89399.075,54.477,-1259.05,0,0
89659.4,54.9361,-1254.59,0,0
89919.725,55.4598,-1250.15,0,0
90180,55.996,-1245.84,0,0
90440.4,56.2325,-1241.68,0,0
90700.7,56.6199,-1237.23,0,0
90961,57.0444,-1232.94,0,0
91221.3,57.5428,-1228.71,0,0
91481.7,57.9452,-1224.63,0,0
91742,58.4859,-1220.44,0,0
92002.3,58.9594,-1216.3,0,0
92262.6,59.6412,-1212.33,0,0
92523,60.2825,-1208.52,0,0
92783.3,60.7791,-1204.9,0,0
93043.6,61.2455,-1201.17,0,0
93303.9,61.7779,-1197.49,0,0
93564.3,62.5504,-1194,0,0
93824.6,63.2597,-1190.84,0,0
94084.9,63.7724,-1188.41,0,0
94345.2,63.4918,-1185.77,0,0
94605.6,63.0671,-1183.04,0,0
94865.9,62.2516,-1180.38,0,0
95126.2,60.8685,-1177.25,0,0
95386.5,59.4079,-1173.35,0,0
95646.9,58.6761,-1169.19,0,0
95907.2,57.8445,-1165.19,0,0
96167.5,56.9637,-1160.79,0,0
96427.8,56.757,-1156.27,0,0
96688.2,56.6658,-1152.05,0,0
96948.5,56.5543,-1148.02,0,0
97208.8,56.4967,-1143.9,0,0
97469.1,56.4976,-1139.93,0,0
97729.5,56.3985,-1136.07,0,0
97989.8,56.3286,-1132.09,0,0
98250.1,56.313,-1128.13,0,0
98510.4,56.3422,-1124.26,0,0
98770.8,56.3475,-1120.49,0,0
99031.1,56.2781,-1116.81,0,0
99291.4,56.0773,-1113.05,0,0
99551.7,55.9439,-1109.17,0,0
99812.1,55.8368,-1105.33,0,0
100072,55.7705,-1101.48,0,0
100333,55.6398,-1097.61,0,0
100593,55.536,-1093.7,0,0
100853,55.4195,-1089.69,0,0
101114,55.4187,-1085.7,0,0
101374,55.438,-1081.63,0,0
101634,55.6194,-1077.49,0,0
101895,55.8705,-1073.4,0,0
102155,56.2722,-1069.32,0,0
102415,56.7515,-1065.15,0,0
102676,57.6609,-1061.18,0,0
102936,58.5844,-1057.64,0,0
103196,59.2869,-1054.31,0,0
103457,59.8366,-1050.89,0,0
103717,60.4089,-1047.44,0,0
103977,61.1346,-1043.91,0,0
104238,62.3254,-1040.66,0,0
104498,63.2987,-1038.08,0,0
104758,63.8048,-1035.67,0,0
105019,63.9441,-1033.29,0,0
105279,63.8398,-1030.51,0,0
105539,64.0026,-1027.65,0,0
105800,64.0133,-1025.09,0,0
106060,63.7928,-1022.46,0,0
106320.175,63.3602,-1019.63,0,0
106580.5,62.9822,-1016.77,0,0
106840.825,62.4408,-1013.73,0,0
107101.15,61.979,-1010.49,0,0
107361.475,61.5928,-1007.33,0,0
107621.8,61.1428,-1004.1,0,0
107882.125,60.739,-1000.71,0,0
108142.45,60.4513,-997.305,0,0
108402.775,60.0162,-993.962,0,0
108663.1,59.5476,-990.469,0,0
108923.425,59.1997,-986.724,0,0
109183.75,59.1033,-982.933,0,0
109444.075,59.0274,-979.333,0,0
109704.4,59.0062,-975.622,0,0
109964.725,59.0254,-971.958,0,0
110225.05,59.0091,-968.199,0,0
110485.375,59.3,-964.262,0,0
110745.7,59.7782,-960.549,0,0
111006.025,60.4021,-956.999,0,0
111266.35,60.8013,-953.619,0,0
111526.675,61.2913,-950.331,0,0
111787.0,61.8807,-946.907,0,0
112047.325,62.2514,-943.606,0,0
112307.65,62.683,-940.508,0,0
112567.975,63.1795,-937.388,0,0
112828.3,63.5695,-934.218,0,0
113088.625,63.8918,-931.153,0,0
113348.95,64.1532,-928.073,0,0
113609.275,64.3605,-924.974,0,0
113869.6,64.6056,-921.694,0,0
114129.925,64.864,-918.474,0,0
114390.25,65.0723,-915.194,0,0
114650.575,65.3407,-911.78,0,0
114910.9,65.7713,-908.404,0,0
115171.225,66.2177,-904.995,0,0
115431.55,66.8207,-901.595,0,0
115691.875,67.4167,-898.32,0,0
115952.2,68.0113,-894.979,0,0
116212.525,68.6092,-891.596,0,0
116472.85,69.4221,-888.197,0,0
116733.175,70.3644,-884.938,0,0
116993.5,71.2459,-881.868,0,0
117253.825,71.9798,-878.634,0,0
117514.15,72.9294,-875.112,0,0
117774.475,74.489,-871.738,0,0
118034.8,76.1296,-868.876,0,0
118295.125,77.6039,-866.208,0,0
118555.45,79.1581,-863.852,0,0
118815.775,80.2338,-861.584,0,0
119076.1,81.3716,-858.994,0,0
119336.425,82.9985,-856.367,0,0
119596.75,84.9411,-854.278,0,0
119857.075,86.7801,-852.872,0,0
120117.4,88.1005,-852.001,0,0
120377.725,88.7573,-851.177,0,0
120638.05,89.1766,-850.198,0,0
120898.375,89.1132,-849.399,0,0
121158.7,88.6322,-848.127,0,0
121419.025,87.9583,-846.663,0,0
121679.35,86.9214,-844.731,0,0
121939.675,86.0357,-842.092,0,0
122200.0,85.7245,-839.182,0,0
122460,85.6814,-836.399,0,0
122721,85.8104,-833.66,0,0
122981,86.1794,-830.956,0,0
123241,86.6372,-828.586,0,0
123502,86.8272,-826.3,0,0
123762,87.0788,-823.83,0,0
124022,87.4556,-821.412,0,0
124283,87.8609,-819.113,0,0
124543,88.2041,-816.886,0,0
124803,88.5528,-814.653,0,0
125064,88.9636,-812.547,0,0
125324,89.2686,-810.564,0,0
125584,89.5124,-808.503,0,0
125845,89.7764,-806.551,0,0
126105,89.9392,-804.72,0,0
126365,89.8852,-802.914,0,0
126626,89.7262,-800.927,0,0
126886,89.5541,-798.885,0,0
127146,89.3838,-796.85,0,0
127406,89.3824,-794.809,0,0
127667,89.1183,-792.733,0,0
127927,88.695,-790.672,0,0
128187,88.2728,-788.469,0,0
128448,87.762,-786.131,0,0
128708,87.3406,-783.595,0,0
128968,87.1076,-781.013,0,0
129229,86.9267,-778.48,0,0
129489,86.7834,-775.954,0,0
129749,86.5545,-773.355,0,0
130010,86.4316,-770.579,0,0
130270,86.6037,-767.802,0,0
130530,86.9667,-765.237,0,0
130791,87.312,-762.934,0,0
131051,87.5276,-760.797,0,0
131311,87.5335,-758.692,0,0
131572,87.4665,-756.614,0,0
131832,87.2171,-754.442,0,0
132092,86.8996,-752.153,0,0
132353,86.6497,-749.666,0,0
132613,86.4947,-747.076,0,0
132873,86.4986,-744.688,0,0
133134,86.4373,-742.366,0,0
133394,86.2566,-740.08,0,0
133654,86.0028,-737.779,0,0
133915,85.653,-735.349,0,0
134175,85.3557,-732.791,0,0
134435,85.1674,-730.234,0,0
134696,84.9082,-727.777,0,0
134956,84.5791,-725.168,0,0
135216,84.2551,-722.473,0,0
135477,84.1365,-719.758,0,0
135737,83.9734,-717.253,0,0
135997,83.5747,-714.663,0,0
136258,83.1763,-711.812,0,0
136518,82.8788,-708.884,0,0
136778,82.7022,-705.818,0,0
137039,82.6781,-702.748,0,0
137299,82.7576,-699.716,0,0
137559,82.9955,-696.759,0,0
137819,83.2215,-693.918,0,0
138080,83.4614,-691.075,0,0
138340.125,83.8352,-688.305,0,0
138600.45,84.2089,-685.806,0,0
138860.775,84.316,-683.435,0,0
139121.1,84.2386,-680.989,0,0
139381.425,84.0958,-678.413,0,0
139641.75,83.9148,-675.76,0,0
139902.075,83.6587,-672.928,0,0
140162.4,83.6032,-669.94,0,0
140422.725,83.7348,-667.092,0,0
140683.05,83.7724,-664.436,0,0
140943.375,83.6439,-661.729,0,0
141203.7,83.4812,-658.955,0,0
141464.025,83.2078,-656.146,0,0
141724.35,82.8467,-653.163,0,0
141984.675,82.6001,-649.961,0,0
142245.0,82.4793,-646.755,0,0
142505.325,82.365,-643.543,0,0
142765.65,82.2431,-640.253,0,0
143025.975,82.2312,-636.904,0,0
143286.3,82.1991,-633.516,0,0
143546.625,82.2532,-630.05,0,0
143806.95,82.4077,-626.606,0,0
144067.275,82.5763,-623.157,0,0
144327.6,82.6996,-619.649,0,0
144587.925,82.896,-616.085,0,0
144848.25,83.1862,-612.41,0,0
145108.575,83.6029,-608.778,0,0
145368.9,83.9984,-605.193,0,0
145629.225,84.4153,-601.573,0,0
145889.55,84.7959,-597.911,0,0
146149.875,85.2484,-594.073,0,0
146410.2,85.8929,-590.199,0,0
146670.525,86.6235,-586.43,0,0
146930.85,87.2727,-582.649,0,0
147191.175,87.9792,-578.729,0,0
147451.5,88.8344,-574.756,0,0
147711.825,89.7801,-570.836,0,0
147972.15,90.7164,-566.875,0,0
148232.475,91.7646,-562.806,0,0
148492.8,92.9819,-558.707,0,0
148753.125,94.3028,-554.65,0,0
149013.45,95.6807,-550.638,0,0
149273.775,97.113,-546.493,0,0
149534.1,98.759,-542.286,0,0
149794.425,100.646,-538.186,0,0
150054.75,102.604,-534.154,0,0
150315.075,104.762,-530.136,0,0
150575.4,107.148,-526.315,0,0
150835.725,109.545,-522.71,0,0
151096.05,111.909,-519.203,0,0
151356.375,114.343,-515.781,0,0
151616.7,116.785,-512.476,0,0
151877.025,119.243,-509.165,0,0
152137.35,121.868,-505.983,0,0
152397.675,124.51,-503.003,0,0
152658.0,127.122,-500.195,0,0
152918.325,129.714,-497.532,0,0
153178.65,132.201,-495.124,0,0
153438.975,134.364,-492.787,0,0
153699.3,136.276,-490.308,0,0
153959.625,138.294,-487.497,0,0
154219.95,140.628,-484.957,0,0
154480,142.658,-482.9,0,0
154741,144.041,-480.54,0,0
155001,145.18,-477.68,0,0
155261,146.59,-474.26,0,0
155522,148.607,-470.799,0,0
155782,150.711,-467.526,0,0
156042,152.714,-464.375,0,0
156303,154.705,-461.002,0,0
156563,156.727,-457.432,0,0
156823,159.203,-453.449,0,0
157084,162.271,-449.56,0,0
157344,165.838,-446.085,0,0
157604,169.616,-443.197,0,0
157864,173.446,-441.019,0,0
158125,176.754,-439.639,0,0
158385,179.04,-438.658,0,0
158645,180.296,-437.166,0,0
158906,181.178,-434.737,0,0
159166,182.287,-431.88,0,0
159426,183.084,-428.749,0,0
159687,183.511,-424.585,0,0
159947,184.565,-419.309,0,0
160207,186.619,-413.578,0,0
160468,189.622,-407.658,0,0
160728,193.849,-402.038,0,0
160988,198.201,-397.602,0,0
161249,201.601,-393.17,0,0
161509,205.155,-387.604,0,0
161769,209.896,-381.258,0,0
162030,216.069,-375.721,0,0
162290,222.519,-370.79,0,0
162550,229.196,-366.501,0,0
162811,235.674,-362.47,0,0
163071,242.35,-357.978,0,0
163331,250.079,-353.601,0,0
163592,258.544,-350.231,0,0
163852,266.703,-347.266,0,0
164112,275.22,-344.411,0,0
164373,284.091,-341.796,0,0
164633,293.846,-339.073,0,0
164893,305.241,-337.487,0,0
165154,316.844,-338.236,0,0
165414,327.394,-340.338,0,0
165674,337.324,-342.815,0,0
165935,347.012,-345.717,0,0
166195,356.678,-349.637,0,0
166455,365.355,-354.351,0,0
166716,373.678,-359.321,0,0
166976,381.65,-365.137,0,0
167236,388.443,-371.501,0,0
167497,394.337,-377.476,0,0
167757,400.326,-383.248,0,0
168017,406.444,-389.954,0,0
168277,411.478,-397.471,0,0
168538,415.297,-404.707,0,0
168798,419.14,-411.77,0,0
169058,422.93,-419.343,0,0
169319,425.963,-428.226,0,0
169579,426.767,-437.799,0,0
169839,425.174,-446.604,0,0
170100,422.087,-453.325,0,0
170360.075,419.274,-457.981,0,0
170620.4,417.196,-461.84,0,0
170880.725,415.308,-465.381,0,0
171141.05,413.253,-468.519,0,0
171401.375,411.388,-470.806,0,0
171661.7,410.162,-472.601,0,0
171922.025,409.268,-474.558,0,0
172182.35,408.184,-476.597,0,0
172442.675,406.655,-477.61,0,0
172703.0,406.141,-477.433,0,0
172963.325,407.302,-477.383,0,0
173223.65,409.345,-478.293,0,0
173483.975,411.542,-480.268,0,0
173744.3,413.155,-482.901,0,0
174004.625,414.735,-485.566,0,0
174264.95,416.611,-488.864,0,0
174525.275,417.691,-493.305,0,0
174785.6,417.501,-497.506,0,0
175045.925,416.947,-500.913,0,0
175306.25,416.549,-503.98,0,0
175566.575,416.708,-506.949,0,0
175826.9,416.996,-510.84,0,0
176087.225,416.55,-515.392,0,0
176347.55,415.481,-519.71,0,0
176607.875,414.458,-524.287,0,0
176868.2,412.528,-530.104,0,0
177128.525,408.206,-535.588,0,0
177388.85,403.007,-539.329,0,0
177649.175,397.956,-542.145,0,0
177909.5,392.192,-544.647,0,0
178169.825,385.462,-545.672,0,0
178430.15,379.114,-544.753,0,0
178690.475,373.837,-542.644,0,0
178950.8,369.642,-539.957,0,0
179211.125,366.32,-537.108,0,0
179471.45,363.446,-534.125,0,0
179731.775,361.418,-530.577,0,0
179992.1,360.654,-527.062,0,0
180252.425,360.661,-524.315,0,0
180512.75,360.956,-522.009,0,0
180773.075,361.653,-520.076,0,0
181033.4,362.712,-518.574,0,0
181293.725,364.096,-517.753,0,0
181554.05,365.714,-517.599,0,0
181814.375,367.44,-518.849,0,0
182074.7,367.866,-521.632,0,0
182335.025,366.186,-524.152,0,0
182595.35,363.752,-525.383,0,0
182855.675,361.428,-525.751,0,0
183116.0,359.493,-525.984,0,0
183376.325,357.39,-526.583,0,0
183636.65,354.66,-527.02,0,0
183896.975,351.373,-526.998,0,0
184157.3,347.888,-526.013,0,0
184417.625,344.97,-524.582,0,0
184677.95,341.96,-523.199,0,0
184938.275,338.82,-521.27,0,0
185198.6,335.867,-518.887,0,0
185458.925,332.919,-516.305,0,0
185719.25,329.918,-513.161,0,0
185979.575,327.248,-509.281,0,0
186239.9,325.068,-505.031,0,0
186500,323.49,-500.26,0,0
186761,322.785,-495.271,0,0
187021,322.852,-490.592,0,0
187281,323.199,-486.254,0,0
187542,323.819,-481.99,0,0
187802,324.836,-477.848,0,0
188062,326.305,-473.928,0,0
188322,328.268,-470.708,0,0
188583,329.834,-468.394,0,0
188843,330.47,-466.119,0,0
189103,330.803,-463.106,0,0
189364,331.574,-459.57,0,0
189624,332.867,-456.003,0,0
189884,334.503,-452.58,0,0
190145,336.385,-449.476,0,0
190405,338.259,-446.647,0,0
190665,340.107,-443.894,0,0
190926,341.927,-441.297,0,0
191186,343.643,-438.776,0,0
191446,345.102,-436.079,0,0
191707,346.777,-433.011,0,0
191967,348.845,-430.188,0,0
192227,350.596,-427.656,0,0
192488,351.95,-424.754,0,0
192748,353.394,-421.154,0,0
193008,355.37,-417.068,0,0
193269,358.012,-412.806,0,0
193529,361.297,-408.603,0,0
193789,365.047,-404.697,0,0
194050,369.211,-400.91,0,0
194310,373.782,-397.377,0,0
194570,378.734,-394.061,0,0
194831,384.189,-391.115,0,0
195091,390.044,-388.66,0,0
195351,396.143,-386.683,0,0
195612,402.443,-385.452,0,0
195872,408.805,-384.748,0,0
196132,415.358,-384.773,0,0
196393,421.835,-385.701,0,0
196653,427.806,-387.707,0,0
196913,432.981,-390.66,0,0
197174,436.343,-393.63,0,0
197434,438.745,-395.696,0,0
197694,441.22,-396.886,0,0
197955,443.976,-397.879,0,0
198215,446.856,-398.98,0,0
198475,449.547,-400.372,0,0
198735,451.642,-401.833,0,0
198996,453.25,-402.46,0,0
199256,455.483,-402.464,0,0
199516,458.378,-402.776,0,0
199777,461.212,-403.956,0,0
200037,463.004,-405.576,0,0
200297,463.658,-406.695,0,0
200558,463.691,-406.371,0,0
200818,464.438,-404.605,0,0
201078,466.416,-402.409,0,0
201339,469.198,-400.574,0,0
201599,472.017,-398.915,0,0
201859,475.03,-397.031,0,0
202120,478.612,-394.846,0,0
202380.025,482.868,-392.499,0,0
202640.35,488.053,-390.4,0,0
202900.675,493.961,-388.984,0,0
203161.0,500.218,-388.35,0,0
203421.325,506.471,-388.389,0,0
203681.65,512.717,-388.815,0,0
203941.975,519.228,-389.927,0,0
204202.3,525.482,-391.728,0,0
204462.625,531.392,-394.03,0,0
204722.95,536.956,-396.509,0,0
204983.275,542.549,-399.378,0,0
205243.6,547.953,-403.095,0,0
205503.925,552.264,-407.584,0,0
205764.25,555.239,-411.971,0,0
206024.575,557.118,-415.419,0,0
206284.9,558.815,-417.917,0,0
206545.225,560.488,-419.71,0,0
206805.55,562.28,-420.664,0,0
207065.875,564.592,-420.702,0,0
207326.2,568.023,-420.361,0,0
207586.525,572.134,-420.298,0,0
207846.85,576.667,-420.213,0,0
208107.175,581.954,-420.035,0,0
208367.5,588.223,-420.365,0,0
208627.825,595.028,-421.513,0,0
208888.15,602.095,-423.401,0,0
209148.475,609.143,-426.016,0,0
209408.8,616.139,-429.26,0,0
209669.125,622.949,-432.906,0,0
209929.45,629.878,-437.2,0,0
210189.775,636.486,-441.809,0,0
210450.1,643.014,-446.946,0,0
210710.425,649.471,-452.43,0,0
210970.75,655.646,-458.396,0,0
211231.075,661.599,-465.099,0,0
211491.4,666.867,-472.13,0,0
211751.725,671.443,-479.233,0,0
212012.05,675.723,-486.194,0,0
212272.375,679.916,-493.133,0,0
212532.7,683.984,-500.021,0,0
212793.025,688.184,-506.988,0,0
213053.35,692.638,-514.428,0,0
213313.675,696.747,-522.598,0,0
213574.0,700.317,-531.221,0,0
213834.325,703.268,-539.902,0,0
214094.65,705.795,-548.671,0,0
214354.975,708.008,-557.413,0,0
214615.3,709.934,-566.396,0,0
214875.625,711.461,-575.381,0,0
215135.95,712.581,-584.481,0,0
215396.275,713.191,-593.605,0,0
215656.6,713.553,-602.553,0,0
215916.925,713.724,-611.276,0,0
216177.25,713.915,-620.111,0,0
216437.575,714.005,-629.3,0,0
216697.9,713.607,-638.984,0,0
216958.225,712.257,-648.772,0,0
217218.55,710.217,-658.311,0,0
217478.875,707.716,-667.399,0,0
217739.2,704.925,-676.02,0,0
217999.525,702.143,-684.536,0,0
218259.85,698.952,-692.899,0,0
218520,695.685,-701.169,0,0
218780,691.692,-709.231,0,0
219041,687.45,-716.524,0,0
219301,683.331,-723.23,0,0
219561,679.819,-729.753,0,0
219822,676.578,-736.627,0,0
220082,673.242,-743.861,0,0
220342,669.516,-751.283,0,0
220603,665.116,-758.62,0,0
220863,660.882,-765.986,0,0
221123,656.341,-773.541,0,0
221384,651.241,-781.135,0,0
221644,645.844,-788.642,0,0
221904,639.863,-796.484,0,0
222165,632.775,-804.034,0,0
222425,625.168,-810.843,0,0
222685,617.285,-817.307,0,0
222946,608.506,-823.395,0,0
223206,599.197,-828.623,0,0
223466,589.424,-832.593,0,0
223727,579.517,-835.341,0,0
223987,569.929,-836.883,0,0
224247,561.128,-837.596,0,0
224508,552.772,-837.518,0,0
224768,545.164,-836.617,0,0
225028,538.776,-835.263,0,0
225289,533.683,-833.92,0,0
225549,529.347,-833.027,0,0
225809,525.822,-832.696,0,0
226070,522.501,-833.2,0,0
226330,519.095,-834.076,0,0
226590,515.654,-835.387,0,0
226851,512.166,-836.89,0,0
227111,508.866,-838.714,0,0
227371,505.349,-841.087,0,0
227632,501.246,-843.855,0,0
227892,496.663,-846.537,0,0
228152,491.556,-849.271,0,0
228413,486.066,-851.585,0,0
228673,480.247,-853.335,0,0
228933,474.505,-854.869,0,0
229193,468.802,-856.014,0,0
229454,463.451,-856.957,0,0
229714,457.971,-857.867,0,0
229974,452.66,-858.724,0,0
230235,447.198,-859.483,0,0
230495,441.739,-860.248,0,0
230755,436.092,-860.718,0,0
231016,430.469,-861.05,0,0
231276,424.931,-860.99,0,0
231536,419.503,-860.718,0,0
231797,414.472,-860.395,0,0
232057,409.498,-860.049,0,0
232317,404.554,-859.781,0,0
232578,399.573,-859.382,0,0
232838,394.706,-858.921,0,0
233098,389.852,-858.462,0,0
233359,385.058,-857.917,0,0
233619,380.278,-857.347,0,0
233879,375.452,-856.724,0,0
234140,370.717,-855.952,0,0
234400,366.021,-855.004,0,0
234660.3,361.339,-853.96,0,0
234920.625,357.031,-853.091,0,0
235180.95,352.63,-852.247,0,0
235441.275,348.291,-851.613,0,0
235701.6,343.717,-850.849,0,0
235961.925,338.955,-849.983,0,0
236222.25,334.12,-849.039,0,0
236482.575,329.324,-847.718,0,0
236742.9,324.645,-846.382,0,0
237003.225,320.057,-845.039,0,0
237263.55,315.219,-843.717,0,0
237523.875,310.336,-842.2,0,0
237784.2,305.295,-840.471,0,0
238044.525,300.218,-838.359,0,0
238304.85,295.221,-836.066,0,0
238565.175,290.387,-833.431,0,0
238825.5,285.611,-830.52,0,0
239085.825,281.155,-827.252,0,0
239346.15,277.026,-823.886,0,0
239606.475,273.129,-820.498,0,0
239866.8,269.685,-816.946,0,0
240127.125,266.315,-813.708,0,0
240387.45,263.146,-810.479,0,0
240647.775,259.78,-807.144,0,0
240908.1,256.776,-803.696,0,0
241168.425,253.749,-800.214,0,0
241428.75,250.879,-796.637,0,0
241689.075,248.253,-792.832,0,0
241949.4,246.009,-788.972,0,0
242209.725,244.091,-785.313,0,0
242470.05,242.339,-781.807,0,0
242730.375,240.526,-778.58,0,0
242990.7,238.928,-775.142,0,0
243251.025,237.592,-771.74,0,0
243511.35,236.429,-768.544,0,0
243771.675,235.561,-765.582,0,0
244032.0,234.493,-762.888,0,0
244292.325,233.495,-760.365,0,0
244552.65,232.275,-757.859,0,0
244812.975,231.214,-755.381,0,0
245073.3,230.057,-753.039,0,0
245333.625,228.679,-750.723,0,0
245593.95,227.404,-748.311,0,0
245854.275,226.072,-745.819,0,0
246114.6,224.937,-743.295,0,0
246374.925,223.825,-740.737,0,0
246635.25,222.712,-738.223,0,0
246895.575,221.822,-735.683,0,0
247155.9,220.91,-733.281,0,0
247416.225,220.023,-730.871,0,0
247676.55,219.038,-728.446,0,0
247936.875,218.068,-725.823,0,0
248197.2,217.456,-723.128,0,0
248457.525,216.937,-720.528,0,0
248717.85,216.663,-717.953,0,0
248978.175,216.606,-715.515,0,0
249238.5,216.655,-713.319,0,0
249498.825,216.808,-711.437,0,0
249759.15,216.918,-709.789,0,0
250019.475,216.965,-708.259,0,0
250279.8,216.949,-707.079,0,0
250540,216.677,-706.14,0,0
250800,216.149,-705.192,0,0
251061,215.41,-704.287,0,0
251321,214.415,-703.352,0,0
251581,213.253,-702.237,0,0
251842,211.94,-701.083,0,0
252102,210.438,-699.789,0,0
252362,208.85,-698.279,0,0
252623,207.165,-696.533,0,0
252883,205.484,-694.52,0,0
253143,203.88,-692.293,0,0
253404,202.406,-689.848,0,0
253664,201.029,-687.351,0,0
253924,199.694,-684.663,0,0
254185,198.463,-681.744,0,0
254445,197.449,-678.624,0,0
254705,196.701,-675.466,0,0
254966,196.049,-672.216,0,0
255226,195.602,-668.825,0,0
255486,195.382,-665.27,0,0
255747,195.598,-661.593,0,0
256007,196.279,-657.945,0,0
256267,197.308,-654.488,0,0
256528,198.678,-651.245,0,0
256788,200.279,-648.388,0,0
257048,202.008,-645.794,0,0
257309,203.87,-643.494,0,0
257569,205.711,-641.517,0,0
257829,207.355,-639.719,0,0
258090,208.819,-638.091,0,0
258350,210.222,-636.409,0,0
258610,211.488,-634.496,0,0
258871,213.073,-632.362,0,0
259131,215.037,-630.207,0,0
259391,217.434,-628.191,0,0
259651,220.254,-626.446,0,0
259912,223.303,-625.231,0,0
260172,226.464,-624.463,0,0
260432,229.589,-624.026,0,0
260693,232.845,-623.972,0,0
260953,236.199,-624.385,0,0
261213,239.512,-625.412,0,0
261474,242.508,-626.972,0,0
261734,245.209,-628.99,0,0
261994,247.564,-631.339,0,0
262255,249.432,-634.11,0,0
262515,250.702,-637.1,0,0
262775,251.463,-640.156,0,0
263036,251.768,-643.095,0,0
263296,251.71,-646,0,0
263556,251.375,-648.818,0,0
263817,250.673,-651.683,0,0
264077,249.586,-654.477,0,0
264337,248.046,-657.115,0,0
264598,246.146,-659.535,0,0
264858,244.056,-661.683,0,0
265118,241.722,-663.487,0,0
265379,239.103,-665.18,0,0
265639,236.331,-666.499,0,0
265899,233.37,-667.513,0,0
266160,230.339,-668.179,0,0
266420,227.334,-668.553,0,0
266680.25,224.14,-668.565,0,0
266940.575,220.989,-668.258,0,0
267200.9,217.906,-667.55,0,0
267461.225,214.976,-666.528,0,0
267721.55,212.174,-665.169,0,0
267981.875,209.712,-663.597,0,0
268242.2,207.545,-661.818,0,0
268502.525,205.561,-659.999,0,0
268762.85,203.965,-658.106,0,0
269023.175,202.463,-656.335,0,0
269283.5,201.107,-654.6,0,0
269543.825,199.8,-652.91,0,0
269804.15,198.605,-651.126,0,0
270064.475,197.356,-649.319,0,0
270324.8,196.346,-647.348,0,0
270585.125,195.474,-645.425,0,0
270845.45,194.882,-643.411,0,0
271105.775,194.438,-641.537,0,0
271366.1,194.035,-639.738,0,0
271626.425,193.809,-637.956,0,0
271886.75,193.645,-636.307,0,0
272147.075,193.611,-634.837,0,0
272407.4,193.523,-633.565,0,0
272667.725,193.233,-632.281,0,0
272928.05,192.852,-631.005,0,0
273188.375,192.416,-629.602,0,0
273448.7,192.006,-628.136,0,0
273709.025,191.656,-626.406,0,0
273969.35,191.529,-624.509,0,0
274229.675,191.641,-622.665,0,0
274490.0,191.942,-620.857,0,0
274750.325,192.365,-619.166,0,0
275010.65,192.872,-617.468,0,0
275270.975,193.587,-615.745,0,0
275531.3,194.424,-614.132,0,0
275791.625,195.47,-612.646,0,0
276051.95,196.679,-611.299,0,0
276312.275,197.98,-610.038,0,0
276572.6,199.565,-608.926,0,0
276832.925,201.275,-608.105,0,0
277093.25,203.086,-607.641,0,0
277353.575,204.857,-607.529,0,0
277613.9,206.568,-607.647,0,0
277874.225,208.187,-608.046,0,0
278134.55,209.652,-608.673,0,0
278394.875,210.962,-609.522,0,0
278655.2,212.108,-610.543,0,0
278915.525,213.023,-611.782,0,0
279175.85,213.72,-613.092,0,0
279436.175,214.143,-614.449,0,0
279696.5,214.465,-615.833,0,0
279956.825,214.529,-617.295,0,0
280217.15,214.457,-618.79,0,0
280477.475,214.094,-620.279,0,0
280737.8,213.513,-621.636,0,0
280998.125,212.769,-622.959,0,0
281258.45,211.95,-624.204,0,0
281518.775,210.984,-625.383,0,0
281779.1,209.815,-626.535,0,0
282039.425,208.501,-627.515,0,0
282299.75,207.087,-628.346,0,0
282560,205.605,-629.023,0,0
282820,204.104,-629.603,0,0
283081,202.54,-630.094,0,0
283341,200.948,-630.446,0,0
283601,199.254,-630.744,0,0
283862,197.446,-630.855,0,0
284122,195.656,-630.817,0,0
284382,193.905,-630.651,0,0
284643,192.17,-630.355,0,0
284903,190.435,-629.936,0,0
285163,188.724,-629.392,0,0
285424,187.064,-628.687,0,0
285684,185.453,-627.855,0,0
285944,183.963,-626.902,0,0
286205,182.546,-625.825,0,0
286465,181.252,-624.662,0,0
286725,180.126,-623.463,0,0
286986,179.075,-622.187,0,0
287246,178.218,-620.814,0,0
287506,177.582,-619.476,0,0
287767,177.084,-618.236,0,0
288027,176.687,-617.033,0,0
288287,176.436,-615.941,0,0
288548,176.255,-614.966,0,0
288808,176.121,-614.078,0,0
289068,176.031,-613.343,0,0
289329,175.938,-612.735,0,0
289589,175.807,-612.242,0,0
289849,175.574,-611.798,0,0
290109,175.292,-611.385,0,0
290370,175.036,-611.015,0,0
290630,174.727,-610.714,0,0
290890,174.314,-610.524,0,0
291151,173.783,-610.368,0,0
291411,173.105,-610.144,0,0
291671,172.281,-609.839,0,0
291932,171.413,-609.405,0,0
292192,170.473,-608.806,0,0
292452,169.575,-608.066,0,0
292713,168.747,-607.167,0,0
292973,168.053,-606.139,0,0
293233,167.509,-605.025,0,0
293494,167.141,-603.879,0,0
293754,166.966,-602.767,0,0
294014,166.934,-601.724,0,0
294275,166.996,-600.825,0,0
294535,167.109,-599.961,0,0
294795,167.37,-599.169,0,0
295056,167.671,-598.495,0,0
295316,168.038,-597.962,0,0
295576,168.469,-597.603,0,0
295837,168.884,-597.411,0,0
296097,169.236,-597.371,0,0
296357,169.507,-597.442,0,0
296618,169.746,-597.617,0,0
296878,169.878,-597.903,0,0
297138,169.917,-598.271,0,0
297399,169.837,-598.725,0,0
297659,169.608,-599.228,0,0
297919,169.265,-599.756,0,0
298180,168.748,-600.279,0,0
298440,168.129,-600.731,0,0
298700.2,167.418,-601.125,0,0
298960.525,166.682,-601.488,0,0
299220.85,165.89,-601.802,0,0
299481.175,165.018,-602.095,0,0
299741.5,164.104,-602.355,0,0
300001.825,163.132,-602.588,0,0
300262.15,162.102,-602.764,0,0
300522.475,161.009,-602.919,0,0
300782.8,159.863,-602.998,0,0
301043.125,158.694,-603.02,0,0
301303.45,157.47,-603.001,0,0
301563.775,156.215,-602.885,0,0
301824.1,154.912,-602.698,0,0
302084.425,153.615,-602.43,0,0
302344.75,152.303,-602.084,0,0
302605.075,151.063,-601.645,0,0
302865.4,149.822,-601.156,0,0
303125.725,148.608,-600.651,0,0
303386.05,147.395,-600.101,0,0
303646.375,146.2,-599.522,0,0
303906.7,145.003,-598.876,0,0
304167.025,143.807,-598.171,0,0
304427.35,142.635,-597.406,0,0
304687.675,141.531,-596.57,0,0
304948.0,140.414,-595.724,0,0
305208.325,139.381,-594.803,0,0
305468.65,138.369,-593.852,0,0
305728.975,137.416,-592.845,0,0
305989.3,136.548,-591.787,0,0
306249.625,135.76,-590.726,0,0
306509.95,135.027,-589.675,0,0
306770.275,134.387,-588.614,0,0
307030.6,133.787,-587.583,0,0
307290.925,133.274,-586.554,0,0
307551.25,132.82,-585.556,0,0
307811.575,132.416,-584.608,0,0
308071.9,132.08,-583.734,0,0
308332.225,131.752,-582.943,0,0
308592.55,131.428,-582.225,0,0
308852.875,131.058,-581.547,0,0
309113.2,130.686,-580.919,0,0
309373.525,130.303,-580.29,0,0
309633.85,129.875,-579.743,0,0
309894.175,129.433,-579.198,0,0
310154.5,128.959,-578.675,0,0
310414.825,128.453,-578.2,0,0
310675.15,127.888,-577.723,0,0
310935.475,127.256,-577.211,0,0
311195.8,126.603,-576.708,0,0
311456.125,125.92,-576.185,0,0
311716.45,125.176,-575.666,0,0
311976.775,124.394,-575.105,0,0
312237.1,123.542,-574.475,0,0
312497.425,122.661,-573.789,0,0
312757.75,121.782,-573.012,0,0
313018.075,120.896,-572.173,0,0
313278.4,120.029,-571.267,0,0
313538.725,119.173,-570.272,0,0
313799.05,118.369,-569.207,0,0
314059.375,117.62,-568.093,0,0
314319.7,116.92,-566.9,0,0
314580,116.298,-565.601,0,0
314840,115.781,-564.367,0,0
315101,115.302,-563.025,0,0
315361,114.983,-561.685,0,0
315621,114.762,-560.453,0,0
315882,114.639,-559.117,0,0
316142,114.619,-557.867,0,0
316402,114.627,-556.717,0,0
316663,114.71,-555.663,0,0
316923,114.921,-554.699,0,0
317183,115.1,-553.771,0,0
317444,115.28,-552.97,0,0
317704,115.353,-552.185,0,0
317964,115.548,-551.508,0,0
318225,115.613,-550.961,0,0
318485,115.729,-550.256,0,0
318745,115.726,-549.73,0,0
319006,115.637,-549.104,0,0
319266,115.62,-548.562,0,0
319526,115.593,-547.957,0,0
319787,115.552,-547.292,0,0
320047,115.497,-546.721,0,0
320307,115.436,-546.099,0,0
320567,115.52,-545.409,0,0
320828,115.547,-544.801,0,0
321088,115.63,-544.177,0,0
321348,115.833,-543.617,0,0
321609,116.031,-543.032,0,0
321869,116.356,-542.532,0,0
322129,116.608,-542.092,0,0
322390,116.932,-541.827,0,0
322650,117.214,-541.651,0,0
322910,117.493,-541.578,0,0
323171,117.724,-541.559,0,0
323431,117.819,-541.655,0,0
323691,117.891,-541.781,0,0
323952,117.891,-541.942,0,0
324212,117.826,-542.168,0,0
324472,117.583,-542.392,0,0
324733,117.294,-542.715,0,0
324993,116.851,-542.93,0,0
325253,116.463,-543.163,0,0
325514,115.897,-543.38,0,0
325774,115.306,-543.601,0,0
326034,114.562,-543.706,0,0
326295,113.874,-543.685,0,0
326555,113.08,-543.745,0,0
326815,112.25,-543.726,0,0
327076,111.47,-543.659,0,0
327336,110.549,-543.49,0,0
327596,109.693,-543.31,0,0
327857,108.751,-543.099,0,0
328117,107.842,-542.688,0,0
328377,107.012,-542.441,0,0
328638,106.024,-542.096,0,0
328898,105.105,-541.702,0,0
329158,104.32,-541.157,0,0
329419,103.402,-540.739,0,0
329679,102.531,-540.252,0,0
329939,101.757,-539.695,0,0
330200,100.939,-539.141,0,0
330460,100.113,-538.652,0,0
330720.15,99.2974,-538.045,0,0
330980.475,98.4726,-537.51,0,0
331240.8,97.5649,-536.997,0,0
331501.125,96.7263,-536.432,0,0
331761.45,95.8317,-535.784,0,0
332021.775,94.9851,-535.115,0,0
332282.1,94.0702,-534.403,0,0
332542.425,93.2228,-533.727,0,0
332802.75,92.3487,-532.951,0,0
333063.075,91.4419,-532.192,0,0
333323.4,90.5215,-531.369,0,0
333583.725,89.6726,-530.594,0,0
333844.05,88.7738,-529.714,0,0
334104.375,87.9511,-528.704,0,0
334364.7,87.0555,-527.725,0,0
334625.025,86.2878,-526.644,0,0
334885.35,85.4978,-525.658,0,0
335145.675,84.7689,-524.557,0,0
335406.0,84.0441,-523.397,0,0
335666.325,83.338,-522.298,0,0
335926.65,82.7614,-521.053,0,0
336186.975,82.1817,-519.868,0,0
336447.3,81.6256,-518.703,0,0
336707.625,81.0718,-517.471,0,0
336967.95,80.6424,-516.322,0,0
337228.275,80.2179,-515.026,0,0
337488.6,79.7708,-513.894,0,0
337748.925,79.417,-512.671,0,0
338009.25,78.9572,-511.527,0,0
338269.575,78.5567,-510.276,0,0
338529.9,78.2076,-508.985,0,0
338790.225,77.8992,-507.69,0,0
339050.55,77.633,-506.393,0,0
339310.875,77.4157,-505.067,0,0
339571.2,77.2233,-503.739,0,0
339831.525,77.108,-502.39,0,0
340091.85,77.033,-500.99,0,0
340352.175,77.1388,-499.588,0,0
340612.5,77.2439,-498.263,0,0
340872.825,77.4024,-496.955,0,0
341133.15,77.6729,-495.646,0,0
341393.475,78.0113,-494.376,0,0
341653.8,78.4112,-493.222,0,0
341914.125,78.8684,-492.162,0,0
342174.45,79.3596,-491.13,0,0
342434.775,79.8877,-490.249,0,0
342695.1,80.4166,-489.355,0,0
342955.425,80.8943,-488.645,0,0
343215.75,81.3919,-487.902,0,0
343476.075,81.8896,-487.327,0,0
343736.4,82.3783,-486.828,0,0
343996.725,82.774,-486.353,0,0
344257.05,83.1549,-485.967,0,0
344517.375,83.4505,-485.58,0,0
344777.7,83.6881,-485.336,0,0
345038.025,83.8222,-484.999,0,0
345298.35,83.8684,-484.743,0,0
345558.675,83.8614,-484.363,0,0
345819.0,83.8441,-483.974,0,0
346079.325,83.8195,-483.588,0,0
346339.65,83.7426,-483.139,0,0
346599.975,83.662,-482.669,0,0
346860,83.6059,-482.293,0,0
347121,83.5571,-481.761,0,0
347381,83.4525,-481.229,0,0
347641,83.3937,-480.806,0,0
347902,83.2568,-480.23,0,0
348162,83.1503,-479.7,0,0
348422,82.9649,-479.257,0,0
348683,82.8261,-478.651,0,0
348943,82.6275,-477.969,0,0
349203,82.4586,-477.261,0,0
349464,82.3548,-476.523,0,0
349724,82.4047,-475.687,0,0
349984,82.388,-474.957,0,0
350245,82.5293,-474.203,0,0
350505,82.7283,-473.412,0,0
350765,82.9518,-472.715,0,0
351025,83.2598,-471.989,0,0
351286,83.5974,-471.436,0,0
351546,84.0617,-470.949,0,0
351806,84.4573,-470.577,0,0
352067,84.8212,-470.312,0,0
352327,85.1536,-470.114,0,0
352587,85.3315,-470.007,0,0
352848,85.4907,-469.866,0,0
353108,85.5754,-469.856,0,0
353368,85.5757,-469.806,0,0
353629,85.4571,-469.744,0,0
353889,85.2548,-469.658,0,0
354149,85.0059,-469.506,0,0
354410,84.7493,-469.3,0,0
354670,84.4127,-469.099,0,0
354930,84.1348,-468.761,0,0
355191,83.7984,-468.499,0,0
355451,83.4497,-468.094,0,0
355711,83.1443,-467.719,0,0
355972,82.8306,-467.281,0,0
356232,82.5324,-466.855,0,0
356492,82.2086,-466.367,0,0
356753,81.9489,-465.941,0,0
357013,81.621,-465.403,0,0
357273,81.1985,-464.937,0,0
357534,80.9296,-464.322,0,0
357794,80.5843,-463.745,0,0
358054,80.3024,-463.073,0,0
358315,80.0614,-462.422,0,0
358575,79.813,-461.668,0,0
358835,79.6532,-460.991,0,0
359096,79.5072,-460.274,0,0
359356,79.4415,-459.502,0,0
359616,79.3545,-458.815,0,0
359877,79.3658,-458.143,0,0
360137,79.4007,-457.521,0,0
360397,79.4434,-456.893,0,0
360658,79.437,-456.34,0,0
360918,79.4402,-455.828,0,0
361178,79.397,-455.245,0,0
361438,79.3754,-454.76,0,0
361699,79.3303,-454.237,0,0
361959,79.2943,-453.696,0,0
362219,79.2063,-453.133,0,0
362480,79.1465,-452.563,0,0
362740.1,79.0486,-451.954,0,0
363000.425,79.0162,-451.304,0,0
363260.75,79.0571,-450.595,0,0
363521.075,79.131,-449.897,0,0
363781.4,79.2443,-449.219,0,0
364041.725,79.4798,-448.55,0,0
364302.05,79.7622,-448.006,0,0
364562.375,80.0368,-447.402,0,0
364822.7,80.3853,-447.032,0,0
365083.025,80.7094,-446.74,0,0
365343.35,80.9657,-446.467,0,0
365603.675,81.2368,-446.278,0,0
365864.0,81.4018,-446.217,0,0
366124.325,81.4994,-446.13,0,0
366384.65,81.504,-446.071,0,0
366644.975,81.4476,-446.053,0,0
366905.3,81.2981,-446.025,0,0
367165.625,81.0473,-445.927,0,0
367425.95,80.684,-445.807,0,0
367686.275,80.3775,-445.581,0,0
367946.6,79.9346,-445.338,0,0
368206.925,79.4891,-445.024,0,0
368467.25,79.0178,-444.684,0,0
368727.575,78.5454,-444.16,0,0
368987.9,78.0275,-443.575,0,0
369248.225,77.6093,-442.826,0,0
369508.55,77.2636,-442.046,0,0
369768.875,77.016,-441.192,0,0
370029.2,76.9085,-440.266,0,0
370289.525,76.9578,-439.394,0,0
370549.85,76.9951,-438.501,0,0
370810.175,77.3098,-437.702,0,0
371070.5,77.6657,-437.053,0,0
371330.825,78.0204,-436.509,0,0
371591.15,78.3925,-436.111,0,0
371851.475,78.7531,-435.832,0,0
372111.8,79.0217,-435.62,0,0
372372.125,79.2464,-435.532,0,0
372632.45,79.3093,-435.5,0,0
372892.775,79.3365,-435.495,0,0
373153.1,79.1987,-435.456,0,0
373413.425,78.9651,-435.401,0,0
373673.75,78.6326,-435.247,0,0
373934.075,78.2528,-435.03,0,0
374194.4,77.839,-434.763,0,0
374454.725,77.471,-434.41,0,0
374715.05,77.098,-433.971,0,0
374975.375,76.6664,-433.517,0,0
375235.7,76.2966,-432.98,0,0
375496.025,75.9242,-432.408,0,0
375756.35,75.5493,-431.774,0,0
376016.675,75.3014,-431.072,0,0
376277.0,75.088,-430.299,0,0
376537.325,74.8661,-429.558,0,0
376797.65,74.7674,-428.786,0,0
377057.975,74.7275,-428.039,0,0
377318.3,74.7299,-427.264,0,0
377578.625,74.7813,-426.521,0,0
377838.95,74.8536,-425.827,0,0
378099.275,74.9787,-425.172,0,0
378359.6,75.1189,-424.526,0,0
378619.925,75.2898,-423.954,0,0
378880,75.4182,-423.357,0,0
379141,75.6569,-422.741,0,0
379401,75.913,-422.285,0,0
379661,76.1449,-421.812,0,0
379922,76.384,-421.459,0,0
380182,76.6485,-421.114,0,0
380442,76.839,-420.727,0,0
380703,77.0371,-420.565,0,0
380963,77.1267,-420.299,0,0
381223,77.1691,-420.087,0,0
381483,77.1885,-419.893,0,0
381744,77.2017,-419.604,0,0
382004,77.1475,-419.363,0,0
382264,77.1008,-419.101,0,0
382525,77.1267,-418.8,0,0
382785,77.0342,-418.508,0,0
383045,76.9745,-418.277,0,0
383306,76.9172,-417.982,0,0
383566,76.8673,-417.731,0,0
383826,76.7094,-417.546,0,0
384087,76.5938,-417.285,0,0
384347,76.3675,-417.054,0,0
384607,76.1506,-416.783,0,0
384868,75.8896,-416.453,0,0
385128,75.6116,-416.078,0,0
385388,75.3558,-415.658,0,0
385649,75.1178,-415.261,0,0
385909,74.8486,-414.805,0,0
386169,74.6301,-414.374,0,0
386430,74.3785,-413.896,0,0
386690,74.1483,-413.405,0,0
386950,73.894,-412.891,0,0
387211,73.6698,-412.383,0,0
387471,73.4396,-411.848,0,0
387731,73.177,-411.248,0,0
387992,72.9247,-410.63,0,0
388252,72.7173,-409.988,0,0
388512,72.4775,-409.352,0,0
388773,72.3006,-408.648,0,0
389033,72.1218,-407.903,0,0
389293,71.9758,-407.131,0,0
389554,71.8851,-406.301,0,0
389814,71.8251,-405.497,0,0
390074,71.8438,-404.643,0,0
390335,71.8592,-403.855,0,0
390595,71.9823,-402.991,0,0
390855,72.1279,-402.219,0,0
391116,72.2977,-401.384,0,0
391376,72.5396,-400.542,0,0
391636,72.8441,-399.781,0,0
391896,73.1664,-399.042,0,0
392157,73.593,-398.31,0,0
392417,73.9832,-397.636,0,0
392677,74.4815,-397.039,0,0
392938,74.9342,-396.486,0,0
393198,75.4497,-395.92,0,0
393458,75.9208,-395.499,0,0
393719,76.3856,-395.117,0,0
393979,76.894,-394.733,0,0
394239,77.3837,-394.459,0,0
394500,77.7771,-394.179,0,0
394760.05,78.2781,-393.927,0,0
395020.375,78.6597,-393.691,0,0
395280.7,79.1123,-393.487,0,0
395541.025,79.4968,-393.34,0,0
395801.35,79.8693,-393.264,0,0
396061.675,80.2191,-393.119,0,0
396322.0,80.5535,-393.066,0,0
396582.325,80.8648,-393.037,0,0
396842.65,81.1911,-393.026,0,0
397102.975,81.4729,-393.01,0,0
397363.3,81.7044,-393.083,0,0
397623.625,81.8785,-393.149,0,0
397883.95,82.0425,-393.254,0,0
398144.275,82.165,-393.373,0,0
398404.6,82.21,-393.493,0,0
398664.925,82.1933,-393.605,0,0
398925.25,82.1592,-393.732,0,0
399185.575,82.0827,-393.788,0,0
399445.9,81.9641,-393.804,0,0
399706.225,81.8292,-393.859,0,0
399966.55,81.6574,-393.896,0,0
400006.6,81.6774,-393.921,0,0