File: Accelerated corrosion test data/2025-10-13_06-00-03/sample_7.csv
Frequency (Hz),Impedance (ohms),Phase (Radians),Temperature (C),Humidity (%)
10000.0,278.149,-12110,0,0
10260.325,273.335,-11818.6,0,0
10520.65,262.355,-11519.2,0,0
10780.975,256.957,-11237.7,0,0
11041.3,254.247,-10969.1,0,0
11301.625,251.659,-10712.8,0,0
11561.95,257.826,-10465.8,0,0
11822.275,260.02,-10235.7,0,0
12082.6,278.026,-9999.31,0,0
12342.925,321.267,-9859.91,0,0
12603.25,264.976,-9652.86,0,0
12863.575,263.086,-9484.08,0,0
13123.9,241.371,-9286.25,0,0
13384.225,229.008,-9115.6,0,0
13644.55,225.658,-8940.63,0,0
13904.875,211.731,-8766.83,0,0
14165.2,218.986,-8591.01,0,0
14425.525,207.826,-8448.7,0,0
14685.8,206.329,-8304.73,0,0
14946.175,202.844,-8157.41,0,0
15206.5,196.676,-8027.6,0,0
15466.825,190.659,-7884.73,0,0
15727.15,185.487,-7757.19,0,0
15987.5,182.324,-7626.3,0,0
16247.8,179.686,-7507.17,0,0
16508.125,174.281,-7384.81,0,0
16768.45,175.625,-7266.02,0,0
17028.775,173.157,-7158.06,0,0
17289.1,168.744,-7046.23,0,0
17549.425,167.137,-6937.28,0,0
17809.75,174.64,-6831.26,0,0
18070.075,171.547,-6729.19,0,0
18330.4,188.293,-6625.81,0,0
18590.725,204.962,-6547.89,0,0
18851.05,193.661,-6476.54,0,0
19111.375,189.096,-6374.45,0,0
19371.7,198.427,-6328.15,0,0
19632.025,166.595,-6240.79,0,0
19892.35,163.672,-6137.34,0,0
20152.675,178.855,-6064.28,0,0
20413.0,166.349,-5996.39,0,0
20673.3,172.091,-5912.75,0,0
20933.65,180.563,-5858.02,0,0
21193.975,162.299,-5790.32,0,0
21454.3,158.737,-5713.36,0,0
21714.625,156.863,-5653.1,0,0
21974.9,148.405,-5585.92,0,0
22235.275,145.874,-5518.95,0,0
22495.6,139.911,-5455.77,0,0
22755.925,135.318,-5390.97,0,0
23016.25,131.978,-5326.91,0,0
23276.6,131.196,-5264.12,0,0
23536.9,131.619,-5205.77,0,0
23797.225,128.806,-5148.82,0,0
24057.55,125.887,-5091,0,0
24317.875,125.471,-5033.08,0,0
24578.2,125.626,-4979.86,0,0
24838.525,124.262,-4927.17,0,0
25098.85,122.371,-4873.3,0,0
25359.175,121.231,-4820.76,0,0
25619.5,121.097,-4769.22,0,0
25879.8,120.588,-4718.63,0,0
26140.1,123.106,-4667.38,0,0
26400.5,124.274,-4623.49,0,0
26660.8,122.782,-4572.61,0,0
26921.1,125.753,-4522.8,0,0
27181.4,128.721,-4477.93,0,0
27441.8,134.451,-4427.49,0,0
27702.1,145.217,-4383.1,0,0
27962.4,162.384,-4340.31,0,0
28222.7,180.623,-4315.52,0,0
28483.1,186.614,-4299.23,0,0
28743.4,180.122,-4280.64,0,0
29003.7,164.042,-4255.99,0,0
29264,150.028,-4217.91,0,0
29524.4,142.609,-4180.21,0,0
29784.7,132.938,-4140.78,0,0
30045,132.533,-4099.09,0,0
30305.3,132.474,-4063.46,0,0
30565.7,134.263,-4027.96,0,0
30826,134.96,-3994.24,0,0
31086.3,136.147,-3966.69,0,0
31346.6,136.663,-3937.12,0,0
31607,128.845,-3914.58,0,0
31867.3,122.206,-3879.92,0,0
32127.6,120.328,-3849.33,0,0
32387.9,115.981,-3819.35,0,0
32648.3,111.986,-3788.43,0,0
32908.6,109.35,-3758.15,0,0
33168.9,106.1,-3727.6,0,0
33429.2,102.778,-3698.07,0,0
33689.6,100.567,-3667.83,0,0
33949.9,98.6372,-3638.86,0,0
34210.2,96.8661,-3609.6,0,0
34470.5,95.066,-3581.01,0,0
34730.9,93.7862,-3552.85,0,0
34991.2,92.4763,-3525.35,0,0
35251.5,91.8174,-3498.1,0,0
35511.8,90.6894,-3471.11,0,0
35772.2,90.1874,-3444.7,0,0
36032.5,90.0361,-3418.88,0,0
36292.8,88.8156,-3394.06,0,0
36553.1,88.1041,-3368.61,0,0
36813.5,87.8016,-3343.41,0,0
37073.8,87.4563,-3319.04,0,0
37334.1,87.4305,-3294.92,0,0
37594.4,86.6918,-3271.66,0,0
37854.8,86.3111,-3247.43,0,0
38115.1,86.6405,-3223.92,0,0
38375.4,87.1949,-3200.45,0,0
38635.7,87.8858,-3177.38,0,0
38896.1,89.3351,-3155.33,0,0
39156.4,91.264,-3132.66,0,0
39416.7,94.9252,-3112.05,0,0
39677,98.0612,-3094.45,0,0
39937.4,99.0229,-3077.72,0,0
40197.7,99.274,-3061.98,0,0
40458,96.9745,-3045.96,0,0
40718.3,93.6462,-3027.78,0,0
40978.7,90.754,-3009.66,0,0
41239,87.8374,-2990.28,0,0
41499.3,86.1396,-2970.63,0,0
41759.6,85.0203,-2951.91,0,0
42020,83.0003,-2932.82,0,0
42280.275,81.5027,-2913.41,0,0
42540.6,81.4813,-2894,0,0
42800.925,81.1404,-2875.68,0,0
43061.25,81.9136,-2857.43,0,0
43321.575,81.0455,-2841.39,0,0
43581.9,79.6648,-2822.98,0,0
43842.225,80.4388,-2804.36,0,0
44102.55,82.3158,-2787.72,0,0
44362.875,82.8291,-2772.04,0,0
44623.2,83.611,-2757.43,0,0
44883.525,81.6957,-2742.2,0,0
45143.85,81.4456,-2726.55,0,0
45404.175,80.0538,-2710.64,0,0
45664.5,81.4628,-2694.17,0,0
45924.825,83.2694,-2681.49,0,0
46185.15,80.6987,-2669.46,0,0
46445.475,77.7721,-2655.25,0,0
46705.8,75.0972,-2639.88,0,0
46966.125,73.2011,-2623.79,0,0
47226.45,72.7213,-2608.03,0,0
47486.775,71.8266,-2593.23,0,0
47747.1,71.7077,-2578.11,0,0
48007.425,71.2011,-2563.81,0,0
48267.75,70.6778,-2549.79,0,0
48528.075,70.2025,-2535.64,0,0
48788.4,69.5758,-2521.87,0,0
49048.725,69.038,-2507.78,0,0
49309.05,68.3882,-2494.11,0,0
49569.375,67.9776,-2480.44,0,0
49829.7,67.6491,-2467.05,0,0
50090.025,67.3253,-2453.67,0,0
50350.35,67.1099,-2440.56,0,0
50610.675,66.7753,-2427.54,0,0
50871.0,66.3655,-2414.86,0,0
51131.325,65.8852,-2402.14,0,0
51391.65,65.6177,-2389.45,0,0
51651.975,65.1961,-2376.83,0,0
51912.3,65.0052,-2364.24,0,0
52172.625,64.9664,-2352.25,0,0
52432.95,64.4762,-2340.18,0,0
52693.275,64.5113,-2327.92,0,0
52953.6,64.5082,-2316.23,0,0
53213.925,64.5139,-2304.73,0,0
53474.25,63.9749,-2293.41,0,0
53734.575,63.7377,-2282.18,0,0
53994.9,63.3631,-2270.74,0,0
54255.225,63.0206,-2259.2,0,0
54515.55,62.7571,-2248.12,0,0
54775.875,62.5817,-2237.16,0,0
55036.2,62.3068,-2226.12,0,0
55296.525,62.129,-2215.37,0,0
55556.85,61.7977,-2204.61,0,0
55817.175,61.4827,-2193.8,0,0
56077.5,61.4103,-2182.95,0,0
56337.825,61.4246,-2172.61,0,0
56598.15,61.1587,-2162.3,0,0
56858.475,61.0422,-2152.09,0,0
57118.8,60.7641,-2141.9,0,0
57379.125,60.4212,-2131.82,0,0
57639.45,60.3359,-2121.69,0,0
57899.775,60.2482,-2111.4,0,0
58160.1,60.4737,-2101.51,0,0
58420.4,60.4911,-2091.9,0,0
58680.7,60.531,-2082.59,0,0
58941.1,60.223,-2073.06,0,0
59201.4,59.9895,-2063.42,0,0
59461.7,60.4098,-2054,0,0
59722,60.3459,-2045.08,0,0
59982.4,60.4908,-2035.81,0,0
60242.7,60.6923,-2027.37,0,0
60503,60.311,-2018.8,0,0
60763.3,59.7261,-2010.17,0,0
61023.7,59.3873,-2001.31,0,0
61284,59.0686,-1992.5,0,0
61544.3,58.6613,-1983.96,0,0
61804.6,58.1932,-1975.44,0,0
62065,57.7163,-1966.65,0,0
62325.3,57.4136,-1958.06,0,0
62585.6,57.0659,-1949.4,0,0
62845.9,56.7647,-1940.9,0,0
63106.3,56.5705,-1932.31,0,0
63366.6,56.5271,-1923.73,0,0
63626.9,56.5062,-1915.63,0,0
63887.2,56.2808,-1907.47,0,0
64147.6,56.1418,-1899.31,0,0
64407.9,55.979,-1891.21,0,0
64668.2,55.8786,-1883.08,0,0
64928.5,55.7072,-1875.03,0,0
65188.9,55.8212,-1867.17,0,0
65449.2,55.9248,-1859.57,0,0
65709.5,55.8074,-1852.07,0,0
65969.8,55.6044,-1844.49,0,0
66230.2,55.5309,-1837.27,0,0
66490.5,55.3309,-1829.89,0,0
66750.8,54.8389,-1822.6,0,0
67011.1,54.3435,-1815.18,0,0
67271.5,53.9289,-1807.66,0,0
67531.8,53.7514,-1800.2,0,0
67792.1,53.3781,-1792.93,0,0
68052.4,53.1881,-1785.5,0,0
68312.8,52.9866,-1778.23,0,0
68573.1,52.8089,-1770.96,0,0
68833.4,52.5395,-1763.74,0,0
69093.7,52.3962,-1756.47,0,0
69354.1,52.3732,-1749.44,0,0
69614.4,52.2653,-1742.4,0,0
69874.7,52.0878,-1735.51,0,0
70135,52.141,-1728.5,0,0
70395.4,52.0382,-1721.8,0,0
70655.7,51.9298,-1714.96,0,0
70916,52.019,-1708.23,0,0
71176.3,52.0599,-1701.83,0,0
71436.7,51.7617,-1695.47,0,0
71697,51.494,-1688.91,0,0
71957.3,51.3778,-1682.44,0,0
72217.6,51.1112,-1675.97,0,0
72478,50.9111,-1669.5,0,0
72738.3,50.7344,-1663.01,0,0
72998.6,50.4935,-1656.58,0,0
73258.9,50.3861,-1650.25,0,0
73519.3,50.282,-1643.89,0,0
73779.6,49.9897,-1637.62,0,0
74039.9,49.9272,-1631.34,0,0
74300.225,49.8186,-1625.09,0,0
74560.55,49.757,-1619.03,0,0
74820.875,49.6237,-1612.79,0,0
75081.2,49.5313,-1606.8,0,0
75341.525,49.4076,-1600.77,0,0
75601.85,49.3261,-1594.79,0,0
75862.175,49.1976,-1588.77,0,0
76122.5,49.0347,-1582.85,0,0
76382.825,48.9759,-1576.91,0,0
76643.15,48.9773,-1571.05,0,0
76903.475,48.923,-1565.28,0,0
77163.8,48.8156,-1559.44,0,0
77424.125,48.7384,-1553.7,0,0
77684.45,48.7681,-1548.01,0,0
77944.775,48.6595,-1542.38,0,0
78205.1,48.5417,-1536.72,0,0
78465.425,48.4878,-1531.2,0,0
78725.75,48.4332,-1525.46,0,0
78986.075,48.3457,-1519.93,0,0
79246.4,48.3057,-1514.43,0,0
79506.725,48.3085,-1509.01,0,0
79767.05,48.3343,-1503.55,0,0
80027.375,48.2631,-1498.2,0,0
80287.7,48.1615,-1492.91,0,0
80548.025,48.1577,-1487.65,0,0
80808.35,48.0366,-1482.32,0,0
81068.675,47.9162,-1477.04,0,0
81329.0,47.8911,-1471.77,0,0
81589.325,47.8484,-1466.55,0,0
81849.65,47.764,-1461.29,0,0
82109.975,47.8098,-1456.19,0,0
82370.3,47.7795,-1451.07,0,0
82630.625,47.7034,-1446.01,0,0
82890.95,47.5905,-1440.88,0,0
83151.275,47.5425,-1435.75,0,0
83411.6,47.5676,-1430.69,0,0
83671.925,47.5137,-1425.64,0,0
83932.25,47.5762,-1420.6,0,0
84192.575,47.5951,-1415.69,0,0
84452.9,47.6067,-1410.75,0,0
84713.225,47.703,-1405.8,0,0
84973.55,47.7699,-1401,0,0
85233.875,47.8224,-1396.31,0,0
85494.2,47.8536,-1391.58,0,0
85754.525,47.751,-1386.83,0,0
86014.85,47.8226,-1381.99,0,0
86275.175,47.9913,-1377.29,0,0
86535.5,47.8991,-1372.83,0,0
86795.825,47.8182,-1368.07,0,0
87056.15,47.9291,-1363.34,0,0
87316.475,48.0615,-1358.83,0,0
87576.8,48.0472,-1354.33,0,0
87837.125,48.0502,-1349.87,0,0
88097.45,48.0358,-1345.38,0,0
88357.775,48.004,-1340.99,0,0
88618.1,47.9135,-1336.52,0,0
88878.425,47.8048,-1332.12,0,0
89138.75,47.6963,-1327.47,0,0
89399.075,47.7573,-1322.93,0,0
89659.4,47.6727,-1318.64,0,0
89919.725,47.6248,-1314.05,0,0
90180,47.7157,-1309.52,0,0
90440.4,47.868,-1305.15,0,0
90700.7,47.9685,-1300.83,0,0
90961,47.8712,-1296.6,0,0
91221.3,47.8932,-1292.13,0,0
91481.7,47.9962,-1287.74,0,0
91742,48.1274,-1283.41,0,0
92002.3,48.344,-1279.08,0,0
92262.6,48.5702,-1274.96,0,0
92523,48.5943,-1270.91,0,0
92783.3,48.4593,-1266.65,0,0
93043.6,48.6201,-1262.24,0,0
93303.9,48.8739,-1257.85,0,0
93564.3,49.265,-1253.63,0,0
93824.6,49.7845,-1249.5,0,0
94084.9,50.1425,-1245.77,0,0
94345.2,50.373,-1241.89,0,0
94605.6,50.739,-1237.92,0,0
94865.9,51.3048,-1234.2,0,0
95126.2,51.6807,-1231.11,0,0
95386.5,51.3197,-1227.81,0,0
95646.9,50.8894,-1224.06,0,0
95907.2,50.7565,-1220.19,0,0
96167.5,50.5525,-1216.48,0,0
96427.8,50.2193,-1212.57,0,0
96688.2,50.0554,-1208.47,0,0
96948.5,50.0482,-1204.44,0,0
97208.8,49.9888,-1200.49,0,0
97469.1,50.0763,-1196.44,0,0
97729.5,50.2485,-1192.42,0,0
97989.8,50.5153,-1188.56,0,0
98250.1,50.7789,-1184.88,0,0
98510.4,50.9246,-1181.26,0,0
98770.8,50.9903,-1177.67,0,0
99031.1,51.0264,-1174,0,0
99291.4,50.9181,-1170.35,0,0
99551.7,50.8647,-1166.61,0,0
99812.1,50.7128,-1162.77,0,0
100072,50.7542,-1158.71,0,0
100333,51.0959,-1154.74,0,0
100593,51.3446,-1150.99,0,0
100853,51.6966,-1147.16,0,0
101114,52.1149,-1143.6,0,0
101374,52.2189,-1139.99,0,0
101634,52.5708,-1136.17,0,0
101895,52.9925,-1132.62,0,0
102155,53.2943,-1129.13,0,0
102415,53.5979,-1125.54,0,0
102676,53.9442,-1121.97,0,0
102936,54.4229,-1118.27,0,0
103196,55.0837,-1114.8,0,0
103457,55.8475,-1111.62,0,0
103717,56.3416,-1108.69,0,0
103977,56.5067,-1105.69,0,0
104238,56.734,-1102.44,0,0
104498,57.1778,-1099.33,0,0
104758,57.4314,-1096.44,0,0
105019,57.5816,-1093.46,0,0
105279,57.6245,-1090.57,0,0
105539,57.4816,-1087.58,0,0
105800,57.301,-1084.43,0,0
106060,57.0887,-1081.16,0,0
106320.175,56.9653,-1077.73,0,0
106580.5,57.0638,-1074.1,0,0
106840.825,57.4234,-1070.67,0,0
107101.15,57.764,-1067.52,0,0
107361.475,57.9798,-1064.38,0,0
107621.8,57.959,-1061.27,0,0
107882.125,58.1002,-1057.96,0,0
108142.45,58.2397,-1054.66,0,0
108402.775,58.4736,-1051.34,0,0
108663.1,58.7562,-1048.12,0,0
108923.425,59.0169,-1044.99,0,0
109183.75,59.1668,-1041.96,0,0
109444.075,59.0596,-1038.79,0,0
109704.4,59.0573,-1035.3,0,0
109964.725,59.2987,-1031.78,0,0
110225.05,59.5654,-1028.25,0,0
110485.375,60.0322,-1024.75,0,0
110745.7,60.556,-1021.13,0,0
111006.025,61.2721,-1018.06,0,0
111266.35,61.696,-1014.79,0,0
111526.675,62.3135,-1011.34,0,0
111787.0,63.0271,-1007.91,0,0
112047.325,63.8913,-1004.65,0,0
112307.65,64.8368,-1001.51,0,0
112567.975,65.8186,-998.348,0,0
112828.3,66.7142,-995.355,0,0
113088.625,67.8393,-992.371,0,0
113348.95,68.8795,-989.738,0,0
113609.275,69.6498,-987.007,0,0
113869.6,70.4651,-984.099,0,0
114129.925,71.5518,-981.092,0,0
114390.25,72.8549,-978.404,0,0
114650.575,73.8508,-975.874,0,0
114910.9,75.0079,-973.093,0,0
115171.225,76.4276,-970.444,0,0
115431.55,77.9471,-968.072,0,0
115691.875,79.4375,-965.878,0,0
115952.2,80.9621,-963.692,0,0
116212.525,82.6591,-961.872,0,0
116472.85,84.298,-960.5,0,0
116733.175,85.6016,-959.273,0,0
116993.5,86.5927,-958.176,0,0
117253.825,87.5647,-956.968,0,0
117514.15,88.3946,-955.949,0,0
117774.475,88.9663,-954.832,0,0
118034.8,89.6539,-953.592,0,0
118295.125,90.5772,-952.461,0,0
118555.45,91.4581,-951.742,0,0
118815.775,92.1,-951.245,0,0
119076.1,92.6543,-950.986,0,0
119336.425,93.064,-951.086,0,0
119596.75,92.7818,-951.688,0,0
119857.075,91.5326,-951.926,0,0
120117.4,90.27,-951.692,0,0
120377.725,88.7116,-951.605,0,0
120638.05,86.5142,-951.29,0,0
120898.375,83.8222,-950.227,0,0
121158.7,81.2789,-948.298,0,0
121419.025,79.2758,-945.934,0,0
121679.35,77.6563,-943.703,0,0
121939.675,75.8746,-941.473,0,0
122200.0,74.2189,-938.949,0,0
122460,72.7901,-936.452,0,0
122721,71.2757,-933.987,0,0
122981,69.7253,-931.308,0,0
123241,68.223,-928.435,0,0
123502,66.8912,-925.299,0,0
123762,66.0201,-922.027,0,0
124022,65.4549,-919.13,0,0
124283,64.8101,-916.47,0,0
124543,63.9839,-913.853,0,0
124803,63.0772,-911.147,0,0
125064,62.1543,-908.314,0,0
125324,61.3247,-905.384,0,0
125584,60.6175,-902.41,0,0
125845,60.0898,-899.552,0,0
126105,59.4289,-896.839,0,0
126365,58.6213,-894.024,0,0
126626,57.9524,-891.047,0,0
126886,57.2607,-888.127,0,0
127146,56.5653,-885.035,0,0
127406,56.1142,-881.84,0,0
127667,55.8391,-878.778,0,0
127927,55.6868,-875.899,0,0
128187,55.3454,-873.114,0,0
128448,54.8372,-870.3,0,0
128708,54.3627,-867.325,0,0
128968,54.088,-864.262,0,0
129229,53.8829,-861.412,0,0
129489,53.5185,-858.56,0,0
129749,53.1657,-855.563,0,0
130010,53.0444,-852.489,0,0
130270,53.061,-849.659,0,0
130530,52.827,-847.046,0,0
130791,52.3275,-844.26,0,0
131051,51.9067,-841.2,0,0
131311,51.6372,-838.105,0,0
131572,51.4705,-834.95,0,0
131832,51.459,-831.888,0,0
132092,51.3953,-828.903,0,0
132353,51.3876,-825.852,0,0
132613,51.3392,-822.829,0,0
132873,51.3121,-819.749,0,0
133134,51.3468,-816.643,0,0
133394,51.4227,-813.493,0,0
133654,51.5621,-810.262,0,0
133915,51.9693,-806.948,0,0
134175,52.5662,-803.807,0,0
134435,53.2102,-800.924,0,0
134696,53.7806,-798.076,0,0
134956,54.3852,-795.177,0,0
135216,55.1395,-792.343,0,0
135477,55.9384,-789.705,0,0
135737,56.7313,-787.187,0,0
135997,57.5749,-784.67,0,0
136258,58.5943,-782.381,0,0
136518,59.6642,-780.546,0,0
136778,60.2378,-779.105,0,0
137039,60.3726,-777.515,0,0
137299,60.3421,-775.933,0,0
137559,59.9902,-774.194,0,0
137819,59.6334,-772.191,0,0
138080,59.0281,-770.186,0,0
138340.125,58.327,-767.734,0,0
138600.45,57.7667,-765.029,0,0
138860.775,57.4978,-762.112,0,0
139121.1,57.4226,-759.327,0,0
139381.425,57.2996,-756.558,0,0
139641.75,57.3564,-753.69,0,0
139902.075,57.5686,-751.026,0,0
140162.4,57.6122,-748.442,0,0
140422.725,57.6036,-745.849,0,0
140683.05,57.5575,-743.121,0,0
140943.375,57.5922,-740.347,0,0
141203.7,57.6436,-737.591,0,0
141464.025,57.7177,-734.742,0,0
141724.35,57.9376,-731.913,0,0
141984.675,58.1427,-729.181,0,0
142245.0,58.334,-726.353,0,0
142505.325,58.5357,-723.504,0,0
142765.65,58.8477,-720.591,0,0
143025.975,59.3154,-717.714,0,0
143286.3,59.8752,-714.947,0,0
143546.625,60.401,-712.318,0,0
143806.95,60.9082,-709.734,0,0
144067.275,61.407,-707.153,0,0
144327.6,61.9139,-704.652,0,0
144587.925,62.3406,-702.224,0,0
144848.25,62.7293,-699.768,0,0
145108.575,63.0666,-697.457,0,0
145368.9,63.2176,-695.059,0,0
145629.225,63.3109,-692.53,0,0
145889.55,63.4544,-689.858,0,0
146149.875,63.7122,-687.179,0,0
146410.2,63.9097,-684.56,0,0
146670.525,64.1074,-681.783,0,0
146930.85,64.5037,-678.99,0,0
147191.175,64.8584,-676.337,0,0
147451.5,65.2122,-673.532,0,0
147711.825,65.7873,-670.814,0,0
147972.15,66.3331,-668.401,0,0
148232.475,66.6522,-666.043,0,0
148492.8,66.7634,-663.672,0,0
148753.125,66.6844,-661.189,0,0
149013.45,66.4806,-658.406,0,0
149273.775,66.4659,-655.414,0,0
149534.1,66.5255,-652.405,0,0
149794.425,66.5782,-649.351,0,0
150054.75,66.7294,-646.208,0,0
150315.075,66.8678,-642.984,0,0
150575.4,67.0801,-639.676,0,0
150835.725,67.3677,-636.31,0,0
151096.05,67.7674,-632.885,0,0
151356.375,68.1981,-629.503,0,0
151616.7,68.6674,-626.006,0,0
151877.025,69.2272,-622.431,0,0
152137.35,69.9022,-618.844,0,0
152397.675,70.6577,-615.23,0,0
152658.0,71.5068,-611.589,0,0
152918.325,72.4724,-607.936,0,0
153178.65,73.5232,-604.331,0,0
153438.975,74.5915,-600.763,0,0
153699.3,75.677,-597.118,0,0
153959.625,76.8979,-593.411,0,0
154219.95,78.2058,-589.704,0,0
154480,79.6437,-586.017,0,0
154741,81.1384,-582.362,0,0
155001,82.7077,-578.658,0,0
155261,84.3967,-574.962,0,0
155522,86.2079,-571.286,0,0
155782,88.1376,-567.645,0,0
156042,90.1508,-564.04,0,0
156303,92.2894,-560.456,0,0
156563,94.5558,-556.913,0,0
156823,96.9224,-553.438,0,0
157084,99.4665,-550.032,0,0
157344,102.251,-546.789,0,0
157604,105.058,-543.842,0,0
157864,107.752,-541.08,0,0
158125,110.456,-538.348,0,0
158385,113.347,-535.71,0,0
158645,116.279,-533.472,0,0
158906,119.013,-531.68,0,0
159166,121.264,-530.112,0,0
159426,123.142,-528.416,0,0
159687,124.688,-526.685,0,0
159947,125.83,-524.673,0,0
160207,126.883,-522.309,0,0
160468,127.855,-519.698,0,0
160728,128.639,-516.807,0,0
160988,129.306,-513.423,0,0
161249,130.082,-509.371,0,0
161509,131.36,-504.836,0,0
161769,133.017,-500.047,0,0
162030,135.286,-494.939,0,0
162290,138.223,-490.114,0,0
162550,141.063,-485.501,0,0
162811,144.101,-480.477,0,0
163071,147.73,-475.27,0,0
163331,151.969,-470.146,0,0
163592,156.633,-465.341,0,0
163852,161.563,-460.789,0,0
164112,166.791,-456.338,0,0
164373,172.492,-452.288,0,0
164633,178.322,-448.618,0,0
164893,183.829,-445.449,0,0
165154,189.217,-441.999,0,0
165414,194.52,-438.292,0,0
165674,200.142,-434.099,0,0
165935,206.56,-429.612,0,0
166195,213.953,-425.069,0,0
166455,222.202,-421.065,0,0
166716,230.927,-417.558,0,0
166976,240.334,-414.445,0,0
167236,250.377,-412.061,0,0
167497,260.709,-410.371,0,0
167757,271.418,-409.287,0,0
168017,282.743,-408.732,0,0
168277,294.759,-409.299,0,0
168538,307.102,-411.187,0,0
168798,319.323,-414.452,0,0
169058,331.14,-418.902,0,0
169319,342.598,-424.209,0,0
169579,353.717,-430.429,0,0
169839,364.686,-437.684,0,0
170100,375.325,-446.486,0,0
170360.075,384.587,-456.995,0,0
170620.4,391.945,-467.899,0,0
170880.725,398.186,-478.732,0,0
171141.05,403.553,-489.727,0,0
171401.375,407.952,-500.757,0,0
171661.7,411.682,-511.555,0,0
171922.025,415.567,-522.381,0,0
172182.35,419.196,-534.676,0,0
172442.675,421.098,-548.028,0,0
172703.0,421.301,-561.649,0,0
172963.325,419.887,-575.551,0,0
173223.65,416.145,-589.539,0,0
173483.975,409.805,-602.366,0,0
173744.3,401.663,-612.984,0,0
174004.625,392.974,-621.206,0,0
174264.95,384.736,-627.694,0,0
174525.275,376.623,-633.611,0,0
174785.6,367.668,-638.297,0,0
175045.925,359.143,-641.205,0,0
175306.25,350.639,-643.562,0,0
175566.575,341.601,-643.587,0,0
175826.9,334.627,-641.302,0,0
176087.225,329.598,-639.02,0,0
176347.55,325.217,-636.291,0,0
176607.875,322.575,-632.58,0,0
176868.2,322.3,-629.142,0,0
177128.525,323.748,-627.314,0,0
177388.85,325.314,-626.773,0,0
177649.175,327.775,-626.718,0,0
177909.5,331.408,-628.229,0,0
178169.825,335.424,-632.002,0,0
178430.15,338.557,-638.438,0,0
178690.475,339.708,-646.519,0,0
178950.8,338.731,-655.362,0,0
179211.125,335.498,-664.397,0,0
179471.45,329.692,-672.916,0,0
179731.775,321.943,-678.886,0,0
179992.1,314.843,-682.698,0,0
180252.425,308.587,-685.786,0,0
180512.75,303.051,-688.802,0,0
180773.075,297.884,-692.712,0,0
181033.4,291.145,-697.721,0,0
181293.725,282.309,-701.589,0,0
181554.05,273.239,-703.519,0,0
181814.375,264.513,-704.925,0,0
182074.7,255.066,-705.786,0,0
182335.025,245.062,-705.101,0,0
182595.35,235.484,-702.563,0,0
182855.675,227.414,-698.828,0,0
183116.0,220.678,-695.326,0,0
183376.325,214.03,-692.271,0,0
183636.65,207.17,-688.736,0,0
183896.975,200.651,-684.573,0,0
184157.3,194.603,-679.755,0,0
184417.625,189.667,-674.554,0,0
184677.95,185.59,-669.891,0,0
184938.275,181.506,-665.872,0,0
185198.6,176.949,-661.828,0,0
185458.925,172.249,-657.215,0,0
185719.25,167.903,-651.968,0,0
185979.575,164.274,-646.388,0,0
186239.9,161.268,-640.92,0,0
186500,158.418,-635.711,0,0
186761,155.631,-630.176,0,0
187021,153.498,-624.351,0,0
187281,152.053,-618.739,0,0
187542,150.987,-613.417,0,0
187802,150.349,-608.578,0,0
188062,149.563,-604.279,0,0
188322,148.747,-600.058,0,0
188583,147.907,-596.01,0,0
188843,147.02,-592.026,0,0
189103,146.145,-588.199,0,0
189364,145.069,-584.489,0,0
189624,143.785,-580.676,0,0
189884,142.491,-576.578,0,0
190145,141.422,-572.43,0,0
190405,140.117,-568.409,0,0
190665,138.625,-563.856,0,0
190926,137.596,-558.777,0,0
191186,137.207,-553.742,0,0
191446,137.109,-549.205,0,0
191707,136.627,-544.911,0,0
191967,136.026,-540.361,0,0
192227,135.58,-535.523,0,0
192488,135.289,-530.542,0,0
192748,135.201,-525.314,0,0
193008,135.649,-520.029,0,0
193269,136.416,-514.958,0,0
193529,137.192,-510.153,0,0
193789,137.948,-505.33,0,0
194050,138.797,-500.39,0,0
194310,139.895,-495.367,0,0
194570,141.241,-490.364,0,0
194831,142.886,-485.42,0,0
195091,144.749,-480.695,0,0
195351,146.699,-476.072,0,0
195612,148.887,-471.53,0,0
195872,151.313,-467.302,0,0
196132,153.649,-463.315,0,0
196393,155.893,-459.448,0,0
196653,158.241,-455.565,0,0
196913,160.693,-451.738,0,0
197174,163.308,-448.298,0,0
197434,165.713,-445.258,0,0
197694,167.804,-442.162,0,0
197955,169.669,-438.883,0,0
198215,171.616,-435.591,0,0
198475,173.504,-432.262,0,0
198735,175.319,-428.938,0,0
198996,176.956,-425.506,0,0
199256,178.376,-421.702,0,0
199516,179.94,-417.495,0,0
199777,181.879,-413.04,0,0
200037,184.086,-408.5,0,0
200297,186.627,-403.818,0,0
200558,189.472,-399.332,0,0
200818,192.233,-394.918,0,0
201078,195.13,-390.335,0,0
201339,198.219,-385.497,0,0
201599,201.583,-380.611,0,0
201859,205.377,-375.649,0,0
202120,209.475,-370.688,0,0
202380.025,213.905,-365.766,0,0
202640.35,218.68,-360.944,0,0
202900.675,223.836,-356.297,0,0
203161.0,229.266,-351.858,0,0
203421.325,234.866,-347.574,0,0
203681.65,240.701,-343.431,0,0
203941.975,246.79,-339.388,0,0
204202.3,253.183,-335.512,0,0
204462.625,259.708,-331.883,0,0
204722.95,266.347,-328.189,0,0
204983.275,273.61,-324.304,0,0
205243.6,281.73,-320.725,0,0
205503.925,290.499,-318.002,0,0
205764.25,299.523,-316.058,0,0
206024.575,308.576,-314.931,0,0
206284.9,317.593,-314.455,0,0
206545.225,326.489,-314.789,0,0
206805.55,334.994,-315.883,0,0
207065.875,342.781,-317.486,0,0
207326.2,349.816,-319.217,0,0
207586.525,356.141,-321.041,0,0
207846.85,361.744,-321.826,0,0
208107.175,367.735,-321.982,0,0
208367.5,374.088,-321.864,0,0
208627.825,380.786,-321.274,0,0
208888.15,388.445,-320.127,0,0
209148.475,397.557,-319.238,0,0
209408.8,407.593,-319.329,0,0
209669.125,418.341,-320.29,0,0
209929.45,429.762,-322.363,0,0
210189.775,441.434,-326.066,0,0
210450.1,452.916,-331.221,0,0
210710.425,463.859,-337.761,0,0
210970.75,474.058,-345.433,0,0
211231.075,483.238,-354.126,0,0
211491.4,491.226,-363.227,0,0
211751.725,498.513,-372.714,0,0
212012.05,504.832,-382.733,0,0
212272.375,509.998,-392.918,0,0
212532.7,514.352,-403.002,0,0
212793.025,517.809,-413.195,0,0
213053.35,520.256,-423.14,0,0
213313.675,521.934,-432.416,0,0
213574.0,523.417,-441.115,0,0
213834.325,524.887,-449.623,0,0
214094.65,526.065,-458.297,0,0
214354.975,526.598,-466.855,0,0
214615.3,526.703,-475.036,0,0
214875.625,526.54,-482.798,0,0
215135.95,526.144,-490.071,0,0
215396.275,526.159,-496.912,0,0
215656.6,526.465,-504.048,0,0
215916.925,526.602,-511.363,0,0
216177.25,526.905,-518.903,0,0
216437.575,527.248,-527.107,0,0
216697.9,526.945,-536.353,0,0
216958.225,525.131,-546.067,0,0
217218.55,521.859,-555.168,0,0
217478.875,517.93,-563.424,0,0
217739.2,513.868,-570.856,0,0
217999.525,509.897,-578.048,0,0
218259.85,505.679,-585.655,0,0
218520,500.432,-593.305,0,0
218780,494.168,-600.501,0,0
219041,486.907,-606.932,0,0
219301,478.844,-612.096,0,0
219561,470.561,-616.035,0,0
219822,462.219,-618.601,0,0
220082,454.24,-619.994,0,0
220342,446.875,-620.433,0,0
220603,439.984,-620.3,0,0
220863,433.657,-619.408,0,0
221123,427.968,-617.971,0,0
221384,422.915,-616.171,0,0
221644,418.583,-614.058,0,0
221904,414.914,-611.706,0,0
222165,411.98,-609.175,0,0
222425,409.914,-606.796,0,0
222685,408.438,-604.886,0,0
222946,407.109,-603.29,0,0
223206,405.897,-601.836,0,0
223466,405.052,-600.404,0,0
223727,404.621,-599.34,0,0
223987,404.144,-598.764,0,0
224247,403.433,-598.48,0,0
224508,402.376,-598.013,0,0
224768,401.178,-597.136,0,0
225028,400.148,-595.642,0,0
225289,399.806,-593.662,0,0
225549,400.347,-591.625,0,0
225809,401.614,-589.898,0,0
226070,403.487,-588.619,0,0
226330,405.892,-588.006,0,0
226590,408.39,-587.981,0,0
226851,410.928,-588.544,0,0
227111,413.486,-589.552,0,0
227371,415.919,-590.866,0,0
227632,418.456,-592.568,0,0
227892,420.988,-594.768,0,0
228152,423.226,-597.353,0,0
228413,425.395,-600.125,0,0
228673,427.657,-603.19,0,0
228933,429.893,-606.933,0,0
229193,431.635,-611.334,0,0
229454,432.713,-615.828,0,0
229714,433.619,-620.109,0,0
229974,434.745,-624.522,0,0
230235,436.115,-629.8,0,0
230495,436.565,-636.064,0,0
230755,435.941,-642.469,0,0
231016,434.571,-648.669,0,0
231276,432.624,-654.573,0,0
231536,430.413,-660.083,0,0
231797,428.284,-665.46,0,0
232057,426.096,-671.091,0,0
232317,423.605,-677.268,0,0
232578,420.226,-683.856,0,0
232838,415.592,-690.228,0,0
233098,410.413,-695.787,0,0
233359,405.194,-701.092,0,0
233619,399.423,-706.512,0,0
233879,392.749,-711.589,0,0
234140,385.418,-716.023,0,0
234400,377.617,-719.91,0,0
234660.3,369.097,-723.07,0,0
234920.625,359.796,-725.099,0,0
235180.95,350.499,-725.547,0,0
235441.275,341.863,-724.642,0,0
235701.6,334.102,-722.891,0,0
235961.925,327.043,-720.734,0,0
236222.25,320.611,-718.136,0,0
236482.575,315.083,-715.165,0,0
236742.9,310.531,-712.468,0,0
237003.225,306.374,-710.391,0,0
237263.55,302.333,-708.769,0,0
237523.875,298.12,-707.701,0,0
237784.2,292.945,-706.869,0,0
238044.525,286.927,-705.276,0,0
238304.85,280.736,-702.416,0,0
238565.175,275.031,-698.377,0,0
238825.5,270.244,-693.49,0,0
239085.825,266.691,-688.198,0,0
239346.15,264.298,-682.948,0,0
239606.475,262.859,-678.256,0,0
239866.8,261.978,-674.176,0,0
240127.125,261.584,-670.737,0,0
240387.45,261.601,-667.936,0,0
240647.775,261.277,-666.048,0,0
240908.1,260.832,-664.795,0,0
241168.425,259.735,-663.866,0,0
241428.75,258.372,-662.956,0,0
241689.075,256.656,-662.421,0,0
241949.4,254.166,-661.876,0,0
242209.725,250.793,-660.791,0,0
242470.05,247.313,-658.668,0,0
242730.375,244.276,-655.9,0,0
242990.7,241.605,-652.998,0,0
243251.025,238.947,-649.905,0,0
243511.35,236.376,-646.329,0,0
243771.675,234.314,-642.145,0,0
244032.0,233.043,-637.665,0,0
244292.325,232.596,-633.3,0,0
244552.65,232.824,-629.255,0,0
244812.975,233.546,-625.861,0,0
245073.3,234.269,-622.998,0,0
245333.625,234.989,-620.456,0,0
245593.95,235.805,-618.176,0,0
245854.275,236.602,-616.288,0,0
246114.6,237.24,-614.75,0,0
246374.925,237.667,-613.312,0,0
246635.25,237.853,-612.138,0,0
246895.575,237.761,-610.999,0,0
247155.9,237.322,-609.699,0,0
247416.225,236.834,-608.026,0,0
247676.55,236.409,-606.172,0,0
247936.875,236.132,-604.177,0,0
248197.2,236.112,-602.155,0,0
248457.525,236.15,-600.197,0,0
248717.85,236.213,-598.239,0,0
248978.175,236.378,-596.288,0,0
249238.5,236.594,-594.261,0,0
249498.825,236.901,-592.27,0,0
249759.15,237.214,-590.141,0,0
250019.475,237.723,-587.922,0,0
250279.8,238.513,-585.651,0,0
250540,239.464,-583.405,0,0
250800,240.776,-581.266,0,0
251061,242.149,-579.258,0,0
251321,243.763,-577.421,0,0
251581,245.527,-575.609,0,0
251842,247.539,-573.854,0,0
252102,249.888,-572.377,0,0
252362,252.501,-571.214,0,0
252623,255.301,-570.447,0,0
252883,258.212,-570.157,0,0
253143,261.132,-570.321,0,0
253404,263.932,-570.998,0,0
253664,266.583,-572.12,0,0
253924,268.915,-573.709,0,0
254185,270.835,-575.641,0,0
254445,272.331,-577.786,0,0
254705,273.252,-579.979,0,0
254966,273.947,-582.191,0,0
255226,274.264,-584.404,0,0
255486,274.172,-586.539,0,0
255747,273.834,-588.529,0,0
256007,273.273,-590.345,0,0
256267,272.593,-592.066,0,0
256528,271.659,-593.734,0,0
256788,270.456,-595.254,0,0
257048,268.971,-596.481,0,0
257309,267.458,-597.353,0,0
257569,265.922,-597.998,0,0
257829,264.42,-598.441,0,0
258090,262.943,-598.602,0,0
258350,261.641,-598.595,0,0
258610,260.523,-598.537,0,0
258871,259.511,-598.542,0,0
259131,258.445,-598.562,0,0
259391,257.367,-598.624,0,0
259651,256.227,-598.613,0,0
259912,254.943,-598.55,0,0
260172,253.571,-598.323,0,0
260432,252.148,-597.826,0,0
260693,250.777,-597.12,0,0
260953,249.566,-596.22,0,0
261213,248.416,-595.179,0,0
261474,247.339,-593.898,0,0
261734,246.473,-592.329,0,0
261994,246,-590.562,0,0
262255,245.937,-588.728,0,0
262515,246.294,-586.938,0,0
262775,247.156,-585.258,0,0
263036,248.389,-583.955,0,0
263296,249.835,-583.087,0,0
263556,251.447,-582.574,0,0
263817,253.163,-582.541,0,0
264077,254.732,-583.076,0,0
264337,255.97,-583.996,0,0
264598,256.821,-585.185,0,0
264858,257.197,-586.488,0,0
265118,257.245,-587.658,0,0
265379,256.908,-588.622,0,0
265639,256.39,-589.267,0,0
265899,255.9,-589.444,0,0
266160,255.757,-589.433,0,0
266420,255.959,-589.353,0,0
266680.25,256.475,-589.48,0,0
266940.575,257.145,-589.895,0,0
267200.9,257.759,-590.666,0,0
267461.225,258.32,-591.741,0,0
267721.55,258.628,-593.059,0,0
267981.875,258.531,-594.513,0,0
268242.2,257.995,-595.86,0,0
268502.525,257.224,-596.802,0,0
268762.85,256.538,-597.356,0,0
269023.175,256.139,-597.788,0,0
269283.5,255.845,-598.26,0,0
269543.825,255.551,-598.778,0,0
269804.15,255.307,-599.167,0,0
270064.475,255.179,-599.347,0,0
270324.8,255.373,-599.502,0,0
270585.125,255.916,-599.683,0,0
270845.45,256.79,-600.011,0,0
271105.775,258.013,-600.594,0,0
271366.1,259.623,-601.64,0,0
271626.425,261.484,-603.235,0,0
271886.75,263.509,-605.5,0,0
272147.075,265.505,-608.649,0,0
272407.4,267.188,-612.735,0,0
272667.725,268.216,-617.699,0,0
272928.05,268.357,-623.276,0,0
273188.375,267.427,-629.285,0,0
273448.7,265.355,-635.366,0,0
273709.025,262.283,-641.228,0,0
273969.35,258.31,-646.719,0,0
274229.675,253.608,-651.732,0,0
274490.0,248.414,-656.295,0,0
274750.325,242.49,-660.571,0,0
275010.65,235.728,-664.286,0,0
275270.975,228.408,-667.147,0,0
275531.3,220.536,-668.827,0,0
275791.625,212.669,-669.506,0,0
276051.95,204.92,-669.257,0,0
276312.275,197.38,-668.22,0,0
276572.6,190.092,-666.477,0,0
276832.925,183.049,-664.135,0,0
277093.25,176.327,-661.08,0,0
277353.575,170.091,-657.358,0,0
277613.9,164.472,-653.105,0,0
277874.225,159.462,-648.486,0,0
278134.55,155.123,-643.582,0,0
278394.875,151.489,-638.589,0,0
278655.2,148.473,-633.622,0,0
278915.525,145.932,-628.815,0,0
279175.85,143.652,-624.092,0,0
279436.175,141.767,-619.391,0,0
279696.5,140.298,-614.656,0,0
279956.825,139.324,-610.059,0,0
280217.15,138.723,-605.759,0,0
280477.475,138.447,-601.778,0,0
280737.8,138.365,-598.143,0,0
280998.125,138.41,-594.835,0,0
281258.45,138.546,-591.89,0,0
281518.775,138.568,-589.304,0,0
281779.1,138.4,-586.988,0,0
282039.425,137.936,-584.796,0,0
282299.75,137.172,-582.534,0,0
282560,136.237,-580.034,0,0
282820,135.283,-577.244,0,0
283081,134.441,-574.232,0,0
283341,133.8,-571.02,0,0
283601,133.383,-567.658,0,0
283862,133.279,-564.252,0,0
284122,133.43,-560.908,0,0
284382,133.793,-557.622,0,0
284643,134.364,-554.395,0,0
284903,135.162,-551.262,0,0
285163,136.167,-548.298,0,0
285424,137.322,-545.529,0,0
285684,138.625,-542.915,0,0
285944,140.025,-540.467,0,0
286205,141.595,-538.286,0,0
286465,143.215,-536.429,0,0
286725,144.7,-534.892,0,0
286986,146.058,-533.608,0,0
287246,147.157,-532.431,0,0
287506,148.046,-531.274,0,0
287767,148.802,-530.078,0,0
288027,149.485,-528.785,0,0
288287,150.121,-527.454,0,0
288548,150.722,-526.066,0,0
288808,151.323,-524.623,0,0
289068,151.963,-523.122,0,0
289329,152.621,-521.6,0,0
289589,153.286,-520.082,0,0
289849,153.911,-518.501,0,0
290109,154.553,-516.788,0,0
290370,155.319,-514.943,0,0
290630,156.297,-513.009,0,0
290890,157.54,-511.117,0,0
291151,158.931,-509.344,0,0
291411,160.472,-507.761,0,0
291671,162.028,-506.373,0,0
291932,163.503,-505.092,0,0
292192,164.981,-503.788,0,0
292452,166.5,-502.547,0,0
292713,168.079,-501.377,0,0
292973,169.625,-500.249,0,0
293233,171.245,-499.152,0,0
293494,172.922,-498.096,0,0
293754,174.608,-497.156,0,0
294014,176.282,-496.267,0,0
294275,177.906,-495.401,0,0
294535,179.563,-494.51,0,0
294795,181.298,-493.54,0,0
295056,183.183,-492.615,0,0
295316,185.189,-491.775,0,0
295576,187.251,-491.05,0,0
295837,189.348,-490.409,0,0
296097,191.492,-489.805,0,0
296357,193.737,-489.258,0,0
296618,196.089,-488.795,0,0
296878,198.544,-488.455,0,0
297138,201.07,-488.254,0,0
297399,203.667,-488.18,0,0
297659,206.357,-488.267,0,0
297919,209.107,-488.564,0,0
298180,211.841,-489.054,0,0
298440,214.558,-489.744,0,0
298700.2,217.214,-490.59,0,0
298960.525,219.832,-491.533,0,0
299220.85,222.362,-492.599,0,0
299481.175,224.935,-493.682,0,0
299741.5,227.533,-494.892,0,0
300001.825,230.245,-496.199,0,0
300262.15,233.052,-497.784,0,0
300522.475,235.791,-499.45,0,0
300782.8,238.543,-501.45,0,0
301043.125,241.421,-503.482,0,0
301303.45,244.304,-505.9,0,0
301563.775,247.308,-508.499,0,0
301824.1,250.44,-511.628,0,0
302084.425,253.585,-515.222,0,0
302344.75,256.569,-519.468,0,0
302605.075,259.142,-524.539,0,0
302865.4,261.213,-530.098,0,0
303125.725,262.425,-536.191,0,0
303386.05,262.721,-542.504,0,0
303646.375,262.081,-548.715,0,0
303906.7,260.646,-554.584,0,0
304167.025,258.685,-560.042,0,0
304427.35,256.325,-565.08,0,0
304687.675,253.679,-569.74,0,0
304948.0,250.774,-574.103,0,0
305208.325,247.714,-578.155,0,0
305468.65,244.392,-582.01,0,0
305728.975,240.86,-585.556,0,0
305989.3,237.112,-588.789,0,0
306249.625,233.177,-591.677,0,0
306509.95,229.14,-594.222,0,0
306770.275,225.039,-596.435,0,0
307030.6,220.903,-598.363,0,0
307290.925,216.724,-600.026,0,0
307551.25,212.541,-601.41,0,0
307811.575,208.33,-602.515,0,0
308071.9,204.101,-603.357,0,0
308332.225,199.881,-603.932,0,0
308592.55,195.677,-604.161,0,0
308852.875,191.555,-604.062,0,0
309113.2,187.597,-603.687,0,0
309373.525,183.823,-603.061,0,0
309633.85,180.279,-602.263,0,0
309894.175,176.955,-601.309,0,0
310154.5,173.783,-600.244,0,0
310414.825,170.797,-599.108,0,0
310675.15,168.007,-597.878,0,0
310935.475,165.406,-596.66,0,0
311195.8,162.938,-595.392,0,0
311456.125,160.607,-594.159,0,0
311716.45,158.399,-592.978,0,0
311976.775,156.246,-591.811,0,0
312237.1,154.131,-590.663,0,0
312497.425,152.065,-589.509,0,0
312757.75,150.025,-588.341,0,0
313018.075,147.988,-587.151,0,0
313278.4,145.961,-585.922,0,0
313538.725,143.95,-584.628,0,0
313799.05,141.968,-583.242,0,0
314059.375,140.065,-581.748,0,0
314319.7,138.244,-580.147,0,0
314580,136.545,-578.502,0,0
314840,134.994,-576.802,0,0
315101,133.559,-575.042,0,0
315361,132.291,-573.3,0,0
315621,131.145,-571.567,0,0
315882,130.1,-569.874,0,0
316142,129.182,-568.214,0,0
316402,128.372,-566.634,0,0
316663,127.597,-565.145,0,0
316923,126.879,-563.703,0,0
317183,126.225,-562.316,0,0
317444,125.587,-560.987,0,0
317704,124.998,-559.71,0,0
317964,124.428,-558.51,0,0
318225,123.836,-557.335,0,0
318485,123.269,-556.199,0,0
318745,122.681,-555.034,0,0
319006,122.155,-553.904,0,0
319266,121.687,-552.802,0,0
319526,121.25,-551.738,0,0
319787,120.843,-550.733,0,0
320047,120.412,-549.766,0,0
320307,119.98,-548.832,0,0
320567,119.548,-547.947,0,0
320828,119.123,-547.087,0,0
321088,118.699,-546.237,0,0
321348,118.271,-545.435,0,0
321609,117.822,-544.643,0,0
321869,117.38,-543.86,0,0
322129,116.932,-543.086,0,0
322390,116.499,-542.307,0,0
322650,116.072,-541.572,0,0
322910,115.653,-540.882,0,0
323171,115.212,-540.216,0,0
323431,114.744,-539.595,0,0
323691,114.225,-538.977,0,0
323952,113.657,-538.329,0,0
324212,113.092,-537.641,0,0
324472,112.515,-536.922,0,0
324733,111.959,-536.174,0,0
324993,111.451,-535.389,0,0
325253,110.988,-534.617,0,0
325514,110.586,-533.837,0,0
325774,110.231,-533.133,0,0
326034,109.9,-532.474,0,0
326295,109.565,-531.884,0,0
326555,109.216,-531.34,0,0
326815,108.83,-530.854,0,0
327076,108.41,-530.405,0,0
327336,107.943,-529.977,0,0
327596,107.433,-529.542,0,0
327857,106.874,-529.121,0,0
328117,106.301,-528.686,0,0
328377,105.681,-528.243,0,0
328638,105.045,-527.773,0,0
328898,104.396,-527.291,0,0
329158,103.737,-526.802,0,0
329419,103.073,-526.3,0,0
329679,102.394,-525.798,0,0
329939,101.702,-525.271,0,0
330200,101.025,-524.737,0,0
330460,100.341,-524.214,0,0
330720.15,99.6893,-523.708,0,0
330980.475,98.9598,-523.191,0,0
331240.8,98.2245,-522.656,0,0
331501.125,97.461,-522.179,0,0
331761.45,96.7753,-521.733,0,0
332021.775,95.8692,-521.169,0,0
332282.1,95.0047,-520.623,0,0
332542.425,94.1584,-520.1,0,0
332802.75,93.2338,-519.53,0,0
333063.075,92.2654,-518.971,0,0
333323.4,91.3036,-518.402,0,0
333583.725,90.3532,-517.61,0,0
333844.05,89.2886,-516.921,0,0
334104.375,88.2856,-516.128,0,0
334364.7,87.2637,-515.259,0,0
334625.025,86.2799,-514.381,0,0
334885.35,85.4138,-513.377,0,0
335145.675,84.4082,-512.493,0,0
335406.0,83.4774,-511.495,0,0
335666.325,82.5051,-510.558,0,0
335926.65,81.5807,-509.546,0,0
336186.975,80.6909,-508.468,0,0
336447.3,79.7796,-507.344,0,0
336707.625,78.8961,-506.148,0,0
336967.95,78.0366,-504.948,0,0
337228.275,77.2437,-503.7,0,0
337488.6,76.5271,-502.489,0,0
337748.925,75.7469,-501.202,0,0
338009.25,75.1135,-499.994,0,0
338269.575,74.4777,-498.684,0,0
338529.9,73.8892,-497.418,0,0
338790.225,73.2424,-496.096,0,0
339050.55,72.6063,-494.775,0,0
339310.875,72.0825,-493.561,0,0
339571.2,71.5499,-492.24,0,0
339831.525,71.0759,-490.917,0,0
340091.85,70.5523,-489.595,0,0
340352.175,70.0984,-488.257,0,0
340612.5,69.6187,-486.875,0,0
340872.825,69.2289,-485.503,0,0
341133.15,68.8694,-484.098,0,0
341393.475,68.5443,-482.706,0,0
341653.8,68.2741,-481.322,0,0
341914.125,68.0124,-479.875,0,0
342174.45,67.7973,-478.491,0,0
342434.775,67.6085,-477.133,0,0
342695.1,67.505,-475.709,0,0
342955.425,67.4229,-474.377,0,0
343215.75,67.3691,-472.982,0,0
343476.075,67.4083,-471.643,0,0
343736.4,67.4982,-470.354,0,0
343996.725,67.5841,-469.059,0,0
344257.05,67.7104,-467.834,0,0
344517.375,67.8755,-466.676,0,0
344777.7,68.0217,-465.632,0,0
345038.025,68.1102,-464.515,0,0
345298.35,68.2914,-463.448,0,0
345558.675,68.4536,-462.426,0,0
345819.0,68.6455,-461.47,0,0
346079.325,68.8085,-460.593,0,0
346339.65,68.923,-459.701,0,0
346599.975,69.0191,-458.847,0,0
346860,69.1037,-458.033,0,0
347121,69.1176,-457.251,0,0
347381,69.1039,-456.39,0,0
347641,69.0335,-455.656,0,0
347902,68.9092,-454.813,0,0
348162,68.789,-453.998,0,0
348422,68.5997,-453.164,0,0
348683,68.4201,-452.241,0,0
348943,68.2096,-451.3,0,0
349203,67.9923,-450.309,0,0
349464,67.8449,-449.251,0,0
349724,67.6951,-448.208,0,0
349984,67.5915,-447.127,0,0
350245,67.4841,-445.976,0,0
350505,67.4215,-444.856,0,0
350765,67.3519,-443.663,0,0
351025,67.345,-442.528,0,0
351286,67.3381,-441.316,0,0
351546,67.4306,-440.05,0,0
351806,67.5495,-438.81,0,0
352067,67.6664,-437.609,0,0
352327,67.9312,-436.37,0,0
352587,68.2399,-435.141,0,0
352848,68.691,-433.969,0,0
353108,69.0942,-432.804,0,0
353368,69.5593,-431.727,0,0
353629,70.0547,-430.727,0,0
353889,70.6113,-429.846,0,0
354149,71.0991,-428.886,0,0
354410,71.6245,-428.03,0,0
354670,72.1572,-427.207,0,0
354930,72.7349,-426.473,0,0
355191,73.2888,-425.808,0,0
355451,73.7892,-425.237,0,0
355711,74.3176,-424.707,0,0
355972,74.7635,-424.27,0,0
356232,75.1333,-423.915,0,0
356492,75.4003,-423.542,0,0
356753,75.5901,-423.186,0,0
357013,75.6318,-422.865,0,0
357273,75.675,-422.455,0,0
357534,75.6203,-422.038,0,0
357794,75.5107,-421.562,0,0
358054,75.3197,-421.019,0,0
358315,75.1469,-420.376,0,0
358575,74.9032,-419.626,0,0
358835,74.6862,-418.806,0,0
359096,74.5162,-417.891,0,0
359356,74.3626,-416.97,0,0
359616,74.3504,-415.923,0,0
359877,74.3553,-414.835,0,0
360137,74.4269,-413.833,0,0
360397,74.5106,-412.726,0,0
360658,74.7417,-411.7,0,0
360918,74.9288,-410.539,0,0
361178,75.2635,-409.518,0,0
361438,75.5478,-408.517,0,0
361699,75.8762,-407.455,0,0
361959,76.3231,-406.415,0,0
362219,76.7879,-405.434,0,0
362480,77.2862,-404.463,0,0
362740.1,77.7964,-403.559,0,0
363000.425,78.3259,-402.631,0,0
363260.75,78.9034,-401.81,0,0
363521.075,79.5351,-400.985,0,0
363781.4,80.1122,-400.214,0,0
364041.725,80.6779,-399.407,0,0
364302.05,81.3076,-398.683,0,0
364562.375,81.9462,-397.957,0,0
364822.7,82.6282,-397.297,0,0
365083.025,83.3486,-396.715,0,0
365343.35,84.0579,-396.137,0,0
365603.675,84.7425,-395.675,0,0
365864.0,85.3781,-395.256,0,0
366124.325,86.0031,-394.847,0,0
366384.65,86.5553,-394.504,0,0
366644.975,87.0731,-394.128,0,0
366905.3,87.5636,-393.78,0,0
367165.625,88.0675,-393.46,0,0
367425.95,88.5363,-393.059,0,0
367686.275,88.9886,-392.758,0,0
367946.6,89.4659,-392.375,0,0
368206.925,89.9179,-392.02,0,0
368467.25,90.3967,-391.759,0,0
368727.575,90.8131,-391.465,0,0
368987.9,91.2942,-391.207,0,0
369248.225,91.7384,-390.905,0,0
369508.55,92.2048,-390.755,0,0
369768.875,92.6349,-390.606,0,0
370029.2,93.0141,-390.541,0,0
370289.525,93.2867,-390.503,0,0
370549.85,93.5389,-390.527,0,0
370810.175,93.6896,-390.504,0,0
371070.5,93.6828,-390.476,0,0
371330.825,93.6194,-390.39,0,0
371591.15,93.5366,-390.234,0,0
371851.475,93.3355,-389.988,0,0
372111.8,93.0916,-389.663,0,0
372372.125,92.947,-389.26,0,0
372632.45,92.7476,-388.731,0,0
372892.775,92.601,-388.168,0,0
373153.1,92.4801,-387.521,0,0
373413.425,92.497,-386.85,0,0
373673.75,92.4156,-386.173,0,0
373934.075,92.5058,-385.446,0,0
374194.4,92.6222,-384.708,0,0
374454.725,92.7821,-384.048,0,0
374715.05,92.9655,-383.343,0,0
374975.375,93.2086,-382.663,0,0
375235.7,93.4514,-381.95,0,0
375496.025,93.6745,-381.285,0,0
375756.35,93.9749,-380.691,0,0
376016.675,94.2857,-380.129,0,0
376277.0,94.5829,-379.528,0,0
376537.325,94.793,-378.963,0,0
376797.65,95.0294,-378.404,0,0
377057.975,95.2471,-377.83,0,0
377318.3,95.4542,-377.232,0,0
377578.625,95.6644,-376.597,0,0
377838.95,95.8491,-375.925,0,0
378099.275,96.102,-375.223,0,0
378359.6,96.3655,-374.419,0,0
378619.925,96.7405,-373.653,0,0
378880,97.1401,-372.932,0,0
379141,97.6334,-372.198,0,0
379401,98.0968,-371.473,0,0
379661,98.5961,-370.857,0,0
379922,99.1059,-370.236,0,0
380182,99.6275,-369.67,0,0
380442,100.14,-369.116,0,0
380703,100.635,-368.571,0,0
380963,101.144,-368.025,0,0
381223,101.623,-367.492,0,0
381483,102.141,-366.944,0,0
381744,102.595,-366.425,0,0
382004,103.121,-365.896,0,0
382264,103.641,-365.367,0,0
382525,104.184,-364.814,0,0
382785,104.713,-364.308,0,0
383045,105.277,-363.826,0,0
383306,105.901,-363.336,0,0
383566,106.483,-362.886,0,0
383826,107.052,-362.422,0,0
384087,107.631,-362.008,0,0
384347,108.276,-361.539,0,0
384607,108.856,-361.147,0,0
384868,109.473,-360.808,0,0
385128,110.055,-360.47,0,0
385388,110.564,-360.157,0,0
385649,111.077,-359.82,0,0
385909,111.6,-359.445,0,0
386169,112.122,-359.07,0,0
386430,112.636,-358.675,0,0
386690,113.151,-358.294,0,0
386950,113.656,-357.934,0,0
387211,114.174,-357.574,0,0
387471,114.674,-357.158,0,0
387731,115.12,-356.758,0,0
387992,115.587,-356.252,0,0
388252,116.09,-355.748,0,0
388512,116.655,-355.18,0,0
388773,117.221,-354.56,0,0
389033,117.913,-353.933,0,0
389293,118.68,-353.292,0,0
389554,119.534,-352.7,0,0
389814,120.487,-352.168,0,0
390074,121.482,-351.709,0,0
390335,122.512,-351.351,0,0
390595,123.513,-351.093,0,0
390855,124.497,-350.877,0,0
391116,125.433,-350.689,0,0
391376,126.368,-350.537,0,0
391636,127.258,-350.394,0,0
391896,128.182,-350.234,0,0
392157,129.063,-350.122,0,0
392417,129.948,-350.028,0,0
392677,130.831,-349.953,0,0
392938,131.745,-349.896,0,0
393198,132.578,-349.82,0,0
393458,133.395,-349.775,0,0
393719,134.203,-349.695,0,0
393979,134.99,-349.598,0,0
394239,135.834,-349.435,0,0
394500,136.722,-349.249,0,0
394760.05,137.62,-349.028,0,0
395020.375,138.639,-348.789,0,0
395280.7,139.677,-348.587,0,0
395541.025,140.845,-348.38,0,0
395801.35,142.049,-348.207,0,0
396061.675,143.396,-348.113,0,0
396322.0,144.767,-348.072,0,0
396582.325,146.219,-348.085,0,0
396842.65,147.752,-348.225,0,0
397102.975,149.34,-348.427,0,0
397363.3,151.007,-348.782,0,0
397623.625,152.687,-349.283,0,0
397883.95,154.415,-349.901,0,0
398144.275,156.076,-350.688,0,0
398404.6,157.782,-351.619,0,0
398664.925,159.442,-352.665,0,0
398925.25,161.13,-353.918,0,0
399185.575,162.664,-355.34,0,0
399445.9,164.189,-357.024,0,0
399706.225,165.496,-358.816,0,0
399966.55,166.66,-360.763,0,0
400006.6,166.787,-361.127,0,0