File: Accelerated corrosion test data/2025-10-13_06-00-03/sample_1.csv
Frequency (Hz),Impedance (ohms),Phase (Radians),Temperature (C),Humidity (%)
10000.0,243.564,-12204.4,0,0
10260.325,246.5,-11890.2,0,0
10520.65,233.238,-11611.3,0,0
10780.975,229.362,-11326.9,0,0
11041.3,223.171,-11067.8,0,0
11301.625,217.44,-10810.2,0,0
11561.95,213.851,-10566.1,0,0
11822.275,211.308,-10327.2,0,0
12082.6,235.749,-10096.6,0,0
12342.925,212.984,-9923.18,0,0
12603.25,197.383,-9710.64,0,0
12863.575,193.974,-9508.41,0,0
13123.9,208.369,-9319.47,0,0
13384.225,187.183,-9144.6,0,0
13644.55,184.007,-8964.42,0,0
13904.875,185.474,-8785.59,0,0
14165.2,187.846,-8646.38,0,0
14425.525,213.351,-8490.95,0,0
14685.8,214.986,-8319.27,0,0
14946.175,179.857,-8217.67,0,0
15206.5,188.99,-8055.15,0,0
15466.825,175.822,-7939.49,0,0
15727.15,173.68,-7810.52,0,0
15987.5,162.28,-7679.15,0,0
16247.8,159.083,-7552.83,0,0
16508.125,157.676,-7429.55,0,0
16768.45,162.171,-7312.68,0,0
17028.775,165.717,-7207.03,0,0
17289.1,155.278,-7101.33,0,0
17549.425,154.21,-6999.07,0,0
17809.75,148.626,-6894.09,0,0
18070.075,150.318,-6795.77,0,0
18330.4,143.785,-6698.31,0,0
18590.725,139.192,-6604.33,0,0
18851.05,141.727,-6505.71,0,0
19111.375,136.887,-6424.59,0,0
19371.7,134.608,-6333.09,0,0
19632.025,133.557,-6244.26,0,0
19892.35,137.385,-6159.75,0,0
20152.675,137.851,-6070.35,0,0
20413.0,160.811,-5982.56,0,0
20673.3,168.207,-5942.59,0,0
20933.65,150.665,-5869.93,0,0
21193.975,161.597,-5811.98,0,0
21454.3,143.43,-5736.86,0,0
21714.625,137.808,-5665.48,0,0
21974.9,143.068,-5581.95,0,0
22235.275,174.139,-5545.34,0,0
22495.6,142.044,-5499.04,0,0
22755.925,128.066,-5430.12,0,0
23016.25,124.072,-5362.98,0,0
23276.6,120.442,-5301.94,0,0
23536.9,116.597,-5241.62,0,0
23797.225,114.116,-5178.93,0,0
24057.55,117.419,-5119.3,0,0
24317.875,113.248,-5070.47,0,0
24578.2,113.275,-5011,0,0
24838.525,111.696,-4960.78,0,0
25098.85,113.175,-4907.65,0,0
25359.175,107.557,-4858.01,0,0
25619.5,105.971,-4806.57,0,0
25879.8,104.872,-4754.86,0,0
26140.1,104.691,-4705.62,0,0
26400.5,104.387,-4655.5,0,0
26660.8,106.883,-4604.91,0,0
26921.1,116.742,-4557.85,0,0
27181.4,123.039,-4526.99,0,0
27441.8,110.88,-4490.27,0,0
27702.1,104.949,-4440.8,0,0
27962.4,113.832,-4392.08,0,0
28222.7,112.582,-4353.55,0,0
28483.1,122.808,-4310.95,0,0
28743.4,130.687,-4293.41,0,0
29003.7,118.736,-4254.35,0,0
29264,120.103,-4222.32,0,0
29524.4,108.596,-4187.85,0,0
29784.7,107.607,-4145.64,0,0
30045,102.902,-4113.43,0,0
30305.3,100.627,-4075.24,0,0
30565.7,98.2918,-4036.19,0,0
30826,102.501,-4000.55,0,0
31086.3,103.911,-3972.83,0,0
31346.6,99.8499,-3943.1,0,0
31607,95.12,-3905.53,0,0
31867.3,99.1605,-3873.13,0,0
32127.6,99.2521,-3842.25,0,0
32387.9,98.925,-3816.16,0,0
32648.3,95.0402,-3783.84,0,0
32908.6,97.2159,-3756.76,0,0
33168.9,92.2982,-3728.55,0,0
33429.2,89.2091,-3698.84,0,0
33689.6,87.1384,-3668.82,0,0
33949.9,87.6421,-3638.05,0,0
34210.2,87.3413,-3612.86,0,0
34470.5,84.3746,-3585.32,0,0
34730.9,82.9746,-3557.39,0,0
34991.2,82.2229,-3530.41,0,0
35251.5,81.3289,-3503.25,0,0
35511.8,80.4727,-3476.64,0,0
35772.2,80.2095,-3451.42,0,0
36032.5,78.9997,-3426,0,0
36292.8,78.2743,-3400.46,0,0
36553.1,77.6031,-3375.66,0,0
36813.5,77.1072,-3351.22,0,0
37073.8,76.9762,-3327.36,0,0
37334.1,76.1565,-3303.7,0,0
37594.4,76.2391,-3280.46,0,0
37854.8,74.9477,-3257.81,0,0
38115.1,74.35,-3234.54,0,0
38375.4,74.3678,-3211.68,0,0
38635.7,73.8148,-3190.03,0,0
38896.1,73.1327,-3167.9,0,0
39156.4,73.5117,-3146.02,0,0
39416.7,72.8843,-3125.61,0,0
39677,72.2947,-3104.31,0,0
39937.4,72.0443,-3083.01,0,0
40197.7,72.3695,-3062.64,0,0
40458,71.7376,-3042.57,0,0
40718.3,71.9766,-3021.74,0,0
40978.7,73.5032,-3002.89,0,0
41239,73.2032,-2984.83,0,0
41499.3,72.3919,-2966.39,0,0
41759.6,71.359,-2947.38,0,0
42020,70.9779,-2928.04,0,0
42280.275,71.4561,-2909.94,0,0
42540.6,71.9407,-2892.58,0,0
42800.925,70.807,-2875.47,0,0
43061.25,70.24,-2857.24,0,0
43321.575,69.7186,-2839.86,0,0
43581.9,69.4984,-2822.84,0,0
43842.225,68.8247,-2804.99,0,0
44102.55,68.9389,-2787.6,0,0
44362.875,69.8951,-2770.74,0,0
44623.2,70.0617,-2755.7,0,0
44883.525,68.9551,-2739.38,0,0
45143.85,69.3535,-2723.71,0,0
45404.175,69.3156,-2708.59,0,0
45664.5,68.7297,-2693.47,0,0
45924.825,67.6951,-2678.1,0,0
46185.15,66.8694,-2662.58,0,0
46445.475,66.0879,-2646.98,0,0
46705.8,66.0283,-2631.88,0,0
46966.125,65.8347,-2617.21,0,0
47226.45,65.7139,-2602.25,0,0
47486.775,65.228,-2587.67,0,0
47747.1,64.7324,-2573.44,0,0
48007.425,64.3303,-2559.54,0,0
48267.75,64.4511,-2545.46,0,0
48528.075,63.1276,-2531.72,0,0
48788.4,62.4878,-2517.44,0,0
49048.725,62.4582,-2503.53,0,0
49309.05,62.3653,-2489.57,0,0
49569.375,62.2564,-2476.44,0,0
49829.7,61.7504,-2463.61,0,0
50090.025,60.848,-2450.29,0,0
50350.35,60.5637,-2437,0,0
50610.675,60.3881,-2423.75,0,0
50871.0,60.2526,-2410.85,0,0
51131.325,60.0717,-2397.92,0,0
51391.65,59.8514,-2385.7,0,0
51651.975,59.4303,-2373.29,0,0
51912.3,59.2622,-2360.71,0,0
52172.625,58.9323,-2348.49,0,0
52432.95,58.8642,-2336.35,0,0
52693.275,58.4532,-2324.5,0,0
52953.6,58.3542,-2312.48,0,0
53213.925,58.2412,-2300.62,0,0
53474.25,58.1167,-2289.28,0,0
53734.575,58.1258,-2277.73,0,0
53994.9,57.8111,-2266.59,0,0
54255.225,57.3221,-2255.49,0,0
54515.55,57.006,-2244.02,0,0
54775.875,56.7386,-2232.81,0,0
55036.2,56.4785,-2221.5,0,0
55296.525,56.7015,-2210.62,0,0
55556.85,56.515,-2199.95,0,0
55817.175,56.0742,-2189.34,0,0
56077.5,55.7423,-2178.56,0,0
56337.825,55.7351,-2167.81,0,0
56598.15,55.5437,-2157.23,0,0
56858.475,55.5548,-2146.89,0,0
57118.8,55.351,-2136.53,0,0
57379.125,55.2916,-2126.22,0,0
57639.45,55.3681,-2116.19,0,0
57899.775,55.3284,-2106.23,0,0
58160.1,55.1675,-2096.34,0,0
58420.4,55.0644,-2086.54,0,0
58680.7,54.9952,-2076.78,0,0
58941.1,54.9845,-2066.92,0,0
59201.4,55.1929,-2057.5,0,0
59461.7,55.0341,-2048.34,0,0
59722,54.773,-2038.74,0,0
59982.4,54.9132,-2029.36,0,0
60242.7,54.7191,-2020.15,0,0
60503,54.9067,-2010.89,0,0
60763.3,55.1738,-2002.35,0,0
61023.7,54.6597,-1993.78,0,0
61284,54.2203,-1984.68,0,0
61544.3,54.1486,-1975.48,0,0
61804.6,54.2199,-1966.85,0,0
62065,53.7803,-1958.37,0,0
62325.3,53.369,-1949.58,0,0
62585.6,53.251,-1940.76,0,0
62845.9,53.1298,-1931.98,0,0
63106.3,53.174,-1923.37,0,0
63366.6,53.0417,-1914.9,0,0
63626.9,53.18,-1906.26,0,0
63887.2,53.1617,-1897.78,0,0
64147.6,53.1957,-1889.37,0,0
64407.9,53.3846,-1881.15,0,0
64668.2,53.5865,-1872.67,0,0
64928.5,54.1878,-1864.45,0,0
65188.9,54.658,-1856.5,0,0
65449.2,55.4726,-1848.91,0,0
65709.5,56.0011,-1842.01,0,0
65969.8,55.7774,-1834.97,0,0
66230.2,55.5725,-1827.67,0,0
66490.5,55.4236,-1820.27,0,0
66750.8,55.393,-1813.32,0,0
67011.1,54.6884,-1805.95,0,0
67271.5,54.4596,-1797.87,0,0
67531.8,55.0387,-1790.74,0,0
67792.1,55.2328,-1784.23,0,0
68052.4,54.6904,-1777.54,0,0
68312.8,53.9126,-1770.29,0,0
68573.1,53.5183,-1762.78,0,0
68833.4,54.0066,-1755.6,0,0
69093.7,53.8936,-1748.74,0,0
69354.1,53.6468,-1742.17,0,0
69614.4,53.2642,-1735.55,0,0
69874.7,52.8549,-1728.66,0,0
70135,52.3818,-1721.98,0,0
70395.4,51.8397,-1714.96,0,0
70655.7,51.3764,-1708.08,0,0
70916,51.2156,-1701.14,0,0
71176.3,50.9749,-1694.24,0,0
71436.7,50.8003,-1687.69,0,0
71697,50.2561,-1681.15,0,0
71957.3,49.8359,-1674.35,0,0
72217.6,49.378,-1667.43,0,0
72478,49.1298,-1660.54,0,0
72738.3,48.9713,-1653.65,0,0
72998.6,49.0184,-1646.91,0,0
73258.9,48.9231,-1640.26,0,0
73519.3,48.7051,-1633.77,0,0
73779.6,48.6227,-1626.95,0,0
74039.9,48.7925,-1620.45,0,0
74300.225,48.7054,-1614,0,0
74560.55,48.7716,-1607.53,0,0
74820.875,49.0178,-1601.1,0,0
75081.2,49.1332,-1594.9,0,0
75341.525,49.0287,-1588.69,0,0
75601.85,48.9625,-1582.23,0,0
75862.175,49.2861,-1575.82,0,0
76122.5,49.6024,-1569.81,0,0
76382.825,50.0105,-1563.87,0,0
76643.15,49.9933,-1557.94,0,0
76903.475,50.0636,-1551.89,0,0
77163.8,50.3913,-1546.03,0,0
77424.125,50.5076,-1540.2,0,0
77684.45,50.708,-1534.38,0,0
77944.775,50.8563,-1528.4,0,0
78205.1,51.4521,-1522.6,0,0
78465.425,51.9228,-1517.11,0,0
78725.75,52.3464,-1511.96,0,0
78986.075,52.4516,-1506.73,0,0
79246.4,52.4517,-1501.64,0,0
79506.725,52.3659,-1496.46,0,0
79767.05,52.0062,-1491.12,0,0
80027.375,51.8706,-1485.75,0,0
80287.7,51.5898,-1480.42,0,0
80548.025,51.2455,-1474.78,0,0
80808.35,51.1546,-1469.25,0,0
81068.675,51.0989,-1463.66,0,0
81329.0,51.1016,-1458.05,0,0
81589.325,51.1565,-1452.6,0,0
81849.65,51.3321,-1447.18,0,0
82109.975,51.443,-1441.73,0,0
82370.3,51.5511,-1436.51,0,0
82630.625,51.5849,-1431.21,0,0
82890.95,51.6149,-1425.75,0,0
83151.275,51.9609,-1420.34,0,0
83411.6,52.1223,-1415.02,0,0
83671.925,52.4033,-1409.85,0,0
83932.25,52.774,-1404.61,0,0
84192.575,53.1488,-1399.43,0,0
84452.9,53.6378,-1394.3,0,0
84713.225,53.9273,-1389.36,0,0
84973.55,54.4207,-1384.42,0,0
85233.875,54.9572,-1379.52,0,0
85494.2,55.3563,-1375.02,0,0
85754.525,55.4999,-1370.42,0,0
86014.85,55.6276,-1365.67,0,0
86275.175,55.7636,-1360.85,0,0
86535.5,56.0696,-1356.28,0,0
86795.825,56.1435,-1351.57,0,0
87056.15,56.3236,-1346.67,0,0
87316.475,56.7963,-1342.23,0,0
87576.8,56.7161,-1337.69,0,0
87837.125,56.6533,-1333.02,0,0
88097.45,56.6898,-1328.11,0,0
88357.775,56.7677,-1323.18,0,0
88618.1,57.2645,-1318.12,0,0
88878.425,57.6415,-1313.36,0,0
89138.75,57.9791,-1308.6,0,0
89399.075,58.4425,-1303.66,0,0
89659.4,59.0485,-1298.98,0,0
89919.725,59.8577,-1294.24,0,0
90180,60.4144,-1289.68,0,0
90440.4,61.1475,-1285,0,0
90700.7,61.8555,-1280.41,0,0
90961,62.7328,-1275.75,0,0
91221.3,64.2284,-1270.94,0,0
91481.7,65.551,-1267.06,0,0
91742,66.6314,-1262.98,0,0
92002.3,67.8171,-1258.94,0,0
92262.6,69.1455,-1255.04,0,0
92523,70.5316,-1251.01,0,0
92783.3,72.4806,-1247.6,0,0
93043.6,73.9954,-1244.94,0,0
93303.9,75.5322,-1241.92,0,0
93564.3,77.5075,-1239.48,0,0
93824.6,79.438,-1238.76,0,0
94084.9,79.0761,-1238.87,0,0
94345.2,76.8501,-1237.82,0,0
94605.6,74.838,-1234.7,0,0
94865.9,73.4669,-1232.05,0,0
95126.2,71.6637,-1228.55,0,0
95386.5,70.3563,-1225.09,0,0
95646.9,68.7297,-1221.22,0,0
95907.2,67.2374,-1216.5,0,0
96167.5,66.9472,-1211.56,0,0
96427.8,67.3426,-1207.68,0,0
96688.2,66.6267,-1204.4,0,0
96948.5,65.6861,-1200.29,0,0
97208.8,65.2049,-1195.98,0,0
97469.1,64.8393,-1191.7,0,0
97729.5,64.7114,-1187.38,0,0
97989.8,64.7482,-1183.15,0,0
98250.1,65.0827,-1179.29,0,0
98510.4,64.9697,-1175.78,0,0
98770.8,64.4862,-1171.99,0,0
99031.1,64.1858,-1167.86,0,0
99291.4,64.0917,-1163.84,0,0
99551.7,63.9957,-1159.81,0,0
99812.1,64.0649,-1155.8,0,0
100072,63.9743,-1151.91,0,0
100333,63.8155,-1147.96,0,0
100593,63.8472,-1143.85,0,0
100853,63.9218,-1139.91,0,0
101114,63.9547,-1135.97,0,0
101374,63.8838,-1132.14,0,0
101634,63.6058,-1128.08,0,0
101895,63.2712,-1123.72,0,0
102155,63.2244,-1118.96,0,0
102415,63.697,-1114.08,0,0
102676,64.657,-1109.45,0,0
102936,65.7621,-1105.36,0,0
103196,66.5497,-1101.33,0,0
103457,67.3938,-1097.26,0,0
103717,68.2568,-1093.03,0,0
103977,69.5655,-1088.81,0,0
104238,71.2703,-1084.86,0,0
104498,72.9111,-1081.6,0,0
104758,74.2226,-1078.55,0,0
105019,75.044,-1075.58,0,0
105279,75.9467,-1072.01,0,0
105539,77.1581,-1068.52,0,0
105800,78.493,-1065.15,0,0
106060,80.0683,-1062.02,0,0
106320.175,81.579,-1059.21,0,0
106580.5,82.9375,-1056.59,0,0
106840.825,84.1032,-1054.04,0,0
107101.15,85.3436,-1051.33,0,0
107361.475,86.6814,-1049.05,0,0
107621.8,87.5806,-1046.91,0,0
107882.125,88.3735,-1044.55,0,0
108142.45,89.2328,-1042.19,0,0
108402.775,90.1005,-1039.71,0,0
108663.1,91.158,-1037.37,0,0
108923.425,92.1314,-1035.37,0,0
109183.75,93.0893,-1033.45,0,0
109444.075,93.9079,-1031.84,0,0
109704.4,94.4262,-1030.37,0,0
109964.725,94.4343,-1028.8,0,0
110225.05,94.1404,-1027.07,0,0
110485.375,93.6651,-1024.75,0,0
110745.7,93.5985,-1022.11,0,0
111006.025,93.7175,-1019.67,0,0
111266.35,93.9676,-1017,0,0
111526.675,94.7225,-1014.61,0,0
111787.0,95.1795,-1012.36,0,0
112047.325,95.7276,-1010.16,0,0
112307.65,96.2076,-1008.24,0,0
112567.975,96.6106,-1006.37,0,0
112828.3,97.0465,-1004.54,0,0
113088.625,97.3833,-1002.93,0,0
113348.95,97.4726,-1001.42,0,0
113609.275,97.3936,-999.984,0,0
113869.6,97.1658,-998.511,0,0
114129.925,96.7395,-997.017,0,0
114390.25,96.0817,-995.313,0,0
114650.575,95.5766,-993.505,0,0
114910.9,94.9759,-991.71,0,0
115171.225,94.2204,-989.933,0,0
115431.55,93.2612,-988.102,0,0
115691.875,92.1899,-986.134,0,0
115952.2,91.059,-983.813,0,0
116212.525,90.0856,-981.389,0,0
116472.85,89.1327,-978.917,0,0
116733.175,88.2433,-976.447,0,0
116993.5,87.194,-973.863,0,0
117253.825,86.2219,-971.212,0,0
117514.15,85.2212,-968.121,0,0
117774.475,84.3891,-965.1,0,0
118034.8,83.7617,-961.922,0,0
118295.125,83.2843,-958.922,0,0
118555.45,82.7072,-955.883,0,0
118815.775,82.2915,-952.711,0,0
119076.1,82.0556,-949.516,0,0
119336.425,81.8978,-946.448,0,0
119596.75,81.7894,-943.392,0,0
119857.075,81.8121,-940.391,0,0
120117.4,81.8666,-937.483,0,0
120377.725,81.9417,-934.675,0,0
120638.05,82.0711,-932.005,0,0
120898.375,82.1858,-929.506,0,0
121158.7,82.0221,-927.117,0,0
121419.025,81.7378,-924.624,0,0
121679.35,81.3825,-922.087,0,0
121939.675,80.9185,-919.418,0,0
122200.0,80.4909,-916.586,0,0
122460,80.178,-913.715,0,0
122721,79.8447,-910.804,0,0
122981,79.5155,-907.914,0,0
123241,79.2505,-904.84,0,0
123502,79.122,-901.77,0,0
123762,79.0866,-898.68,0,0
124022,79.0867,-895.66,0,0
124283,79.1221,-892.633,0,0
124543,79.2121,-889.619,0,0
124803,79.3798,-886.681,0,0
125064,79.5043,-883.746,0,0
125324,79.5956,-880.823,0,0
125584,79.836,-877.804,0,0
125845,80.1031,-874.934,0,0
126105,80.3072,-872.058,0,0
126365,80.5448,-869.239,0,0
126626,80.7851,-866.28,0,0
126886,81.0195,-863.519,0,0
127146,81.3224,-860.553,0,0
127406,81.6377,-857.722,0,0
127667,81.9118,-854.804,0,0
127927,82.3672,-851.898,0,0
128187,82.8245,-849.008,0,0
128448,83.2579,-846.285,0,0
128708,83.7634,-843.562,0,0
128968,84.128,-840.745,0,0
129229,84.479,-837.824,0,0
129489,85.0535,-834.869,0,0
129749,85.665,-831.83,0,0
130010,86.5696,-828.928,0,0
130270,87.5569,-826.147,0,0
130530,88.575,-823.568,0,0
130791,89.5441,-821.022,0,0
131051,90.5273,-818.59,0,0
131311,91.5478,-816.28,0,0
131572,92.5228,-814.145,0,0
131832,93.3101,-812.071,0,0
132092,94.068,-809.962,0,0
132353,94.6915,-807.939,0,0
132613,95.2433,-805.766,0,0
132873,95.9017,-803.56,0,0
133134,96.5646,-801.444,0,0
133394,97.1629,-799.34,0,0
133654,97.7725,-797.174,0,0
133915,98.4025,-795.016,0,0
134175,99.1074,-792.953,0,0
134435,99.7239,-790.927,0,0
134696,100.318,-788.919,0,0
134956,100.745,-786.834,0,0
135216,101.333,-784.777,0,0
135477,101.842,-782.647,0,0
135737,102.409,-780.549,0,0
135997,102.895,-778.338,0,0
136258,103.534,-776.036,0,0
136518,104.44,-773.754,0,0
136778,105.413,-771.731,0,0
137039,106.286,-769.765,0,0
137299,107.381,-767.792,0,0
137559,108.576,-766.207,0,0
137819,109.512,-764.973,0,0
138080,110.12,-763.774,0,0
138340.125,110.533,-762.422,0,0
138600.45,111.045,-761.055,0,0
138860.775,111.352,-759.903,0,0
139121.1,111.358,-758.607,0,0
139381.425,111.368,-757.163,0,0
139641.75,111.256,-755.722,0,0
139902.075,111.031,-754.111,0,0
140162.4,110.723,-752.373,0,0
140422.725,110.513,-750.442,0,0
140683.05,110.318,-748.379,0,0
140943.375,110.231,-746.332,0,0
141203.7,110.145,-744.157,0,0
141464.025,110.239,-741.99,0,0
141724.35,110.243,-739.942,0,0
141984.675,110.157,-737.638,0,0
142245.0,110.361,-735.197,0,0
142505.325,110.776,-732.984,0,0
142765.65,110.989,-730.927,0,0
143025.975,111.211,-728.657,0,0
143286.3,111.434,-726.518,0,0
143546.625,111.722,-724.284,0,0
143806.95,112.022,-722.061,0,0
144067.275,112.374,-719.854,0,0
144327.6,112.72,-717.71,0,0
144587.925,112.949,-715.486,0,0
144848.25,113.251,-713.168,0,0
145108.575,113.596,-710.705,0,0
145368.9,114.268,-708.241,0,0
145629.225,115.048,-705.951,0,0
145889.55,115.827,-703.854,0,0
146149.875,116.491,-701.883,0,0
146410.2,117.074,-699.82,0,0
146670.525,117.779,-697.664,0,0
146930.85,118.748,-695.696,0,0
147191.175,119.591,-694.135,0,0
147451.5,120.111,-692.699,0,0
147711.825,120.294,-691.121,0,0
147972.15,120.341,-689.299,0,0
148232.475,120.475,-687.15,0,0
148492.8,120.894,-685.01,0,0
148753.125,121.245,-682.901,0,0
149013.45,121.766,-680.658,0,0
149273.775,122.553,-678.543,0,0
149534.1,123.451,-676.774,0,0
149794.425,124.107,-675.322,0,0
150054.75,124.389,-673.965,0,0
150315.075,124.476,-672.427,0,0
150575.4,124.404,-670.833,0,0
150835.725,124.122,-669.131,0,0
151096.05,123.652,-667.079,0,0
151356.375,123.388,-664.682,0,0
151616.7,123.331,-662.263,0,0
151877.025,123.236,-659.964,0,0
152137.35,122.977,-657.561,0,0
152397.675,122.679,-654.864,0,0
152658.0,122.428,-651.904,0,0
152918.325,122.351,-648.643,0,0
153178.65,122.717,-645.265,0,0
153438.975,123.235,-642.07,0,0
153699.3,123.737,-638.871,0,0
153959.625,124.397,-635.521,0,0
154219.95,125.202,-632.197,0,0
154480,126.091,-628.79,0,0
154741,127.208,-625.232,0,0
155001,128.708,-621.841,0,0
155261,130.072,-618.666,0,0
155522,131.529,-615.202,0,0
155782,133.385,-611.68,0,0
156042,135.599,-608.342,0,0
156303,137.919,-605.451,0,0
156563,140.087,-602.694,0,0
156823,142.274,-599.733,0,0
157084,144.917,-596.735,0,0
157344,147.985,-594.301,0,0
157604,150.816,-592.395,0,0
157864,153.279,-590.683,0,0
158125,155.606,-588.837,0,0
158385,158.042,-587.055,0,0
158645,160.148,-585.644,0,0
158906,161.787,-583.835,0,0
159166,163.592,-581.575,0,0
159426,165.605,-579.053,0,0
159687,167.994,-576.33,0,0
159947,170.925,-573.593,0,0
160207,174.361,-571.181,0,0
160468,177.997,-569.152,0,0
160728,181.803,-567.46,0,0
160988,185.739,-566.074,0,0
161249,189.768,-565.167,0,0
161509,193.707,-564.76,0,0
161769,197.537,-564.686,0,0
162030,201.171,-565.027,0,0
162290,204.258,-565.813,0,0
162550,206.876,-566.482,0,0
162811,209.206,-566.989,0,0
163071,211.483,-567.4,0,0
163331,213.639,-567.703,0,0
163592,215.878,-567.858,0,0
163852,218.168,-568.178,0,0
164112,220.282,-568.579,0,0
164373,222.339,-568.846,0,0
164633,224.497,-569.044,0,0
164893,226.757,-569.208,0,0
165154,229.259,-569.449,0,0
165414,232.004,-569.904,0,0
165674,235.043,-570.828,0,0
165935,237.906,-572.451,0,0
166195,240.242,-574.58,0,0
166455,242.032,-576.73,0,0
166716,243.416,-578.719,0,0
166976,244.851,-580.581,0,0
167236,246.35,-582.76,0,0
167497,247.463,-585.329,0,0
167757,247.981,-587.892,0,0
168017,248.218,-590.342,0,0
168277,248.212,-592.764,0,0
168538,247.906,-595.211,0,0
168798,247.18,-597.71,0,0
169058,245.845,-599.957,0,0
169319,244.202,-601.777,0,0
169579,242.253,-603.227,0,0
169839,240.18,-604.133,0,0
170100,238.073,-604.611,0,0
170360.075,236.146,-604.617,0,0
170620.4,234.449,-604.522,0,0
170880.725,232.794,-604.239,0,0
171141.05,231.174,-603.663,0,0
171401.375,229.745,-602.859,0,0
171661.7,228.633,-601.934,0,0
171922.025,227.673,-601.065,0,0
172182.35,226.734,-600.107,0,0
172442.675,226.134,-599.035,0,0
172703.0,225.797,-598.33,0,0
172963.325,225.157,-597.886,0,0
173223.65,224.225,-597.251,0,0
173483.975,223.313,-596.322,0,0
173744.3,222.52,-595.246,0,0
174004.625,221.84,-593.993,0,0
174264.95,221.481,-592.678,0,0
174525.275,221.293,-591.52,0,0
174785.6,221.189,-590.55,0,0
175045.925,220.955,-589.629,0,0
175306.25,220.765,-588.535,0,0
175566.575,220.952,-587.405,0,0
175826.9,221.289,-586.785,0,0
176087.225,221.266,-586.434,0,0
176347.55,221.032,-586.016,0,0
176607.875,220.765,-585.625,0,0
176868.2,220.279,-585.228,0,0
177128.525,219.667,-584.608,0,0
177388.85,219.216,-583.784,0,0
177649.175,218.984,-583.026,0,0
177909.5,218.853,-582.55,0,0
178169.825,218.447,-582.308,0,0
178430.15,217.76,-582.011,0,0
178690.475,216.965,-581.575,0,0
178950.8,216.075,-581.005,0,0
179211.125,215.174,-580.35,0,0
179471.45,214.367,-579.744,0,0
179731.775,213.445,-579.286,0,0
179992.1,212.161,-578.665,0,0
180252.425,210.719,-577.858,0,0
180512.75,209.35,-576.771,0,0
180773.075,208.106,-575.666,0,0
181033.4,206.799,-574.559,0,0
181293.725,205.408,-573.325,0,0
181554.05,203.928,-572.024,0,0
181814.375,202.42,-570.511,0,0
182074.7,200.973,-568.942,0,0
182335.025,199.397,-567.32,0,0
182595.35,197.711,-565.45,0,0
182855.675,196.08,-563.288,0,0
183116.0,194.572,-561.031,0,0
183376.325,193.005,-558.66,0,0
183636.65,191.424,-556.019,0,0
183896.975,190.004,-553.097,0,0
184157.3,188.796,-549.964,0,0
184417.625,187.855,-546.724,0,0
184677.95,186.998,-543.452,0,0
184938.275,186.34,-539.925,0,0
185198.6,186.079,-536.365,0,0
185458.925,186.131,-532.992,0,0
185719.25,186.149,-529.77,0,0
185979.575,186.221,-526.457,0,0
186239.9,186.584,-523.133,0,0
186500,187.133,-520.049,0,0
186761,187.503,-517.088,0,0
187021,187.746,-514.086,0,0
187281,188.231,-510.904,0,0
187542,188.945,-507.741,0,0
187802,189.714,-504.878,0,0
188062,190.293,-501.992,0,0
188322,190.93,-499.106,0,0
188583,191.549,-496.126,0,0
188843,192.261,-493.131,0,0
189103,193.091,-490.294,0,0
189364,193.817,-487.243,0,0
189624,194.696,-484.265,0,0
189884,195.504,-481.404,0,0
190145,196.311,-478.312,0,0
190405,197.221,-475.144,0,0
190665,198.355,-471.905,0,0
190926,199.577,-468.871,0,0
191186,200.659,-465.924,0,0
191446,201.684,-462.826,0,0
191707,202.528,-459.585,0,0
191967,203.822,-455.921,0,0
192227,205.462,-452.403,0,0
192488,207.214,-449.117,0,0
192748,208.886,-445.893,0,0
193008,210.518,-442.626,0,0
193269,212.412,-439.36,0,0
193529,214.272,-436.155,0,0
193789,216.06,-432.955,0,0
194050,218.026,-429.665,0,0
194310,219.986,-426.29,0,0
194570,222.052,-422.892,0,0
194831,224.193,-419.356,0,0
195091,226.417,-415.833,0,0
195351,228.925,-412.264,0,0
195612,231.724,-408.642,0,0
195872,234.551,-405.373,0,0
196132,237.358,-402.119,0,0
196393,240.126,-398.639,0,0
196653,243.149,-395.232,0,0
196913,246.342,-391.693,0,0
197174,249.705,-388.313,0,0
197434,253.209,-384.957,0,0
197694,256.854,-381.62,0,0
197955,260.64,-378.425,0,0
198215,264.457,-375.373,0,0
198475,268.351,-372.214,0,0
198735,272.51,-369.14,0,0
198996,276.598,-366.27,0,0
199256,280.662,-363.423,0,0
199516,284.791,-360.452,0,0
199777,288.944,-357.398,0,0
200037,293.276,-354.25,0,0
200297,297.863,-351.064,0,0
200558,302.679,-347.784,0,0
200818,307.788,-344.652,0,0
201078,313.124,-341.58,0,0
201339,318.351,-338.426,0,0
201599,323.903,-335.03,0,0
201859,330.125,-331.497,0,0
202120,336.949,-328.079,0,0
202380.025,344.38,-325.062,0,0
202640.35,352.321,-322.63,0,0
202900.675,360.214,-320.708,0,0
203161.0,368.191,-319.133,0,0
203421.325,376.251,-317.497,0,0
203681.65,384.724,-315.921,0,0
203941.975,393.937,-314.643,0,0
204202.3,403.832,-313.859,0,0
204462.625,414.13,-313.943,0,0
204722.95,424.783,-315.166,0,0
204983.275,435.546,-317.454,0,0
205243.6,445.959,-320.743,0,0
205503.925,455.818,-324.82,0,0
205764.25,465.167,-329.568,0,0
206024.575,474.046,-334.615,0,0
206284.9,482.61,-340.003,0,0
206545.225,491.161,-345.887,0,0
206805.55,499.442,-352.625,0,0
207065.875,507.045,-360.212,0,0
207326.2,513.679,-368.455,0,0
207586.525,519.148,-376.732,0,0
207846.85,523.95,-384.875,0,0
208107.175,528.189,-393.057,0,0
208367.5,531.789,-401.188,0,0
208627.825,534.965,-409.214,0,0
208888.15,537.684,-417.302,0,0
209148.475,539.762,-425.485,0,0
209408.8,541.201,-433.561,0,0
209669.125,542.027,-441.536,0,0
209929.45,541.975,-449.437,0,0
210189.775,541.186,-456.734,0,0
210450.1,539.599,-463.4,0,0
210710.425,537.581,-469.221,0,0
210970.75,535.444,-474.075,0,0
211231.075,533.415,-478.271,0,0
211491.4,531.468,-481.819,0,0
211751.725,529.627,-484.975,0,0
212012.05,527.675,-487.548,0,0
212272.375,525.852,-489.325,0,0
212532.7,524.499,-490.151,0,0
212793.025,524.075,-490.377,0,0
213053.35,524.656,-490.413,0,0
213313.675,526.163,-490.689,0,0
213574.0,528.353,-491.469,0,0
213834.325,530.867,-492.947,0,0
214094.65,533.355,-494.755,0,0
214354.975,535.954,-496.695,0,0
214615.3,538.852,-499.076,0,0
214875.625,541.581,-502.043,0,0
215135.95,544.118,-505.023,0,0
215396.275,546.76,-508.202,0,0
215656.6,549.333,-511.826,0,0
215916.925,551.472,-515.814,0,0
216177.25,553.08,-519.664,0,0
216437.575,554.484,-523.201,0,0
216697.9,555.862,-526.571,0,0
216958.225,557.192,-529.686,0,0
217218.55,558.926,-532.577,0,0
217478.875,560.96,-535.619,0,0
217739.2,563.173,-538.96,0,0
217999.525,565.13,-542.558,0,0
218259.85,566.871,-546.022,0,0
218520,568.554,-549.196,0,0
218780,570.609,-552.102,0,0
219041,573.132,-555.13,0,0
219301,575.91,-558.257,0,0
219561,579.082,-561.619,0,0
219822,582.682,-565.262,0,0
220082,586.487,-569.583,0,0
220342,590.193,-574.589,0,0
220603,593.851,-579.913,0,0
220863,597.333,-585.473,0,0
221123,600.891,-591.32,0,0
221384,604.54,-597.571,0,0
221644,608.378,-604.527,0,0
221904,612.007,-612.514,0,0
222165,615.01,-621.254,0,0
222425,617.068,-630.53,0,0
222685,618.282,-639.968,0,0
222946,618.874,-649.318,0,0
223206,618.878,-658.727,0,0
223466,618.569,-668.038,0,0
223727,617.766,-677.33,0,0
223987,616.615,-686.79,0,0
224247,614.94,-696.151,0,0
224508,612.778,-705.567,0,0
224768,610.048,-714.922,0,0
225028,606.795,-724.178,0,0
225289,603.249,-733.052,0,0
225549,599.219,-741.587,0,0
225809,595.073,-749.944,0,0
226070,591.01,-758.272,0,0
226330,586.486,-766.693,0,0
226590,581.573,-775.181,0,0
226851,576.231,-783.624,0,0
227111,570.191,-792.136,0,0
227371,563.589,-800.288,0,0
227632,556.426,-808.133,0,0
227892,548.568,-815.567,0,0
228152,540.173,-822.395,0,0
228413,531.452,-828.587,0,0
228673,522.549,-834.152,0,0
228933,513.37,-839.157,0,0
229193,503.999,-843.397,0,0
229454,494.599,-846.986,0,0
229714,485.288,-850.034,0,0
229974,475.985,-852.487,0,0
230235,466.696,-854.353,0,0
230495,457.747,-855.533,0,0
230755,449.169,-856.311,0,0
231016,440.912,-856.635,0,0
231276,432.804,-856.698,0,0
231536,425.066,-856.389,0,0
231797,417.628,-855.915,0,0
232057,410.537,-855.092,0,0
232317,403.81,-854.104,0,0
232578,397.484,-853.021,0,0
232838,391.46,-851.944,0,0
233098,385.673,-850.93,0,0
233359,380.052,-849.91,0,0
233619,374.621,-848.816,0,0
233879,369.427,-847.69,0,0
234140,364.381,-846.58,0,0
234400,359.504,-845.537,0,0
234660.3,354.86,-844.557,0,0
234920.625,350.077,-843.74,0,0
235180.95,345.319,-843.006,0,0
235441.275,340.358,-842.269,0,0
235701.6,335.567,-841.345,0,0
235961.925,330.867,-840.296,0,0
236222.25,326.16,-839.23,0,0
236482.575,321.459,-838.074,0,0
236742.9,316.988,-836.88,0,0
237003.225,312.541,-835.653,0,0
237263.55,308.019,-834.425,0,0
237523.875,303.528,-833.178,0,0
237784.2,299.046,-831.761,0,0
238044.525,294.685,-830.28,0,0
238304.85,290.364,-828.783,0,0
238565.175,286.028,-827.213,0,0
238825.5,281.878,-825.477,0,0
239085.825,277.718,-823.752,0,0
239346.15,273.574,-821.921,0,0
239606.475,269.52,-819.993,0,0
239866.8,265.553,-817.885,0,0
240127.125,261.638,-815.874,0,0
240387.45,257.909,-813.635,0,0
240647.775,254.337,-811.496,0,0
240908.1,250.879,-809.175,0,0
241168.425,247.486,-806.93,0,0
241428.75,244.092,-804.746,0,0
241689.075,240.829,-802.504,0,0
241949.4,237.646,-800.26,0,0
242209.725,234.567,-797.787,0,0
242470.05,231.528,-795.427,0,0
242730.375,228.631,-792.984,0,0
242990.7,225.853,-790.558,0,0
243251.025,223.198,-788.162,0,0
243511.35,220.637,-785.753,0,0
243771.675,218.207,-783.365,0,0
244032.0,215.907,-781.16,0,0
244292.325,213.55,-779.145,0,0
244552.65,211.256,-777.123,0,0
244812.975,208.718,-775.088,0,0
245073.3,206.33,-772.999,0,0
245333.625,203.843,-770.895,0,0
245593.95,201.406,-768.74,0,0
245854.275,198.978,-766.598,0,0
246114.6,196.545,-764.428,0,0
246374.925,194.133,-762.13,0,0
246635.25,191.745,-759.745,0,0
246895.575,189.41,-757.233,0,0
247155.9,187.267,-754.721,0,0
247416.225,185.15,-752.324,0,0
247676.55,183.05,-749.815,0,0
247936.875,181.168,-747.238,0,0
248197.2,179.317,-744.729,0,0
248457.525,177.507,-742.217,0,0
248717.85,175.766,-739.68,0,0
248978.175,174.106,-737.208,0,0
249238.5,172.51,-734.745,0,0
249498.825,170.961,-732.258,0,0
249759.15,169.46,-729.875,0,0
250019.475,167.969,-727.421,0,0
250279.8,166.505,-725.094,0,0
250540,165.025,-722.659,0,0
250800,163.623,-720.224,0,0
251061,162.285,-717.809,0,0
251321,160.956,-715.328,0,0
251581,159.73,-712.966,0,0
251842,158.528,-710.606,0,0
252102,157.309,-708.231,0,0
252362,156.085,-705.876,0,0
252623,154.936,-703.492,0,0
252883,153.72,-701.104,0,0
253143,152.602,-698.642,0,0
253404,151.528,-696.152,0,0
253664,150.449,-693.68,0,0
253924,149.446,-691.071,0,0
254185,148.527,-688.424,0,0
254445,147.682,-685.819,0,0
254705,147.045,-683.134,0,0
254966,146.514,-680.622,0,0
255226,146.122,-678.1,0,0
255486,145.615,-675.628,0,0
255747,145.203,-673.202,0,0
256007,144.859,-670.905,0,0
256267,144.512,-668.546,0,0
256528,144.142,-666.258,0,0
256788,143.833,-663.922,0,0
257048,143.601,-661.654,0,0
257309,143.342,-659.388,0,0
257569,143.078,-657.15,0,0
257829,142.841,-654.839,0,0
258090,142.623,-652.518,0,0
258350,142.472,-650.138,0,0
258610,142.412,-647.706,0,0
258871,142.452,-645.222,0,0
259131,142.648,-642.727,0,0
259391,143.027,-640.325,0,0
259651,143.473,-637.927,0,0
259912,144.066,-635.645,0,0
260172,144.74,-633.441,0,0
260432,145.497,-631.355,0,0
260693,146.378,-629.306,0,0
260953,147.265,-627.408,0,0
261213,148.257,-625.638,0,0
261474,149.253,-623.948,0,0
261734,150.287,-622.423,0,0
261994,151.271,-620.962,0,0
262255,152.303,-619.581,0,0
262515,153.328,-618.294,0,0
262775,154.39,-617.119,0,0
263036,155.42,-615.983,0,0
263296,156.41,-614.956,0,0
263556,157.426,-613.92,0,0
263817,158.465,-612.998,0,0
264077,159.531,-612.071,0,0
264337,160.562,-611.232,0,0
264598,161.669,-610.453,0,0
264858,162.846,-609.819,0,0
265118,164.08,-609.227,0,0
265379,165.34,-608.716,0,0
265639,166.743,-608.466,0,0
265899,168.103,-608.401,0,0
266160,169.47,-608.536,0,0
266420,170.786,-608.891,0,0
266680.25,172.034,-609.537,0,0
266940.575,173.146,-610.46,0,0
267200.9,174.015,-611.591,0,0
267461.225,174.564,-612.888,0,0
267721.55,174.887,-614.302,0,0
267981.875,174.938,-615.828,0,0
268242.2,174.664,-617.437,0,0
268502.525,173.966,-619.118,0,0
268762.85,172.856,-620.641,0,0
269023.175,171.421,-621.982,0,0
269283.5,169.731,-623.042,0,0
269543.825,167.841,-623.845,0,0
269804.15,165.856,-624.359,0,0
270064.475,163.758,-624.623,0,0
270324.8,161.447,-624.62,0,0
270585.125,159.353,-624.31,0,0
270845.45,157.074,-623.784,0,0
271105.775,154.952,-622.911,0,0
271366.1,152.926,-621.852,0,0
271626.425,151.051,-620.614,0,0
271886.75,149.281,-619.199,0,0
272147.075,147.713,-617.694,0,0
272407.4,146.25,-616.069,0,0
272667.725,144.949,-614.371,0,0
272928.05,143.799,-612.566,0,0
273188.375,142.804,-610.708,0,0
273448.7,141.984,-608.874,0,0
273709.025,141.343,-606.994,0,0
273969.35,140.823,-605.185,0,0
274229.675,140.467,-603.412,0,0
274490.0,140.181,-601.739,0,0
274750.325,140.033,-600.115,0,0
275010.65,139.855,-598.557,0,0
275270.975,139.781,-597.138,0,0
275531.3,139.62,-595.7,0,0
275791.625,139.523,-594.266,0,0
276051.95,139.428,-592.774,0,0
276312.275,139.462,-591.303,0,0
276572.6,139.606,-589.839,0,0
276832.925,139.807,-588.447,0,0
277093.25,140.121,-587.09,0,0
277353.575,140.514,-585.847,0,0
277613.9,140.94,-584.718,0,0
277874.225,141.407,-583.693,0,0
278134.55,141.855,-582.767,0,0
278394.875,142.289,-581.904,0,0
278655.2,142.745,-581.125,0,0
278915.525,143.229,-580.426,0,0
279175.85,143.727,-579.87,0,0
279436.175,144.124,-579.386,0,0
279696.5,144.452,-578.991,0,0
279956.825,144.732,-578.649,0,0
280217.15,144.936,-578.349,0,0
280477.475,145.055,-578.133,0,0
280737.8,145.168,-577.917,0,0
280998.125,145.195,-577.741,0,0
281258.45,145.125,-577.625,0,0
281518.775,144.954,-577.529,0,0
281779.1,144.62,-577.45,0,0
282039.425,144.167,-577.291,0,0
282299.75,143.646,-577.016,0,0
282560,143.103,-576.688,0,0
282820,142.546,-576.277,0,0
283081,141.97,-575.796,0,0
283341,141.389,-575.275,0,0
283601,140.783,-574.719,0,0
283862,140.197,-574.112,0,0
284122,139.619,-573.456,0,0
284382,138.983,-572.774,0,0
284643,138.379,-572.001,0,0
284903,137.809,-571.188,0,0
285163,137.294,-570.304,0,0
285424,136.835,-569.506,0,0
285684,136.356,-568.687,0,0
285944,135.848,-567.869,0,0
286205,135.31,-567.096,0,0
286465,134.694,-566.231,0,0
286725,134.027,-565.311,0,0
286986,133.316,-564.249,0,0
287246,132.632,-563.046,0,0
287506,132.017,-561.748,0,0
287767,131.428,-560.346,0,0
288027,130.945,-558.773,0,0
288287,130.63,-557.067,0,0
288548,130.518,-555.33,0,0
288808,130.64,-553.578,0,0
289068,130.982,-551.859,0,0
289329,131.541,-550.304,0,0
289589,132.284,-548.949,0,0
289849,133.071,-547.809,0,0
290109,133.867,-546.951,0,0
290370,134.506,-546.21,0,0
290630,135.028,-545.586,0,0
290890,135.514,-545.02,0,0
291151,135.795,-544.422,0,0
291411,136.147,-543.813,0,0
291671,136.516,-543.256,0,0
291932,136.869,-542.78,0,0
292192,137.142,-542.434,0,0
292452,137.26,-542.069,0,0
292713,137.258,-541.741,0,0
292973,137.103,-541.343,0,0
293233,136.889,-540.86,0,0
293494,136.58,-540.241,0,0
293754,136.226,-539.492,0,0
294014,135.877,-538.632,0,0
294275,135.575,-537.615,0,0
294535,135.345,-536.5,0,0
294795,135.227,-535.293,0,0
295056,135.169,-533.995,0,0
295316,135.233,-532.607,0,0
295576,135.419,-531.207,0,0
295837,135.754,-529.783,0,0
296097,136.243,-528.349,0,0
296357,136.894,-526.971,0,0
296618,137.695,-525.706,0,0
296878,138.575,-524.581,0,0
297138,139.455,-523.576,0,0
297399,140.34,-522.647,0,0
297659,141.195,-521.749,0,0
297919,142.096,-520.885,0,0
298180,143.031,-520.077,0,0
298440,143.989,-519.308,0,0
298700.2,144.926,-518.577,0,0
298960.525,145.995,-517.907,0,0
299220.85,147.016,-517.246,0,0
299481.175,148.015,-516.714,0,0
299741.5,149.082,-516.148,0,0
300001.825,150.335,-515.685,0,0
300262.15,151.47,-515.259,0,0
300522.475,152.563,-514.894,0,0
300782.8,153.698,-514.628,0,0
301043.125,154.874,-514.37,0,0
301303.45,156.107,-514.018,0,0
301563.775,157.404,-513.898,0,0
301824.1,158.765,-513.758,0,0
302084.425,160.14,-513.838,0,0
302344.75,161.529,-514.136,0,0
302605.075,162.901,-514.462,0,0
302865.4,164.139,-514.926,0,0
303125.725,165.219,-515.512,0,0
303386.05,166.292,-516.082,0,0
303646.375,167.369,-516.766,0,0
303906.7,168.279,-517.383,0,0
304167.025,169.182,-518.088,0,0
304427.35,170.113,-518.814,0,0
304687.675,170.965,-519.649,0,0
304948.0,171.735,-520.447,0,0
305208.325,172.516,-521.389,0,0
305468.65,173.242,-522.252,0,0
305728.975,173.91,-523.212,0,0
305989.3,174.484,-524.177,0,0
306249.625,175.134,-525.247,0,0
306509.95,175.724,-526.32,0,0
306770.275,176.243,-527.45,0,0
307030.6,176.704,-528.87,0,0
307290.925,176.953,-530.223,0,0
307551.25,177.137,-531.558,0,0
307811.575,177.223,-532.935,0,0
308071.9,177.145,-534.254,0,0
308332.225,177,-535.5,0,0
308592.55,176.728,-536.73,0,0
308852.875,176.418,-537.992,0,0
309113.2,176.139,-539.197,0,0
309373.525,175.815,-540.244,0,0
309633.85,175.556,-541.247,0,0
309894.175,175.262,-542.496,0,0
310154.5,174.821,-543.656,0,0
310414.825,174.44,-544.835,0,0
310675.15,174.04,-546.079,0,0
310935.475,173.405,-547.291,0,0
311195.8,172.812,-548.51,0,0
311456.125,172.204,-549.766,0,0
311716.45,171.458,-550.988,0,0
311976.775,170.58,-552.408,0,0
312237.1,169.643,-553.755,0,0
312497.425,168.541,-554.995,0,0
312757.75,167.305,-556.295,0,0
313018.075,165.908,-557.469,0,0
313278.4,164.372,-558.511,0,0
313538.725,162.84,-559.454,0,0
313799.05,161.205,-560.175,0,0
314059.375,159.504,-560.87,0,0
314319.7,157.766,-561.356,0,0
314580,156.255,-561.703,0,0
314840,154.672,-562.043,0,0
315101,153.093,-562.248,0,0
315361,151.672,-562.468,0,0
315621,150.206,-562.763,0,0
315882,148.737,-562.864,0,0
316142,147.336,-563.021,0,0
316402,145.88,-563.174,0,0
316663,144.46,-563.29,0,0
316923,142.987,-563.311,0,0
317183,141.481,-563.308,0,0
317444,139.978,-563.35,0,0
317704,138.439,-563.283,0,0
317964,136.944,-563.126,0,0
318225,135.398,-563.117,0,0
318485,133.902,-562.835,0,0
318745,132.237,-562.582,0,0
319006,130.856,-562.28,0,0
319266,129.294,-561.956,0,0
319526,127.76,-561.507,0,0
319787,126.419,-561.062,0,0
320047,124.779,-560.572,0,0
320307,123.316,-560.022,0,0
320567,121.798,-559.431,0,0
320828,120.389,-558.702,0,0
321088,118.977,-557.971,0,0
321348,117.567,-557.21,0,0
321609,116.335,-556.322,0,0
321869,114.97,-555.405,0,0
322129,113.75,-554.504,0,0
322390,112.591,-553.61,0,0
322650,111.373,-552.583,0,0
322910,110.283,-551.452,0,0
323171,109.115,-550.388,0,0
323431,108.152,-549.206,0,0
323691,107.331,-547.989,0,0
323952,106.553,-546.826,0,0
324212,105.912,-545.699,0,0
324472,105.269,-544.438,0,0
324733,104.782,-543.399,0,0
324993,104.25,-542.331,0,0
325253,103.816,-541.312,0,0
325514,103.426,-540.295,0,0
325774,102.982,-539.406,0,0
326034,102.605,-538.441,0,0
326295,102.352,-537.658,0,0
326555,102.065,-536.748,0,0
326815,101.732,-535.936,0,0
327076,101.557,-535.243,0,0
327336,101.385,-534.46,0,0
327596,101.076,-533.81,0,0
327857,100.87,-533.174,0,0
328117,100.668,-532.669,0,0
328377,100.502,-532.182,0,0
328638,100.208,-531.621,0,0
328898,99.9637,-531.291,0,0
329158,99.6551,-530.87,0,0
329419,99.2632,-530.503,0,0
329679,98.8986,-530.162,0,0
329939,98.5044,-529.824,0,0
330200,98.0931,-529.462,0,0
330460,97.6582,-529.082,0,0
330720.15,97.1768,-528.769,0,0
330980.475,96.7119,-528.36,0,0
331240.8,96.2148,-528.042,0,0
331501.125,95.6445,-527.754,0,0
331761.45,95.1067,-527.396,0,0
332021.775,94.5459,-527.114,0,0
332282.1,93.8475,-526.779,0,0
332542.425,93.246,-526.379,0,0
332802.75,92.5003,-526.021,0,0
333063.075,91.8612,-525.593,0,0
333323.4,91.1271,-525.17,0,0
333583.725,90.4578,-524.757,0,0
333844.05,89.7764,-524.303,0,0
334104.375,89.0636,-523.857,0,0
334364.7,88.337,-523.337,0,0
334625.025,87.56,-522.808,0,0
334885.35,86.7883,-522.328,0,0
335145.675,85.9895,-521.712,0,0
335406.0,85.1913,-521.068,0,0
335666.325,84.4639,-520.489,0,0
335926.65,83.7798,-519.746,0,0
336186.975,83.0395,-519.075,0,0
336447.3,82.3338,-518.426,0,0
336707.625,81.6935,-517.684,0,0
336967.95,81.0089,-517.01,0,0
337228.275,80.2793,-516.234,0,0
337488.6,79.6812,-515.464,0,0
337748.925,79.0271,-514.774,0,0
338009.25,78.3569,-514.057,0,0
338269.575,77.7376,-513.327,0,0
338529.9,77.1147,-512.532,0,0
338790.225,76.4939,-511.699,0,0
339050.55,75.8711,-510.87,0,0
339310.875,75.2857,-510.048,0,0
339571.2,74.7427,-509.254,0,0
339831.525,74.1809,-508.393,0,0
340091.85,73.5998,-507.56,0,0
340352.175,73.1283,-506.754,0,0
340612.5,72.625,-505.944,0,0
340872.825,72.1204,-505.036,0,0
341133.15,71.6413,-504.198,0,0
341393.475,71.1696,-503.339,0,0
341653.8,70.7776,-502.527,0,0
341914.125,70.3781,-501.662,0,0
342174.45,69.9126,-500.833,0,0
342434.775,69.5189,-500.056,0,0
342695.1,69.1381,-499.227,0,0
342955.425,68.6724,-498.485,0,0
343215.75,68.2933,-497.668,0,0
343476.075,67.9088,-496.874,0,0
343736.4,67.413,-496.111,0,0
343996.725,67.0548,-495.327,0,0
344257.05,66.6393,-494.504,0,0
344517.375,66.2169,-493.726,0,0
344777.7,65.782,-492.932,0,0
345038.025,65.3597,-492.141,0,0
345298.35,64.9375,-491.245,0,0
345558.675,64.489,-490.408,0,0
345819.0,64.0949,-489.595,0,0
346079.325,63.6451,-488.711,0,0
346339.65,63.2654,-487.784,0,0
346599.975,62.8909,-486.963,0,0
346860,62.4606,-486.051,0,0
347121,62.148,-485.116,0,0
347381,61.8055,-484.203,0,0
347641,61.4025,-483.288,0,0
347902,61.1293,-482.324,0,0
348162,60.8095,-481.339,0,0
348422,60.5567,-480.402,0,0
348683,60.3377,-479.438,0,0
348943,60.1078,-478.486,0,0
349203,59.8979,-477.588,0,0
349464,59.7172,-476.67,0,0
349724,59.5158,-475.769,0,0
349984,59.3545,-474.834,0,0
350245,59.2468,-473.911,0,0
350505,59.0824,-473.007,0,0
350765,58.9224,-472.116,0,0
351025,58.7611,-471.255,0,0
351286,58.7111,-470.369,0,0
351546,58.6193,-469.502,0,0
351806,58.5204,-468.658,0,0
352067,58.4878,-467.807,0,0
352327,58.4147,-467.021,0,0
352587,58.3197,-466.199,0,0
352848,58.1954,-465.382,0,0
353108,58.1478,-464.649,0,0
353368,57.9818,-463.842,0,0
353629,57.9271,-463.032,0,0
353889,57.7813,-462.213,0,0
354149,57.7195,-461.394,0,0
354410,57.5934,-460.595,0,0
354670,57.5493,-459.819,0,0
354930,57.4316,-458.999,0,0
355191,57.3666,-458.175,0,0
355451,57.3015,-457.347,0,0
355711,57.2501,-456.575,0,0
355972,57.205,-455.766,0,0
356232,57.1649,-454.972,0,0
356492,57.1132,-454.187,0,0
356753,57.1008,-453.365,0,0
357013,57.0477,-452.578,0,0
357273,57.0789,-451.769,0,0
357534,57.0971,-451.051,0,0
357794,57.0502,-450.259,0,0
358054,57.0639,-449.475,0,0
358315,57.0306,-448.69,0,0
358575,57.031,-447.876,0,0
358835,57.0822,-447.114,0,0
359096,57.0788,-446.37,0,0
359356,57.1242,-445.58,0,0
359616,57.1666,-444.864,0,0
359877,57.2115,-444.049,0,0
360137,57.2009,-443.342,0,0
360397,57.3577,-442.599,0,0
360658,57.3797,-441.814,0,0
360918,57.4334,-441.159,0,0
361178,57.5119,-440.437,0,0
361438,57.5403,-439.752,0,0
361699,57.5901,-439.054,0,0
361959,57.6344,-438.35,0,0
362219,57.6401,-437.622,0,0
362480,57.7204,-436.935,0,0
362740.1,57.7487,-436.171,0,0
363000.425,57.7783,-435.482,0,0
363260.75,57.8479,-434.734,0,0
363521.075,57.9222,-434.006,0,0
363781.4,58.0237,-433.31,0,0
364041.725,58.1135,-432.564,0,0
364302.05,58.1876,-431.845,0,0
364562.375,58.3075,-431.125,0,0
364822.7,58.4179,-430.389,0,0
365083.025,58.5237,-429.707,0,0
365343.35,58.6708,-429.043,0,0
365603.675,58.7331,-428.363,0,0
365864.0,58.8867,-427.686,0,0
366124.325,58.9378,-427.061,0,0
366384.65,59.0519,-426.378,0,0
366644.975,59.1386,-425.693,0,0
366905.3,59.2441,-425.031,0,0
367165.625,59.2953,-424.293,0,0
367425.95,59.3298,-423.645,0,0
367686.275,59.3855,-422.928,0,0
367946.6,59.4044,-422.135,0,0
368206.925,59.4613,-421.314,0,0
368467.25,59.5165,-420.501,0,0
368727.575,59.6568,-419.644,0,0
368987.9,59.801,-418.733,0,0
369248.225,60.0227,-417.816,0,0
369508.55,60.2984,-416.871,0,0
369768.875,60.5647,-415.95,0,0
370029.2,60.9699,-415.075,0,0
370289.525,61.3477,-414.143,0,0
370549.85,61.783,-413.27,0,0
370810.175,62.2446,-412.39,0,0
371070.5,62.7662,-411.619,0,0
371330.825,63.3488,-410.796,0,0
371591.15,63.9783,-410.047,0,0
371851.475,64.6502,-409.314,0,0
372111.8,65.3635,-408.691,0,0
372372.125,66.0591,-408.098,0,0
372632.45,66.7625,-407.563,0,0
372892.775,67.4891,-407.09,0,0
373153.1,68.2173,-406.642,0,0
373413.425,68.9122,-406.241,0,0
373673.75,69.654,-405.948,0,0
373934.075,70.3607,-405.65,0,0
374194.4,71.0276,-405.43,0,0
374454.725,71.6567,-405.27,0,0
374715.05,72.2561,-405.144,0,0
374975.375,72.824,-405.027,0,0
375235.7,73.3056,-404.961,0,0
375496.025,73.7596,-404.853,0,0
375756.35,74.214,-404.778,0,0
376016.675,74.6175,-404.716,0,0
376277.0,74.9829,-404.587,0,0
376537.325,75.3402,-404.473,0,0
376797.65,75.756,-404.335,0,0
377057.975,76.137,-404.201,0,0
377318.3,76.558,-404.036,0,0
377578.625,76.9585,-403.953,0,0
377838.95,77.4001,-403.877,0,0
378099.275,77.8349,-403.877,0,0
378359.6,78.1781,-403.838,0,0
378619.925,78.5823,-403.813,0,0
378880,78.9599,-403.88,0,0
379141,79.219,-403.908,0,0
379401,79.512,-403.956,0,0
379661,79.7712,-403.924,0,0
379922,80.0678,-403.932,0,0
380182,80.3303,-403.909,0,0
380442,80.6601,-403.853,0,0
380703,81.027,-403.86,0,0
380963,81.4301,-403.902,0,0
381223,81.8667,-404.005,0,0
381483,82.2987,-404.164,0,0
381744,82.7081,-404.454,0,0
382004,83.0665,-404.818,0,0
382264,83.3019,-405.207,0,0
382525,83.5056,-405.7,0,0
382785,83.5633,-406.137,0,0
383045,83.6276,-406.661,0,0
383306,83.6585,-407.073,0,0
383566,83.478,-407.521,0,0
383826,83.3455,-407.934,0,0
384087,83.1421,-408.378,0,0
384347,82.9333,-408.776,0,0
384607,82.6246,-409.11,0,0
384868,82.246,-409.494,0,0
385128,81.8493,-409.819,0,0
385388,81.432,-410.116,0,0
385649,80.9141,-410.377,0,0
385909,80.3791,-410.575,0,0
386169,79.7997,-410.818,0,0
386430,79.1742,-410.892,0,0
386690,78.547,-410.958,0,0
386950,77.8972,-410.959,0,0
387211,77.2109,-410.845,0,0
387471,76.5508,-410.667,0,0
387731,75.9561,-410.477,0,0
387992,75.3365,-410.178,0,0
388252,74.7656,-409.845,0,0
388512,74.2714,-409.536,0,0
388773,73.8257,-409.213,0,0
389033,73.343,-408.804,0,0
389293,72.9302,-408.412,0,0
389554,72.5456,-408.038,0,0
389814,72.1869,-407.615,0,0
390074,71.8348,-407.216,0,0
390335,71.5155,-406.867,0,0
390595,71.2461,-406.495,0,0
390855,71.0002,-406.17,0,0
391116,70.7141,-405.815,0,0
391376,70.4751,-405.516,0,0
391636,70.1895,-405.233,0,0
391896,69.934,-404.952,0,0
392157,69.6316,-404.715,0,0
392417,69.3332,-404.505,0,0
392677,68.9967,-404.248,0,0
392938,68.6223,-404.068,0,0
393198,68.1935,-403.844,0,0
393458,67.7573,-403.585,0,0
393719,67.2738,-403.302,0,0
393979,66.7531,-402.998,0,0
394239,66.1979,-402.637,0,0
394500,65.7283,-402.21,0,0
394760.05,65.1331,-401.787,0,0
395020.375,64.6346,-401.317,0,0
395280.7,64.1615,-400.743,0,0
395541.025,63.6498,-400.198,0,0
395801.35,63.1631,-399.634,0,0
396061.675,62.7204,-398.996,0,0
396322.0,62.3074,-398.336,0,0
396582.325,61.9062,-397.674,0,0
396842.65,61.5239,-397.039,0,0
397102.975,61.1618,-396.359,0,0
397363.3,60.8346,-395.605,0,0
397623.625,60.5578,-394.928,0,0
397883.95,60.2628,-394.255,0,0
398144.275,60.0211,-393.487,0,0
398404.6,59.831,-392.827,0,0
398664.925,59.5833,-392.115,0,0
398925.25,59.3849,-391.416,0,0
399185.575,59.2105,-390.727,0,0
399445.9,59.0193,-390.046,0,0
399706.225,58.8287,-389.326,0,0
399966.55,58.6748,-388.632,0,0
400006.6,58.6845,-388.548,0,0