File: Accelerated corrosion test data/2025-10-13_06-00-03/sample_4.csv
Frequency (Hz),Impedance (ohms),Phase (Radians),Temperature (C),Humidity (%)
10000.0,264.967,-11881.6,0,0
10260.325,261.293,-11585.2,0,0
10520.65,252.03,-11299.5,0,0
10780.975,245.584,-11028.3,0,0
11041.3,241.382,-10770.2,0,0
11301.625,235.415,-10526.5,0,0
11561.95,230.011,-10290.7,0,0
11822.275,225.518,-10065.2,0,0
12082.6,220.907,-9850.37,0,0
12342.925,216.669,-9643.4,0,0
12603.25,213.943,-9444.48,0,0
12863.575,209.127,-9257.48,0,0
13123.9,207.467,-9079.09,0,0
13384.225,200.163,-8899.82,0,0
13644.55,197.428,-8728.51,0,0
13904.875,194.889,-8562.12,0,0
14165.2,196.117,-8399.28,0,0
14425.525,200.5,-8249.31,0,0
14685.8,197.662,-8139.22,0,0
14946.175,183.274,-7981.39,0,0
15206.5,182.052,-7837.96,0,0
15466.825,190.438,-7692.27,0,0
15727.15,190.089,-7592.2,0,0
15987.5,187.74,-7478.78,0,0
16247.8,172.598,-7348.84,0,0
16508.125,188.143,-7227.24,0,0
16768.45,181.398,-7122.04,0,0
17028.775,170.933,-7033.72,0,0
17289.1,161.499,-6919.28,0,0
17549.425,159.674,-6815.72,0,0
17809.75,156.776,-6715.52,0,0
18070.075,153.751,-6616.16,0,0
18330.4,156.907,-6521.29,0,0
18590.725,152.864,-6432.37,0,0
18851.05,150.355,-6347.14,0,0
19111.375,146.102,-6258.11,0,0
19371.7,143.776,-6172.16,0,0
19632.025,142.476,-6088.02,0,0
19892.35,145.138,-6007.83,0,0
20152.675,144.77,-5931.46,0,0
20413.0,141.265,-5857.35,0,0
20673.3,141.583,-5782.28,0,0
20933.65,138.187,-5709.01,0,0
21193.975,140.981,-5634.16,0,0
21454.3,152.591,-5569.07,0,0
21714.625,146.116,-5510.5,0,0
21974.9,152.418,-5443.74,0,0
22235.275,150.566,-5392.65,0,0
22495.6,136.626,-5338.78,0,0
22755.925,128.98,-5273.9,0,0
23016.25,125.902,-5211.8,0,0
23276.6,123.467,-5151.51,0,0
23536.9,121.705,-5094.39,0,0
23797.225,119.636,-5037.32,0,0
24057.55,118.074,-4981.54,0,0
24317.875,116.612,-4927.12,0,0
24578.2,115.22,-4873.93,0,0
24838.525,114.35,-4821.68,0,0
25098.85,115.931,-4771.07,0,0
25359.175,113.218,-4723.08,0,0
25619.5,113.681,-4673.13,0,0
25879.8,111.213,-4628.73,0,0
26140.1,108.874,-4580.82,0,0
26400.5,107.749,-4534.03,0,0
26660.8,107.97,-4487.37,0,0
26921.1,107.01,-4444.25,0,0
27181.4,106.341,-4399.04,0,0
27441.8,107.321,-4354.46,0,0
27702.1,110.725,-4309.78,0,0
27962.4,116.315,-4269.06,0,0
28222.7,121.567,-4240.74,0,0
28483.1,112.527,-4207.18,0,0
28743.4,110.57,-4165.53,0,0
29003.7,112.324,-4123.38,0,0
29264,117.941,-4090.87,0,0
29524.4,116.308,-4062.09,0,0
29784.7,107.575,-4030.15,0,0
30045,107.858,-3993.09,0,0
30305.3,102.454,-3958.74,0,0
30565.7,101.448,-3923.74,0,0
30826,99.483,-3889.18,0,0
31086.3,99.2058,-3855.46,0,0
31346.6,100.176,-3822.64,0,0
31607,98.7604,-3791.56,0,0
31867.3,97.93,-3759.19,0,0
32127.6,101.105,-3729.59,0,0
32387.9,98.1666,-3702.66,0,0
32648.3,97.6595,-3672.98,0,0
32908.6,95.6789,-3646.28,0,0
33168.9,92.8355,-3616.52,0,0
33429.2,90.6651,-3587.71,0,0
33689.6,89.4514,-3559.13,0,0
33949.9,88.1844,-3530.59,0,0
34210.2,88.8718,-3503.12,0,0
34470.5,86.3747,-3476.85,0,0
34730.9,85.5532,-3449.52,0,0
34991.2,85.2002,-3422.68,0,0
35251.5,84.7545,-3397.52,0,0
35511.8,83.4709,-3372.06,0,0
35772.2,83.178,-3346.83,0,0
36032.5,82.1283,-3321.66,0,0
36292.8,81.6622,-3297.15,0,0
36553.1,81.37,-3272.44,0,0
36813.5,81.3909,-3248.85,0,0
37073.8,80.9035,-3226.06,0,0
37334.1,80.1547,-3202.86,0,0
37594.4,79.7881,-3180.09,0,0
37854.8,79.4974,-3157.78,0,0
38115.1,78.319,-3135.75,0,0
38375.4,77.6073,-3113.18,0,0
38635.7,77.7746,-3091.03,0,0
38896.1,77.7319,-3069.64,0,0
39156.4,77.4266,-3048.78,0,0
39416.7,77.0611,-3027.57,0,0
39677,76.9877,-3006.15,0,0
39937.4,77.47,-2985.64,0,0
40197.7,79.2091,-2964.92,0,0
40458,80.991,-2947.51,0,0
40718.3,78.5838,-2928.48,0,0
40978.7,79.9101,-2908.48,0,0
41239,81.1461,-2889.97,0,0
41499.3,82.5934,-2874.94,0,0
41759.6,79.3309,-2857.68,0,0
42020,77.9989,-2839.12,0,0
42280.275,78.1349,-2820.02,0,0
42540.6,79.5253,-2803.68,0,0
42800.925,77.2649,-2787.92,0,0
43061.25,76.6192,-2769.63,0,0
43321.575,76.4585,-2753.6,0,0
43581.9,74.9157,-2737.01,0,0
43842.225,74.2005,-2719.41,0,0
44102.55,73.9124,-2703.48,0,0
44362.875,72.899,-2686.42,0,0
44623.2,72.7579,-2669.96,0,0
44883.525,72.186,-2654.35,0,0
45143.85,71.3096,-2638.02,0,0
45404.175,71.1353,-2621.36,0,0
45664.5,72.546,-2605.41,0,0
45924.825,73.1329,-2591.25,0,0
46185.15,71.4394,-2577.12,0,0
46445.475,71.0958,-2560.83,0,0
46705.8,72.0216,-2546.24,0,0
46966.125,71.6151,-2531.83,0,0
47226.45,72.6646,-2517.89,0,0
47486.775,71.215,-2505.45,0,0
47747.1,70.2283,-2491.11,0,0
48007.425,69.4667,-2476.94,0,0
48267.75,69.2202,-2463.08,0,0
48528.075,68.4349,-2449.76,0,0
48788.4,67.2254,-2436.07,0,0
49048.725,66.3517,-2421.66,0,0
49309.05,66.818,-2408.15,0,0
49569.375,65.7766,-2394.9,0,0
49829.7,65.4232,-2381,0,0
50090.025,65.0982,-2367.79,0,0
50350.35,65.0825,-2354.47,0,0
50610.675,64.7174,-2341.58,0,0
50871.0,64.3098,-2328.65,0,0
51131.325,64.2247,-2315.41,0,0
51391.65,64.1505,-2302.51,0,0
51651.975,64.4791,-2290.13,0,0
51912.3,64.0631,-2277.3,0,0
52172.625,64.4798,-2264.62,0,0
52432.95,64.2507,-2252.15,0,0
52693.275,64.891,-2239.17,0,0
52953.6,66.3063,-2226.8,0,0
53213.925,67.1256,-2215.26,0,0
53474.25,67.8394,-2203.55,0,0
53734.575,69.038,-2191.1,0,0
53994.9,71.7049,-2180.12,0,0
54255.225,74.0584,-2170.08,0,0
54515.55,76.6699,-2162.04,0,0
54775.875,76.0253,-2154.87,0,0
55036.2,74.2108,-2145.42,0,0
55296.525,73.9768,-2136.41,0,0
55556.85,71.9655,-2127.1,0,0
55817.175,70.5085,-2117.13,0,0
56077.5,68.8447,-2106.76,0,0
56337.825,67.163,-2096.14,0,0
56598.15,66.2021,-2084.46,0,0
56858.475,65.947,-2073.34,0,0
57118.8,65.9159,-2062.42,0,0
57379.125,66.4358,-2051.94,0,0
57639.45,66.4251,-2041.78,0,0
57899.775,66.3011,-2031.31,0,0
58160.1,66.8336,-2020.8,0,0
58420.4,67.9742,-2010.81,0,0
58680.7,67.8248,-2001.97,0,0
58941.1,67.693,-1991.13,0,0
59201.4,68.851,-1980.6,0,0
59461.7,70.8165,-1970.39,0,0
59722,73.4661,-1961.29,0,0
59982.4,76.1608,-1954.04,0,0
60242.7,76.7071,-1946.6,0,0
60503,78.2433,-1938.57,0,0
60763.3,81.0729,-1932.97,0,0
61023.7,80.5561,-1928.81,0,0
61284,78.6818,-1923.79,0,0
61544.3,74.2433,-1917.67,0,0
61804.6,71.5854,-1907.7,0,0
62065,70.3369,-1899.13,0,0
62325.3,68.8203,-1891.29,0,0
62585.6,66.0668,-1882.16,0,0
62845.9,65.1662,-1872.07,0,0
63106.3,64.5728,-1862.59,0,0
63366.6,64.6209,-1853.55,0,0
63626.9,64.6416,-1844.87,0,0
63887.2,64.3827,-1836.69,0,0
64147.6,63.7972,-1827.73,0,0
64407.9,64.1697,-1818.56,0,0
64668.2,64.7486,-1810.43,0,0
64928.5,64.8662,-1802.48,0,0
65188.9,64.8928,-1794.24,0,0
65449.2,65.1724,-1786.24,0,0
65709.5,65.3554,-1777.59,0,0
65969.8,66.7825,-1769.54,0,0
66230.2,67.5858,-1762.44,0,0
66490.5,68.2508,-1755.27,0,0
66750.8,68.6056,-1748.18,0,0
67011.1,69.0498,-1740.69,0,0
67271.5,70.0478,-1733.38,0,0
67531.8,71.2491,-1726.62,0,0
67792.1,72.3196,-1720.25,0,0
68052.4,73.4344,-1714.23,0,0
68312.8,74.1621,-1709.05,0,0
68573.1,74.1847,-1704.32,0,0
68833.4,73.7111,-1699.56,0,0
69093.7,72.0179,-1694.43,0,0
69354.1,69.8311,-1688.58,0,0
69614.4,68.1303,-1681.8,0,0
69874.7,66.5081,-1674.97,0,0
70135,65.487,-1667.65,0,0
70395.4,64.1221,-1660.28,0,0
70655.7,64.4128,-1651.89,0,0
70916,65.5009,-1645.86,0,0
71176.3,65.0326,-1639.81,0,0
71436.7,65.042,-1633.87,0,0
71697,64.3864,-1628.78,0,0
71957.3,62.5119,-1622.98,0,0
72217.6,60.7016,-1616.16,0,0
72478,59.4938,-1608.79,0,0
72738.3,58.744,-1601.7,0,0
72998.6,57.8022,-1594.46,0,0
73258.9,57.3472,-1586.55,0,0
73519.3,57.5992,-1579.31,0,0
73779.6,57.9827,-1572.45,0,0
74039.9,58.2072,-1565.81,0,0
74300.225,58.3724,-1559.1,0,0
74560.55,58.7497,-1552.32,0,0
74820.875,59.0727,-1545.79,0,0
75081.2,59.8745,-1539.28,0,0
75341.525,60.5984,-1533.49,0,0
75601.85,61.0152,-1527.59,0,0
75862.175,61.406,-1521.71,0,0
76122.5,61.93,-1516,0,0
76382.825,62.3405,-1510.6,0,0
76643.15,62.2577,-1505.07,0,0
76903.475,62.0421,-1498.86,0,0
77163.8,63.0243,-1492.45,0,0
77424.125,64.3845,-1487.21,0,0
77684.45,65.4087,-1482.43,0,0
77944.775,65.9861,-1478.19,0,0
78205.1,65.9788,-1473.88,0,0
78465.425,65.7146,-1469.46,0,0
78725.75,65.1204,-1465.01,0,0
78986.075,64.2311,-1460.25,0,0
79246.4,63.3788,-1455.17,0,0
79506.725,62.6094,-1449.89,0,0
79767.05,62.0782,-1444.36,0,0
80027.375,61.5539,-1438.91,0,0
80287.7,61.2687,-1433.42,0,0
80548.025,61.0508,-1427.95,0,0
80808.35,61.0253,-1422.66,0,0
81068.675,61.0024,-1417.53,0,0
81329.0,60.8619,-1412.44,0,0
81589.325,60.7889,-1407.47,0,0
81849.65,60.4688,-1402.52,0,0
82109.975,60.27,-1397.47,0,0
82370.3,60.0023,-1392.46,0,0
82630.625,59.7769,-1387.52,0,0
82890.95,59.5185,-1382.54,0,0
83151.275,59.2121,-1377.64,0,0
83411.6,58.9596,-1372.64,0,0
83671.925,58.7231,-1367.65,0,0
83932.25,58.4546,-1362.74,0,0
84192.575,58.2467,-1357.78,0,0
84452.9,57.9828,-1352.87,0,0
84713.225,57.8014,-1348.02,0,0
84973.55,57.6425,-1343.07,0,0
85233.875,57.4903,-1338.3,0,0
85494.2,57.314,-1333.5,0,0
85754.525,57.0994,-1328.68,0,0
86014.85,56.8611,-1323.91,0,0
86275.175,56.7138,-1319.08,0,0
86535.5,56.7127,-1314.42,0,0
86795.825,56.4989,-1309.85,0,0
87056.15,56.3341,-1305.23,0,0
87316.475,56.0987,-1300.67,0,0
87576.8,55.9265,-1296.07,0,0
87837.125,55.6057,-1291.59,0,0
88097.45,55.0506,-1287.05,0,0
88357.775,54.544,-1282.27,0,0
88618.1,54.2799,-1277.3,0,0
88878.425,54.0375,-1272.61,0,0
89138.75,53.8669,-1267.67,0,0
89399.075,53.7008,-1262.85,0,0
89659.4,53.8181,-1258.13,0,0
89919.725,53.7612,-1253.5,0,0
90180,53.7213,-1248.92,0,0
90440.4,53.6588,-1244.25,0,0
90700.7,53.6461,-1239.79,0,0
90961,53.4473,-1235.23,0,0
91221.3,53.4452,-1230.51,0,0
91481.7,53.4784,-1225.74,0,0
91742,53.5958,-1221.22,0,0
92002.3,53.9804,-1216.59,0,0
92262.6,54.2955,-1212.14,0,0
92523,54.6118,-1207.9,0,0
92783.3,54.957,-1203.71,0,0
93043.6,55.042,-1199.66,0,0
93303.9,55.2583,-1195.71,0,0
93564.3,55.3102,-1191.83,0,0
93824.6,55.1527,-1188.01,0,0
94084.9,54.7994,-1184.09,0,0
94345.2,54.2334,-1180,0,0
94605.6,53.8762,-1175.66,0,0
94865.9,53.4978,-1171.23,0,0
95126.2,53.3431,-1166.76,0,0
95386.5,53.2157,-1162.29,0,0
95646.9,53.1687,-1157.79,0,0
95907.2,53.2117,-1153.34,0,0
96167.5,53.2571,-1148.89,0,0
96427.8,53.4404,-1144.58,0,0
96688.2,53.5371,-1140.28,0,0
96948.5,53.6703,-1135.93,0,0
97208.8,53.8345,-1131.56,0,0
97469.1,53.9957,-1127.36,0,0
97729.5,54.0834,-1123.1,0,0
97989.8,54.2951,-1118.73,0,0
98250.1,54.6228,-1114.35,0,0
98510.4,54.9141,-1110.07,0,0
98770.8,55.3602,-1105.75,0,0
99031.1,55.9031,-1101.52,0,0
99291.4,56.532,-1097.45,0,0
99551.7,56.9727,-1093.59,0,0
99812.1,57.2778,-1089.46,0,0
100072,57.7667,-1085.2,0,0
100333,58.6747,-1080.96,0,0
100593,59.766,-1077.2,0,0
100853,60.6713,-1073.84,0,0
101114,61.3831,-1070.47,0,0
101374,62.2348,-1067.3,0,0
101634,62.7383,-1064.71,0,0
101895,62.5015,-1062.2,0,0
102155,61.7355,-1059.24,0,0
102415,60.7941,-1055.75,0,0
102676,59.9667,-1051.96,0,0
102936,59.0746,-1047.79,0,0
103196,58.3784,-1043.23,0,0
103457,58.0152,-1038.45,0,0
103717,58.0163,-1033.52,0,0
103977,58.3882,-1028.74,0,0
104238,58.8138,-1024.01,0,0
104498,59.4293,-1019.19,0,0
104758,60.373,-1014.52,0,0
105019,61.3841,-1010,0,0
105279,62.4726,-1005.64,0,0
105539,63.7384,-1001.39,0,0
105800,65.0497,-997.266,0,0
106060,66.4139,-993.262,0,0
106320.175,67.7895,-989.414,0,0
106580.5,69.1812,-985.646,0,0
106840.825,70.5357,-982.044,0,0
107101.15,71.7886,-978.472,0,0
107361.475,73.009,-974.93,0,0
107621.8,74.2916,-971.297,0,0
107882.125,75.6978,-967.648,0,0
108142.45,77.2157,-964.031,0,0
108402.775,78.8803,-960.593,0,0
108663.1,80.6704,-957.329,0,0
108923.425,82.4495,-954.238,0,0
109183.75,84.2594,-951.234,0,0
109444.075,86.0922,-948.602,0,0
109704.4,87.7261,-946.11,0,0
109964.725,89.1926,-943.615,0,0
110225.05,90.6946,-941.168,0,0
110485.375,92.1994,-938.864,0,0
110745.7,93.4522,-936.602,0,0
111006.025,94.6447,-934.392,0,0
111266.35,95.7964,-932.184,0,0
111526.675,96.9377,-929.987,0,0
111787.0,98.0811,-927.781,0,0
112047.325,99.2234,-925.559,0,0
112307.65,100.343,-923.601,0,0
112567.975,101.298,-921.593,0,0
112828.3,102.386,-919.701,0,0
113088.625,103.332,-917.836,0,0
113348.95,104.181,-916.046,0,0
113609.275,104.948,-914.268,0,0
113869.6,105.658,-912.498,0,0
114129.925,106.265,-910.749,0,0
114390.25,106.879,-908.993,0,0
114650.575,107.469,-907.277,0,0
114910.9,107.997,-905.65,0,0
115171.225,108.422,-904.146,0,0
115431.55,108.622,-902.608,0,0
115691.875,108.782,-901.005,0,0
115952.2,108.849,-899.267,0,0
116212.525,108.967,-897.562,0,0
116472.85,108.867,-895.936,0,0
116733.175,108.706,-894.214,0,0
116993.5,108.442,-892.422,0,0
117253.825,108.079,-890.504,0,0
117514.15,107.722,-888.328,0,0
117774.475,107.386,-886.072,0,0
118034.8,107.213,-883.697,0,0
118295.125,107.109,-881.348,0,0
118555.45,106.927,-878.89,0,0
118815.775,106.851,-876.141,0,0
119076.1,107.245,-873.108,0,0
119336.425,108.19,-870.363,0,0
119596.75,109.43,-868.003,0,0
119857.075,111.068,-865.909,0,0
120117.4,113.02,-865.031,0,0
120377.725,114.007,-865.195,0,0
120638.05,113.919,-865.495,0,0
120898.375,112.872,-865.5,0,0
121158.7,111.317,-864.791,0,0
121419.025,109.65,-863.447,0,0
121679.35,108.106,-861.705,0,0
121939.675,106.648,-859.664,0,0
122200.0,105.326,-857.395,0,0
122460,104.168,-854.948,0,0
122721,103.224,-852.429,0,0
122981,102.388,-849.918,0,0
123241,101.62,-847.393,0,0
123502,100.99,-844.815,0,0
123762,100.385,-842.331,0,0
124022,99.8118,-839.858,0,0
124283,99.2418,-837.333,0,0
124543,98.6854,-834.859,0,0
124803,98.156,-832.232,0,0
125064,97.8572,-829.635,0,0
125324,97.6366,-827.205,0,0
125584,97.395,-824.908,0,0
125845,97.1228,-822.701,0,0
126105,96.7851,-820.607,0,0
126365,96.3945,-818.65,0,0
126626,95.6654,-816.727,0,0
126886,94.764,-814.639,0,0
127146,93.8127,-812.437,0,0
127406,93.0721,-809.981,0,0
127667,92.2939,-807.811,0,0
127927,91.3728,-805.686,0,0
128187,90.2772,-803.493,0,0
128448,89.02,-801.171,0,0
128708,87.7655,-798.744,0,0
128968,86.355,-796.276,0,0
129229,84.8151,-793.54,0,0
129489,83.2578,-790.571,0,0
129749,81.7256,-787.371,0,0
130010,80.393,-783.893,0,0
130270,79.2655,-780.346,0,0
130530,78.2292,-776.879,0,0
130791,77.1883,-773.283,0,0
131051,76.2643,-769.562,0,0
131311,75.5016,-765.785,0,0
131572,74.896,-762.027,0,0
131832,74.3339,-758.279,0,0
132092,73.7952,-754.509,0,0
132353,73.3609,-750.684,0,0
132613,73.0287,-746.842,0,0
132873,72.7944,-743.071,0,0
133134,72.574,-739.28,0,0
133394,72.4405,-735.495,0,0
133654,72.3435,-731.688,0,0
133915,72.311,-727.889,0,0
134175,72.3583,-724.122,0,0
134435,72.3774,-720.376,0,0
134696,72.471,-716.553,0,0
134956,72.6674,-712.726,0,0
135216,72.9835,-708.932,0,0
135477,73.3243,-705.189,0,0
135737,73.7299,-701.478,0,0
135997,74.1544,-697.821,0,0
136258,74.5514,-694.175,0,0
136518,75.0444,-690.48,0,0
136778,75.652,-686.872,0,0
137039,76.2711,-683.408,0,0
137299,76.7997,-680.045,0,0
137559,77.254,-676.675,0,0
137819,77.5466,-673.298,0,0
138080,77.8525,-669.742,0,0
138340.125,78.2451,-666.101,0,0
138600.45,78.6886,-662.486,0,0
138860.775,79.1071,-658.8,0,0
139121.1,79.5546,-655.005,0,0
139381.425,80.1891,-651.166,0,0
139641.75,80.863,-647.406,0,0
139902.075,81.5457,-643.621,0,0
140162.4,82.325,-639.755,0,0
140422.725,83.1663,-635.928,0,0
140683.05,84.092,-632.086,0,0
140943.375,85.1212,-628.258,0,0
141203.7,86.2385,-624.469,0,0
141464.025,87.3782,-620.778,0,0
141724.35,88.523,-617.129,0,0
141984.675,89.6892,-613.453,0,0
142245.0,90.863,-609.831,0,0
142505.325,92.0713,-606.215,0,0
142765.65,93.2934,-602.583,0,0
143025.975,94.5094,-598.936,0,0
143286.3,95.8699,-595.292,0,0
143546.625,97.1965,-591.7,0,0
143806.95,98.5376,-588.1,0,0
144067.275,99.8731,-584.491,0,0
144327.6,101.233,-580.807,0,0
144587.925,102.663,-577.123,0,0
144848.25,104.165,-573.435,0,0
145108.575,105.735,-569.746,0,0
145368.9,107.319,-566.056,0,0
145629.225,108.966,-562.315,0,0
145889.55,110.697,-558.584,0,0
146149.875,112.486,-554.846,0,0
146410.2,114.371,-551.12,0,0
146670.525,116.238,-547.337,0,0
146930.85,118.303,-543.67,0,0
147191.175,120.396,-540.03,0,0
147451.5,122.522,-536.402,0,0
147711.825,124.703,-532.82,0,0
147972.15,126.874,-529.239,0,0
148232.475,129.091,-525.552,0,0
148492.8,131.487,-521.869,0,0
148753.125,133.959,-518.227,0,0
149013.45,136.505,-514.616,0,0
149273.775,139.136,-511.028,0,0
149534.1,141.844,-507.509,0,0
149794.425,144.553,-503.939,0,0
150054.75,147.368,-500.367,0,0
150315.075,150.239,-496.732,0,0
150575.4,153.356,-493.002,0,0
150835.725,156.782,-489.314,0,0
151096.05,160.43,-485.839,0,0
151356.375,164.147,-482.592,0,0
151616.7,167.871,-479.453,0,0
151877.025,171.657,-476.262,0,0
152137.35,175.794,-473.009,0,0
152397.675,180.318,-470.136,0,0
152658.0,184.919,-467.704,0,0
152918.325,189.431,-465.566,0,0
153178.65,193.922,-463.583,0,0
153438.975,198.518,-461.8,0,0
153699.3,203.166,-460.433,0,0
153959.625,207.542,-459.432,0,0
154219.95,211.756,-458.58,0,0
154480,215.731,-458.033,0,0
154741,219.083,-457.544,0,0
155001,222.228,-456.626,0,0
155261,225.722,-455.223,0,0
155522,229.568,-454.114,0,0
155782,233.694,-453.471,0,0
156042,237.43,-453.274,0,0
156303,240.744,-453.171,0,0
156563,243.699,-453.129,0,0
156823,246.357,-452.778,0,0
157084,249.207,-452.028,0,0
157344,252.1,-451.415,0,0
157604,254.741,-450.797,0,0
157864,257.299,-449.714,0,0
158125,260.441,-448.394,0,0
158385,263.779,-447.278,0,0
158645,267.453,-446.286,0,0
158906,271.281,-445.639,0,0
159166,275.012,-445.265,0,0
159426,278.865,-444.921,0,0
159687,282.883,-444.731,0,0
159947,286.953,-444.966,0,0
160207,290.958,-445.617,0,0
160468,295.097,-446.684,0,0
160728,298.991,-448.567,0,0
160988,301.679,-450.986,0,0
161249,303.442,-453.145,0,0
161509,304.74,-454.457,0,0
161769,306.244,-455.35,0,0
162030,307.769,-456.359,0,0
162290,309.116,-457.23,0,0
162550,310.352,-458.102,0,0
162811,311.002,-458.861,0,0
163071,311.56,-459.048,0,0
163331,312.071,-458.658,0,0
163592,312.809,-457.949,0,0
163852,313.892,-456.923,0,0
164112,314.984,-455.77,0,0
164373,316.514,-454.309,0,0
164633,318.504,-452.911,0,0
164893,320.556,-451.756,0,0
165154,322.42,-450.419,0,0
165414,324.503,-448.621,0,0
165674,327.306,-446.446,0,0
165935,330.734,-444.416,0,0
166195,334.754,-442.596,0,0
166455,339.042,-440.97,0,0
166716,344.176,-439.845,0,0
166976,349.635,-439.364,0,0
167236,355.181,-439.472,0,0
167497,360.9,-440.009,0,0
167757,367.092,-441.285,0,0
168017,373.134,-443.466,0,0
168277,378.891,-446.668,0,0
168538,383.849,-450.256,0,0
168798,388.631,-453.984,0,0
169058,393.418,-458.118,0,0
169319,397.967,-463.18,0,0
169579,401.646,-468.646,0,0
169839,405.006,-474.114,0,0
170100,408.537,-480.215,0,0
170360.075,411.316,-487.592,0,0
170620.4,412.738,-495.633,0,0
170880.725,412.701,-503.881,0,0
171141.05,411.208,-511.754,0,0
171401.375,408.812,-518.878,0,0
171661.7,405.94,-525.591,0,0
171922.025,402.203,-532.133,0,0
172182.35,397.528,-538.02,0,0
172442.675,392.221,-543.155,0,0
172703.0,386.29,-547.496,0,0
172963.325,379.978,-550.845,0,0
173223.65,373.608,-553.407,0,0
173483.975,366.93,-555.261,0,0
173744.3,360.071,-556.094,0,0
174004.625,353.477,-556.06,0,0
174264.95,347.087,-555.267,0,0
174525.275,341.155,-553.764,0,0
174785.6,335.627,-551.993,0,0
175045.925,330.194,-549.987,0,0
175306.25,324.71,-547.39,0,0
175566.575,319.45,-544.032,0,0
175826.9,314.787,-540.07,0,0
176087.225,310.694,-535.711,0,0
176347.55,307.204,-531.019,0,0
176607.875,304.307,-526.16,0,0
176868.2,301.99,-521.281,0,0
177128.525,300.132,-516.458,0,0
177388.85,298.617,-511.646,0,0
177649.175,297.555,-506.872,0,0
177909.5,296.889,-502.327,0,0
178169.825,296.384,-498.035,0,0
178430.15,295.898,-493.832,0,0
178690.475,295.534,-489.564,0,0
178950.8,295.407,-485.217,0,0
179211.125,295.543,-480.917,0,0
179471.45,295.988,-476.674,0,0
179731.775,296.663,-472.677,0,0
179992.1,297.412,-468.897,0,0
180252.425,298.231,-465.248,0,0
180512.75,299.054,-461.692,0,0
180773.075,299.942,-458.263,0,0
181033.4,300.844,-454.892,0,0
181293.725,301.746,-451.626,0,0
181554.05,302.627,-448.438,0,0
181814.375,303.463,-445.312,0,0
182074.7,304.218,-442.228,0,0
182335.025,304.814,-439.078,0,0
182595.35,305.356,-435.777,0,0
182855.675,305.905,-432.362,0,0
183116.0,306.474,-428.771,0,0
183376.325,307.129,-425.027,0,0
183636.65,307.873,-421.209,0,0
183896.975,308.664,-417.292,0,0
184157.3,309.533,-413.262,0,0
184417.625,310.506,-409.089,0,0
184677.95,311.592,-404.82,0,0
184938.275,312.766,-400.454,0,0
185198.6,314.033,-395.918,0,0
185458.925,315.505,-391.189,0,0
185719.25,317.224,-386.361,0,0
185979.575,319.139,-381.524,0,0
186239.9,321.228,-376.639,0,0
186500,323.479,-371.78,0,0
186761,325.823,-366.775,0,0
187021,328.353,-361.717,0,0
187281,331.038,-356.492,0,0
187542,333.866,-351.294,0,0
187802,336.929,-345.95,0,0
188062,340.279,-340.467,0,0
188322,343.905,-334.933,0,0
188583,347.744,-329.287,0,0
188843,351.91,-323.701,0,0
189103,356.294,-318.052,0,0
189364,360.982,-312.296,0,0
189624,366.028,-306.546,0,0
189884,371.421,-300.794,0,0
190145,377.055,-294.962,0,0
190405,383.334,-289.228,0,0
190665,389.938,-283.631,0,0
190926,396.864,-278.168,0,0
191186,403.984,-272.825,0,0
191446,411.579,-267.538,0,0
191707,419.655,-262.503,0,0
191967,428.055,-257.637,0,0
192227,436.816,-253.01,0,0
192488,445.92,-248.75,0,0
192748,455.319,-244.645,0,0
193008,464.999,-240.889,0,0
193269,475.048,-237.438,0,0
193529,485.192,-234.295,0,0
193789,495.761,-231.382,0,0
194050,506.537,-228.776,0,0
194310,517.736,-226.624,0,0
194570,529.029,-224.752,0,0
194831,540.473,-223.323,0,0
195091,552.091,-222.241,0,0
195351,563.822,-221.289,0,0
195612,575.861,-220.545,0,0
195872,588.272,-220.097,0,0
196132,601.056,-219.936,0,0
196393,614.203,-220.194,0,0
196653,627.713,-220.823,0,0
196913,641.676,-221.908,0,0
197174,656.173,-223.559,0,0
197434,671.043,-225.919,0,0
197694,686.28,-229.022,0,0
197955,701.854,-232.887,0,0
198215,717.704,-237.591,0,0
198475,733.863,-243.072,0,0
198735,750.511,-249.563,0,0
198996,767.401,-257.416,0,0
199256,784.375,-266.769,0,0
199516,800.936,-277.593,0,0
199777,817.136,-289.79,0,0
200037,832.575,-303.184,0,0
200297,847.262,-317.802,0,0
200558,861.32,-333.58,0,0
200818,874.37,-350.839,0,0
201078,885.883,-369,0,0
201339,895.83,-387.846,0,0
201599,904.538,-407.108,0,0
201859,911.863,-426.691,0,0
202120,917.947,-446.305,0,0
202380.025,923.047,-466.145,0,0
202640.35,926.46,-486.057,0,0
202900.675,928.44,-505.364,0,0
203161.0,930.114,-523.907,0,0
203421.325,931.561,-542.54,0,0
203681.65,932.466,-561.88,0,0
203941.975,931.815,-581.606,0,0
204202.3,929.574,-601.038,0,0
204462.625,926.133,-619.585,0,0
204722.95,922.057,-637.338,0,0
204983.275,917.318,-654.566,0,0
205243.6,911.85,-671.659,0,0
205503.925,905.839,-687.92,0,0
205764.25,899.186,-703.583,0,0
206024.575,892.099,-718.521,0,0
206284.9,885.11,-732.776,0,0
206545.225,878.129,-747.173,0,0
206805.55,870.818,-761.618,0,0
207065.875,862.666,-776.254,0,0
207326.2,853.449,-791.025,0,0
207586.525,843.047,-805.302,0,0
207846.85,831.364,-818.804,0,0
208107.175,818.717,-831.019,0,0
208367.5,805.52,-842.091,0,0
208627.825,791.934,-852.077,0,0
208888.15,777.836,-860.738,0,0
209148.475,763.756,-868.112,0,0
209408.8,749.952,-874.181,0,0
209669.125,736.436,-879.329,0,0
209929.45,723.154,-883.267,0,0
210189.775,710.779,-886.556,0,0
210450.1,698.91,-889.656,0,0
210710.425,686.908,-892.303,0,0
210970.75,675.035,-894.148,0,0
211231.075,663.605,-895.277,0,0
211491.4,652.812,-895.746,0,0
211751.725,642.644,-895.799,0,0
212012.05,632.997,-895.701,0,0
212272.375,623.66,-895.297,0,0
212532.7,614.832,-894.527,0,0
212793.025,606.616,-893.604,0,0
213053.35,598.751,-892.615,0,0
213313.675,591.096,-891.555,0,0
213574.0,583.624,-890.108,0,0
213834.325,576.635,-888.153,0,0
214094.65,570.629,-885.734,0,0
214354.975,565.613,-883.471,0,0
214615.3,561.307,-881.833,0,0
214875.625,557.518,-880.694,0,0
215135.95,554.063,-879.908,0,0
215396.275,550.748,-880.202,0,0
215656.6,547.22,-880.843,0,0
215916.925,543.515,-881.871,0,0
216177.25,539.339,-883.179,0,0
216437.575,534.806,-884.621,0,0
216697.9,529.809,-885.821,0,0
216958.225,524.677,-886.727,0,0
217218.55,519.517,-887.345,0,0
217478.875,514.536,-887.808,0,0
217739.2,509.634,-888.148,0,0
217999.525,504.847,-888.511,0,0
218259.85,500.036,-888.916,0,0
218520,495.238,-889.055,0,0
218780,490.602,-889.216,0,0
219041,486.145,-889.371,0,0
219301,481.777,-889.648,0,0
219561,477.3,-890.03,0,0
219822,472.776,-890.487,0,0
220082,468.07,-890.772,0,0
220342,463.497,-891.032,0,0
220603,458.783,-891.238,0,0
220863,453.988,-891.327,0,0
221123,449.292,-891.237,0,0
221384,444.565,-891.215,0,0
221644,439.912,-890.996,0,0
221904,435.226,-890.643,0,0
222165,430.712,-890.212,0,0
222425,426.282,-889.76,0,0
222685,421.931,-889.231,0,0
222946,417.763,-888.751,0,0
223206,413.704,-888.172,0,0
223466,409.583,-887.737,0,0
223727,405.592,-887.379,0,0
223987,401.769,-887.018,0,0
224247,397.891,-886.784,0,0
224508,393.983,-886.815,0,0
224768,389.981,-886.843,0,0
225028,385.705,-886.987,0,0
225289,381.406,-887.224,0,0
225549,376.742,-887.243,0,0
225809,372.009,-887.257,0,0
226070,367.015,-887.129,0,0
226330,361.995,-886.836,0,0
226590,356.926,-886.332,0,0
226851,351.754,-885.754,0,0
227111,346.47,-885.019,0,0
227371,341.164,-884.023,0,0
227632,335.776,-882.991,0,0
227892,330.241,-881.588,0,0
228152,324.683,-879.895,0,0
228413,319.202,-877.911,0,0
228673,313.806,-875.563,0,0
228933,308.63,-872.969,0,0
229193,303.722,-870.187,0,0
229454,298.871,-867.322,0,0
229714,294.204,-864.199,0,0
229974,289.786,-861.016,0,0
230235,285.674,-857.592,0,0
230495,281.764,-854.249,0,0
230755,277.943,-850.776,0,0
231016,274.383,-847.286,0,0
231276,271.021,-843.874,0,0
231536,267.768,-840.336,0,0
231797,264.735,-836.893,0,0
232057,261.865,-833.472,0,0
232317,259.036,-830.075,0,0
232578,256.316,-826.662,0,0
232838,253.802,-823.165,0,0
233098,251.469,-819.78,0,0
233359,249.2,-816.538,0,0
233619,246.92,-813.272,0,0
233879,244.715,-809.972,0,0
234140,242.625,-806.656,0,0
234400,240.777,-803.362,0,0
234660.3,238.995,-800.076,0,0
234920.625,237.204,-797.014,0,0
235180.95,235.671,-793.791,0,0
235441.275,234.193,-790.881,0,0
235701.6,232.658,-787.934,0,0
235961.925,231.004,-785.077,0,0
236222.25,229.464,-782.061,0,0
236482.575,227.917,-779.082,0,0
236742.9,226.514,-776.067,0,0
237003.225,225.127,-773.035,0,0
237263.55,223.838,-769.918,0,0
237523.875,222.66,-766.753,0,0
237784.2,221.713,-763.567,0,0
238044.525,220.96,-760.419,0,0
238304.85,220.426,-757.416,0,0
238565.175,219.994,-754.605,0,0
238825.5,219.642,-751.905,0,0
239085.825,219.273,-749.347,0,0
239346.15,218.961,-746.867,0,0
239606.475,218.702,-744.583,0,0
239866.8,218.541,-742.354,0,0
240127.125,218.291,-740.074,0,0
240387.45,218.067,-737.997,0,0
240647.775,217.908,-736.174,0,0
240908.1,217.583,-734.268,0,0
241168.425,217.312,-732.525,0,0
241428.75,217.032,-730.845,0,0
241689.075,216.673,-729.25,0,0
241949.4,216.302,-727.755,0,0
242209.725,215.895,-726.255,0,0
242470.05,215.353,-724.84,0,0
242730.375,214.835,-723.416,0,0
242990.7,214.232,-721.989,0,0
243251.025,213.616,-720.629,0,0
243511.35,213.01,-719.381,0,0
243771.675,212.22,-718.148,0,0
244032.0,211.403,-716.896,0,0
244292.325,210.316,-715.742,0,0
244552.65,209.164,-714.374,0,0
244812.975,207.992,-712.919,0,0
245073.3,206.651,-711.377,0,0
245333.625,205.4,-709.66,0,0
245593.95,204.31,-707.874,0,0
245854.275,203.21,-705.979,0,0
246114.6,202.099,-704.088,0,0
246374.925,201.039,-702.109,0,0
246635.25,200.035,-700.116,0,0
246895.575,198.971,-697.994,0,0
247155.9,198.171,-695.751,0,0
247416.225,197.513,-693.636,0,0
247676.55,196.941,-691.482,0,0
247936.875,196.347,-689.386,0,0
248197.2,195.85,-687.339,0,0
248457.525,195.387,-685.372,0,0
248717.85,194.91,-683.408,0,0
248978.175,194.43,-681.405,0,0
249238.5,193.997,-679.415,0,0
249498.825,193.695,-677.45,0,0
249759.15,193.346,-675.466,0,0
250019.475,193.151,-673.572,0,0
250279.8,192.895,-671.726,0,0
250540,192.748,-670.044,0,0
250800,192.62,-668.512,0,0
251061,192.308,-667.026,0,0
251321,191.909,-665.618,0,0
251581,191.421,-664.186,0,0
251842,190.738,-662.811,0,0
252102,189.918,-661.364,0,0
252362,188.94,-659.796,0,0
252623,187.85,-658.037,0,0
252883,186.728,-656.032,0,0
253143,185.682,-653.841,0,0
253404,184.692,-651.511,0,0
253664,183.868,-649.071,0,0
253924,183.106,-646.524,0,0
254185,182.462,-643.945,0,0
254445,181.869,-641.346,0,0
254705,181.334,-638.643,0,0
254966,180.727,-635.973,0,0
255226,180.174,-633.075,0,0
255486,179.687,-629.965,0,0
255747,179.372,-626.699,0,0
256007,179.286,-623.254,0,0
256267,179.462,-619.748,0,0
256528,179.884,-616.256,0,0
256788,180.392,-612.779,0,0
257048,181.05,-609.244,0,0
257309,181.931,-605.567,0,0
257569,183.117,-601.914,0,0
257829,184.537,-598.335,0,0
258090,186.158,-594.812,0,0
258350,187.951,-591.308,0,0
258610,189.997,-587.837,0,0
258871,192.357,-584.424,0,0
259131,195.018,-581.208,0,0
259391,197.891,-578.227,0,0
259651,200.858,-575.456,0,0
259912,203.943,-572.858,0,0
260172,207.142,-570.337,0,0
260432,210.593,-567.907,0,0
260693,214.279,-565.69,0,0
260953,218.222,-563.754,0,0
261213,222.34,-562.143,0,0
261474,226.531,-560.964,0,0
261734,230.665,-560.157,0,0
261994,234.695,-559.522,0,0
262255,238.665,-559.039,0,0
262515,242.726,-558.615,0,0
262775,247.016,-558.422,0,0
263036,251.445,-558.624,0,0
263296,255.873,-559.261,0,0
263556,260.09,-560.291,0,0
263817,264.253,-561.56,0,0
264077,268.288,-563.303,0,0
264337,272.006,-565.054,0,0
264598,275.712,-566.991,0,0
264858,279.32,-569.174,0,0
265118,282.885,-571.613,0,0
265379,286.247,-574.392,0,0
265639,289.38,-577.405,0,0
265899,292.29,-580.567,0,0
266160,295.026,-584.019,0,0
266420,297.503,-587.683,0,0
266680.25,299.661,-591.445,0,0
266940.575,301.63,-595.308,0,0
267200.9,303.427,-599.34,0,0
267461.225,305.045,-603.632,0,0
267721.55,306.329,-608.157,0,0
267981.875,307.248,-612.965,0,0
268242.2,307.715,-617.97,0,0
268502.525,307.613,-623.137,0,0
268762.85,306.794,-628.258,0,0
269023.175,305.435,-633.283,0,0
269283.5,303.354,-638.087,0,0
269543.825,300.688,-642.31,0,0
269804.15,297.658,-645.889,0,0
270064.475,294.464,-648.639,0,0
270324.8,291.511,-650.924,0,0
270585.125,288.838,-652.711,0,0
270845.45,286.548,-654.322,0,0
271105.775,284.476,-655.911,0,0
271366.1,282.632,-657.514,0,0
271626.425,280.818,-659.321,0,0
271886.75,278.957,-661.116,0,0
272147.075,276.943,-662.937,0,0
272407.4,274.93,-664.768,0,0
272667.725,272.842,-666.468,0,0
272928.05,270.754,-668.201,0,0
273188.375,268.698,-669.922,0,0
273448.7,266.563,-671.717,0,0
273709.025,264.254,-673.628,0,0
273969.35,261.851,-675.603,0,0
274229.675,259.127,-677.603,0,0
274490.0,256.191,-679.544,0,0
274750.325,252.973,-681.365,0,0
275010.65,249.331,-683.096,0,0
275270.975,245.434,-684.49,0,0
275531.3,241.327,-685.488,0,0
275791.625,237.201,-686.161,0,0
276051.95,233.009,-686.476,0,0
276312.275,228.774,-686.515,0,0
276572.6,224.506,-686.269,0,0
276832.925,220.21,-685.683,0,0
277093.25,215.902,-684.708,0,0
277353.575,211.692,-683.334,0,0
277613.9,207.623,-681.552,0,0
277874.225,203.836,-679.409,0,0
278134.55,200.275,-676.968,0,0
278394.875,197.036,-674.146,0,0
278655.2,194.164,-671.133,0,0
278915.525,191.816,-667.853,0,0
279175.85,190.022,-664.552,0,0
279436.175,188.657,-661.219,0,0
279696.5,187.885,-658.145,0,0
279956.825,187.457,-655.482,0,0
280217.15,187.218,-653.202,0,0
280477.475,186.847,-651.233,0,0
280737.8,186.469,-649.342,0,0
280998.125,186.116,-647.559,0,0
281258.45,185.83,-645.942,0,0
281518.775,185.474,-644.441,0,0
281779.1,185.062,-642.91,0,0
282039.425,184.669,-641.304,0,0
282299.75,184.477,-639.602,0,0
282560,184.568,-637.999,0,0
282820,184.85,-636.653,0,0
283081,185.178,-635.587,0,0
283341,185.521,-634.781,0,0
283601,185.808,-634.234,0,0
283862,185.902,-633.889,0,0
284122,185.762,-633.686,0,0
284382,185.432,-633.49,0,0
284643,185.014,-633.231,0,0
284903,184.491,-633.025,0,0
285163,183.891,-632.873,0,0
285424,183.211,-632.726,0,0
285684,182.311,-632.693,0,0
285944,181.183,-632.645,0,0
286205,179.723,-632.399,0,0
286465,178.072,-631.949,0,0
286725,176.296,-631.123,0,0
286986,174.603,-630.054,0,0
287246,172.939,-628.76,0,0
287506,171.325,-627.25,0,0
287767,169.79,-625.462,0,0
288027,168.389,-623.436,0,0
288287,167.194,-621.203,0,0
288548,166.211,-618.72,0,0
288808,165.539,-616.026,0,0
289068,165.213,-613.198,0,0
289329,165.369,-610.321,0,0
289589,165.953,-607.555,0,0
289849,166.846,-604.974,0,0
290109,168.074,-602.59,0,0
290370,169.538,-600.447,0,0
290630,171.202,-598.523,0,0
290890,173.062,-596.84,0,0
291151,175.092,-595.478,0,0
291411,177.224,-594.366,0,0
291671,179.509,-593.563,0,0
291932,181.838,-593.111,0,0
292192,184.244,-593.002,0,0
292452,186.645,-593.244,0,0
292713,189.001,-593.875,0,0
292973,191.233,-594.956,0,0
293233,193.224,-596.378,0,0
293494,194.896,-598.128,0,0
293754,196.275,-600.052,0,0
294014,197.381,-602.17,0,0
294275,198.213,-604.433,0,0
294535,198.701,-606.877,0,0
294795,198.806,-609.451,0,0
295056,198.523,-612.022,0,0
295316,197.806,-614.533,0,0
295576,196.771,-616.95,0,0
295837,195.423,-619.193,0,0
296097,193.761,-621.267,0,0
296357,191.839,-623.077,0,0
296618,189.661,-624.587,0,0
296878,187.396,-625.77,0,0
297138,185.112,-626.62,0,0
297399,182.879,-627.214,0,0
297659,180.7,-627.605,0,0
297919,178.59,-627.847,0,0
298180,176.575,-627.952,0,0
298440,174.615,-627.935,0,0
298700.2,172.745,-627.811,0,0
298960.525,170.977,-627.653,0,0
299220.85,169.265,-627.457,0,0
299481.175,167.635,-627.257,0,0
299741.5,165.979,-627.074,0,0
300001.825,164.299,-626.875,0,0
300262.15,162.588,-626.598,0,0
300522.475,160.902,-626.294,0,0
300782.8,159.204,-625.913,0,0
301043.125,157.443,-625.461,0,0
301303.45,155.732,-624.907,0,0
301563.775,154.056,-624.262,0,0
301824.1,152.44,-623.521,0,0
302084.425,150.889,-622.744,0,0
302344.75,149.412,-621.941,0,0
302605.075,148.027,-621.166,0,0
302865.4,146.636,-620.397,0,0
303125.725,145.201,-619.616,0,0
303386.05,143.752,-618.778,0,0
303646.375,142.314,-617.842,0,0
303906.7,140.925,-616.847,0,0
304167.025,139.609,-615.799,0,0
304427.35,138.343,-614.719,0,0
304687.675,137.13,-613.607,0,0
304948.0,135.996,-612.474,0,0
305208.325,134.875,-611.322,0,0
305468.65,133.818,-610.161,0,0
305728.975,132.836,-608.961,0,0
305989.3,131.884,-607.762,0,0
306249.625,130.986,-606.53,0,0
306509.95,130.14,-605.3,0,0
306770.275,129.394,-604.032,0,0
307030.6,128.74,-602.787,0,0
307290.925,128.171,-601.565,0,0
307551.25,127.68,-600.423,0,0
307811.575,127.231,-599.331,0,0
308071.9,126.799,-598.324,0,0
308332.225,126.41,-597.337,0,0
308592.55,126.042,-596.441,0,0
308852.875,125.675,-595.641,0,0
309113.2,125.265,-594.908,0,0
309373.525,124.852,-594.2,0,0
309633.85,124.334,-593.577,0,0
309894.175,123.789,-592.915,0,0
310154.5,123.163,-592.286,0,0
310414.825,122.481,-591.631,0,0
310675.15,121.756,-590.92,0,0
310935.475,121.023,-590.14,0,0
311195.8,120.286,-589.329,0,0
311456.125,119.564,-588.492,0,0
311716.45,118.886,-587.582,0,0
311976.775,118.231,-586.668,0,0
312237.1,117.611,-585.72,0,0
312497.425,117.014,-584.793,0,0
312757.75,116.438,-583.834,0,0
313018.075,115.905,-582.835,0,0
313278.4,115.405,-581.82,0,0
313538.725,114.98,-580.8,0,0
313799.05,114.617,-579.818,0,0
314059.375,114.308,-578.855,0,0
314319.7,114.028,-577.955,0,0
314580,113.792,-577.086,0,0
314840,113.528,-576.224,0,0
315101,113.337,-575.542,0,0
315361,113.032,-574.736,0,0
315621,112.791,-574.016,0,0
315882,112.615,-573.253,0,0
316142,112.351,-572.557,0,0
316402,112.225,-571.895,0,0
316663,112.014,-571.286,0,0
316923,111.838,-570.731,0,0
317183,111.682,-570.129,0,0
317444,111.526,-569.723,0,0
317704,111.275,-569.224,0,0
317964,110.975,-568.824,0,0
318225,110.767,-568.485,0,0
318485,110.473,-568.202,0,0
318745,110.155,-567.865,0,0
319006,109.871,-567.593,0,0
319266,109.438,-567.357,0,0
319526,109.032,-567.145,0,0
319787,108.608,-566.964,0,0
320047,108.045,-566.926,0,0
320307,107.505,-566.815,0,0
320567,106.736,-566.752,0,0
320828,106.016,-566.69,0,0
321088,105.12,-566.633,0,0
321348,104.147,-566.598,0,0
321609,103.039,-566.48,0,0
321869,101.838,-566.354,0,0
322129,100.443,-565.99,0,0
322390,99.0369,-565.571,0,0
322650,97.5614,-565.044,0,0
322910,96.0719,-564.213,0,0
323171,94.5819,-563.34,0,0
323431,93.1777,-562.223,0,0
323691,91.8885,-561.057,0,0
323952,90.6875,-559.712,0,0
324212,89.57,-558.391,0,0
324472,88.5598,-556.984,0,0
324733,87.7345,-555.595,0,0
324993,86.9757,-554.211,0,0
325253,86.2242,-552.822,0,0
325514,85.5712,-551.583,0,0
325774,84.9442,-550.202,0,0
326034,84.3243,-549.02,0,0
326295,83.707,-547.661,0,0
326555,83.0716,-546.397,0,0
326815,82.5545,-545.106,0,0
327076,82.0666,-543.855,0,0
327336,81.5175,-542.461,0,0
327596,80.9733,-541.186,0,0
327857,80.5919,-539.877,0,0
328117,80.0981,-538.501,0,0
328377,79.6359,-537.1,0,0
328638,79.1964,-535.633,0,0
328898,78.8568,-534.254,0,0
329158,78.6318,-532.738,0,0
329419,78.3954,-531.173,0,0
329679,78.3338,-529.734,0,0
329939,78.3891,-528.358,0,0
330200,78.5293,-526.96,0,0
330460,78.6905,-525.646,0,0
330720.15,78.924,-524.389,0,0
330980.475,79.0945,-523.227,0,0
331240.8,79.3102,-522.118,0,0
331501.125,79.6054,-521.124,0,0
331761.45,79.8126,-520.115,0,0
332021.775,80.114,-519.195,0,0
332282.1,80.4108,-518.401,0,0
332542.425,80.5597,-517.641,0,0
332802.75,80.8261,-516.894,0,0
333063.075,80.9645,-516.266,0,0
333323.4,81.1165,-515.755,0,0
333583.725,81.1072,-515.256,0,0
333844.05,81.059,-514.697,0,0
334104.375,80.8944,-514.174,0,0
334364.7,80.6806,-513.601,0,0
334625.025,80.4291,-512.988,0,0
334885.35,80.1512,-512.417,0,0
335145.675,79.9003,-511.823,0,0
335406.0,79.4479,-511.114,0,0
335666.325,79.1549,-510.39,0,0
335926.65,78.6937,-509.61,0,0
336186.975,78.315,-508.796,0,0
336447.3,77.853,-507.936,0,0
336707.625,77.3756,-506.98,0,0
336967.95,76.928,-505.976,0,0
337228.275,76.6063,-504.86,0,0
337488.6,76.2201,-503.726,0,0
337748.925,75.9967,-502.569,0,0
338009.25,75.7735,-501.39,0,0
338269.575,75.6053,-500.187,0,0
338529.9,75.3981,-498.998,0,0
338790.225,75.2663,-497.753,0,0
339050.55,75.2191,-496.536,0,0
339310.875,75.2635,-495.266,0,0
339571.2,75.2302,-494.03,0,0
339831.525,75.3081,-492.629,0,0
340091.85,75.4477,-491.385,0,0
340352.175,75.6869,-490.1,0,0
340612.5,75.9664,-488.749,0,0
340872.825,76.3078,-487.457,0,0
341133.15,76.7676,-486.203,0,0
341393.475,77.2897,-484.898,0,0
341653.8,77.8986,-483.742,0,0
341914.125,78.614,-482.576,0,0
342174.45,79.3455,-481.553,0,0
342434.775,80.2078,-480.551,0,0
342695.1,81.1356,-479.732,0,0
342955.425,82.0336,-478.99,0,0
343215.75,82.9413,-478.501,0,0
343476.075,83.8472,-478.009,0,0
343736.4,84.6988,-477.684,0,0
343996.725,85.4705,-477.373,0,0
344257.05,86.2172,-477.181,0,0
344517.375,86.9038,-477.08,0,0
344777.7,87.479,-477.013,0,0
345038.025,88.0441,-477.046,0,0
345298.35,88.4673,-477.051,0,0
345558.675,88.8779,-477.117,0,0
345819.0,89.1938,-477.172,0,0
346079.325,89.4298,-477.295,0,0
346339.65,89.6174,-477.419,0,0
346599.975,89.59,-477.519,0,0
346860,89.674,-477.593,0,0
347121,89.6009,-477.655,0,0
347381,89.5457,-477.725,0,0
347641,89.3681,-477.757,0,0
347902,89.1487,-477.773,0,0
348162,88.9216,-477.727,0,0
348422,88.676,-477.626,0,0
348683,88.3218,-477.547,0,0
348943,87.9565,-477.379,0,0
349203,87.5382,-477.174,0,0
349464,87.1782,-476.884,0,0
349724,86.7437,-476.582,0,0
349984,86.3766,-476.301,0,0
350245,85.9835,-475.851,0,0
350505,85.5871,-475.454,0,0
350765,85.1846,-475.025,0,0
351025,84.8548,-474.591,0,0
351286,84.4041,-474.11,0,0
351546,84.0202,-473.634,0,0
351806,83.6221,-473.048,0,0
352067,83.183,-472.444,0,0
352327,82.814,-471.785,0,0
352587,82.4581,-471.053,0,0
352848,82.1154,-470.378,0,0
353108,81.8675,-469.585,0,0
353368,81.6671,-468.735,0,0
353629,81.5618,-467.979,0,0
353889,81.5299,-467.187,0,0
354149,81.4416,-466.45,0,0
354410,81.4736,-465.719,0,0
354670,81.4836,-465.05,0,0
354930,81.5099,-464.494,0,0
355191,81.565,-463.908,0,0
355451,81.5657,-463.364,0,0
355711,81.5659,-462.807,0,0
355972,81.5604,-462.292,0,0
356232,81.5806,-461.759,0,0
356492,81.5665,-461.278,0,0
356753,81.513,-460.885,0,0
357013,81.3949,-460.437,0,0
357273,81.3073,-460.014,0,0
357534,81.2171,-459.62,0,0
357794,81.0023,-459.111,0,0
358054,80.7333,-458.621,0,0
358315,80.469,-458.122,0,0
358575,80.2277,-457.541,0,0
358835,79.9787,-456.921,0,0
359096,79.6998,-456.301,0,0
359356,79.5236,-455.597,0,0
359616,79.2949,-454.973,0,0
359877,79.082,-454.239,0,0
360137,78.9186,-453.488,0,0
360397,78.747,-452.706,0,0
360658,78.5971,-451.983,0,0
360918,78.4593,-451.152,0,0
361178,78.353,-450.276,0,0
361438,78.2934,-449.398,0,0
361699,78.3893,-448.566,0,0
361959,78.4372,-447.691,0,0
362219,78.591,-446.905,0,0
362480,78.7162,-446.08,0,0
362740.1,78.9373,-445.334,0,0
363000.425,79.1149,-444.732,0,0
363260.75,79.3142,-444.058,0,0
363521.075,79.4334,-443.501,0,0
363781.4,79.5512,-442.954,0,0
364041.725,79.5532,-442.423,0,0
364302.05,79.5781,-441.826,0,0
364562.375,79.5615,-441.205,0,0
364822.7,79.6127,-440.497,0,0
365083.025,79.4616,-439.886,0,0
365343.35,79.4527,-439.137,0,0
365603.675,79.3422,-438.358,0,0
365864.0,79.3953,-437.486,0,0
366124.325,79.3633,-436.627,0,0
366384.65,79.4568,-435.678,0,0
366644.975,79.5412,-434.782,0,0
366905.3,79.7565,-433.746,0,0
367165.625,80.0108,-432.86,0,0
367425.95,80.2485,-431.861,0,0
367686.275,80.6394,-430.892,0,0
367946.6,81.0425,-429.945,0,0
368206.925,81.4925,-428.99,0,0
368467.25,81.9986,-428.038,0,0
368727.575,82.5846,-427.113,0,0
368987.9,83.2023,-426.228,0,0
369248.225,83.8789,-425.341,0,0
369508.55,84.659,-424.6,0,0
369768.875,85.4224,-423.857,0,0
370029.2,86.3034,-423.103,0,0
370289.525,87.1579,-422.473,0,0
370549.85,88.0736,-421.832,0,0
370810.175,89.1024,-421.167,0,0
371070.5,90.1337,-420.761,0,0
371330.825,91.2545,-420.352,0,0
371591.15,92.3713,-420.06,0,0
371851.475,93.5461,-419.935,0,0
372111.8,94.6887,-419.907,0,0
372372.125,95.8035,-420.03,0,0
372632.45,96.9357,-420.273,0,0
372892.775,97.9671,-420.597,0,0
373153.1,98.8795,-421.068,0,0
373413.425,99.7459,-421.644,0,0
373673.75,100.482,-422.261,0,0
373934.075,101.127,-423.001,0,0
374194.4,101.561,-423.784,0,0
374454.725,101.861,-424.557,0,0
374715.05,101.965,-425.26,0,0
374975.375,101.984,-425.967,0,0
375235.7,101.885,-426.568,0,0
375496.025,101.767,-427.047,0,0
375756.35,101.59,-427.432,0,0
376016.675,101.435,-427.726,0,0
376277.0,101.223,-428.029,0,0
376537.325,101.079,-428.256,0,0
376797.65,100.967,-428.365,0,0
377057.975,100.793,-428.565,0,0
377318.3,100.763,-428.687,0,0
377578.625,100.677,-428.867,0,0
377838.95,100.611,-429.032,0,0
378099.275,100.491,-429.272,0,0
378359.6,100.409,-429.446,0,0
378619.925,100.223,-429.616,0,0
378880,100.046,-429.872,0,0
379141,99.8243,-430.088,0,0
379401,99.573,-430.19,0,0
379661,99.3064,-430.355,0,0
379922,99.0184,-430.487,0,0
380182,98.7083,-430.584,0,0
380442,98.4181,-430.674,0,0
380703,98.1021,-430.721,0,0
380963,97.7208,-430.74,0,0
381223,97.2831,-430.632,0,0
381483,97.0007,-430.474,0,0
381744,96.7848,-430.19,0,0
382004,96.6441,-429.904,0,0
382264,96.6549,-429.589,0,0
382525,96.8089,-429.43,0,0
382785,96.9911,-429.406,0,0
383045,97.3347,-429.496,0,0
383306,97.5952,-429.856,0,0
383566,97.8394,-430.345,0,0
383826,97.8106,-430.921,0,0
384087,97.6564,-431.659,0,0
384347,97.3345,-432.311,0,0
384607,96.8953,-433.024,0,0
384868,96.2313,-433.708,0,0
385128,95.4893,-434.234,0,0
385388,94.6282,-434.736,0,0
385649,93.6293,-435.123,0,0
385909,92.5793,-435.458,0,0
386169,91.4389,-435.639,0,0
386430,90.3032,-435.662,0,0
386690,89.1013,-435.587,0,0
386950,87.89,-435.35,0,0
387211,86.7223,-434.983,0,0
387471,85.5896,-434.444,0,0
387731,84.5415,-433.8,0,0
387992,83.561,-433.025,0,0
388252,82.7782,-432.205,0,0
388512,82.0327,-431.295,0,0
388773,81.4703,-430.434,0,0
389033,81.0219,-429.557,0,0
389293,80.7053,-428.566,0,0
389554,80.519,-427.748,0,0
389814,80.4345,-426.928,0,0
390074,80.4225,-426.239,0,0
390335,80.4651,-425.651,0,0
390595,80.5756,-425.171,0,0
390855,80.6813,-424.809,0,0
391116,80.7734,-424.593,0,0
391376,80.8481,-424.442,0,0
391636,80.8974,-424.476,0,0
391896,80.8041,-424.597,0,0
392157,80.6089,-424.819,0,0
392417,80.2413,-425.062,0,0
392677,79.7127,-425.275,0,0
392938,78.9917,-425.424,0,0
393198,78.2014,-425.509,0,0
393458,77.37,-425.471,0,0
393719,76.4253,-425.321,0,0
393979,75.4456,-425.086,0,0
394239,74.5349,-424.745,0,0
394500,73.5764,-424.384,0,0
394760.05,72.6192,-423.836,0,0
395020.375,71.631,-423.268,0,0
395280.7,70.7436,-422.561,0,0
395541.025,69.8708,-421.837,0,0
395801.35,69.081,-421.059,0,0
396061.675,68.2799,-420.206,0,0
396322.0,67.6258,-419.267,0,0
396582.325,66.9279,-418.406,0,0
396842.65,66.3845,-417.479,0,0
397102.975,65.8361,-416.581,0,0
397363.3,65.3248,-415.631,0,0
397623.625,64.8827,-414.777,0,0
397883.95,64.3998,-413.844,0,0
398144.275,63.9852,-412.928,0,0
398404.6,63.5223,-411.998,0,0
398664.925,63.0582,-411.025,0,0
398925.25,62.6951,-410.059,0,0
399185.575,62.3228,-409.054,0,0
399445.9,62.0077,-408.006,0,0
399706.225,61.7346,-407.006,0,0
399966.55,61.466,-405.966,0,0
400006.6,61.4439,-405.829,0,0