File: Accelerated corrosion test data/2025-10-13_06-00-03/sample_8.csv
Frequency (Hz),Impedance (ohms),Phase (Radians),Temperature (C),Humidity (%)
10000.0,315.207,-10978.2,0,0
10260.325,307.005,-10703.5,0,0
10520.65,299.799,-10441.8,0,0
10780.975,292.159,-10192.5,0,0
11041.3,286.036,-9955.37,0,0
11301.625,279.567,-9729.28,0,0
11561.95,273.461,-9512.41,0,0
11822.275,267.456,-9305.47,0,0
12082.6,264.935,-9105.15,0,0
12342.925,262.259,-8918.78,0,0
12603.25,257.35,-8738.08,0,0
12863.575,253.386,-8566.74,0,0
13123.9,245.278,-8401.83,0,0
13384.225,238.855,-8239.83,0,0
13644.55,236.208,-8085.09,0,0
13904.875,228.807,-7936.1,0,0
14165.2,223.703,-7790.43,0,0
14425.525,219.954,-7651.7,0,0
14685.8,215.34,-7517,0,0
14946.175,211.273,-7387.61,0,0
15206.5,207.625,-7261.93,0,0
15466.825,204.482,-7141.47,0,0
15727.15,201.11,-7024.29,0,0
15987.5,197.981,-6911.05,0,0
16247.8,195.068,-6801.93,0,0
16508.125,191.905,-6695.22,0,0
16768.45,188.681,-6592.01,0,0
17028.775,186.057,-6491.9,0,0
17289.1,183.098,-6394.78,0,0
17549.425,180.82,-6300.33,0,0
17809.75,178.382,-6208.32,0,0
18070.075,175.427,-6120.65,0,0
18330.4,173.372,-6033.7,0,0
18590.725,171.275,-5947.98,0,0
18851.05,171.964,-5864.97,0,0
19111.375,170.429,-5786.11,0,0
19371.7,172.923,-5709.3,0,0
19632.025,169.046,-5636.64,0,0
19892.35,165.87,-5566.47,0,0
20152.675,162.655,-5493.3,0,0
20413.0,162.24,-5423.36,0,0
20673.3,161.757,-5356.42,0,0
20933.65,159.8,-5292.93,0,0
21193.975,156.19,-5229.31,0,0
21454.3,154.089,-5165.06,0,0
21714.625,152.254,-5102.66,0,0
21974.9,151.576,-5042.97,0,0
22235.275,151.699,-4984.5,0,0
22495.6,150.274,-4928.2,0,0
22755.925,148.463,-4873.95,0,0
23016.25,146.439,-4819.31,0,0
23276.6,142.541,-4766.5,0,0
23536.9,141.389,-4714,0,0
23797.225,139.239,-4662.36,0,0
24057.55,136.97,-4611.76,0,0
24317.875,135.84,-4561.89,0,0
24578.2,133.445,-4513.9,0,0
24838.525,132.323,-4466.05,0,0
25098.85,131.153,-4419.58,0,0
25359.175,129.912,-4374.27,0,0
25619.5,128.836,-4329.22,0,0
25879.8,127.545,-4284.87,0,0
26140.1,126.974,-4243.09,0,0
26400.5,125.225,-4200.87,0,0
26660.8,124.607,-4159.35,0,0
26921.1,123.947,-4118.2,0,0
27181.4,123.853,-4079.03,0,0
27441.8,122.658,-4040.28,0,0
27702.1,122.456,-4002.59,0,0
27962.4,120.184,-3965.46,0,0
28222.7,120.744,-3927.37,0,0
28483.1,119.673,-3891.77,0,0
28743.4,119.672,-3855.8,0,0
29003.7,119.115,-3821.63,0,0
29264,119.493,-3787.08,0,0
29524.4,118.359,-3753.67,0,0
29784.7,118.413,-3720.33,0,0
30045,118.696,-3688.89,0,0
30305.3,118.44,-3657.33,0,0
30565.7,117.886,-3626.64,0,0
30826,117.195,-3596.16,0,0
31086.3,116.376,-3566.43,0,0
31346.6,116.144,-3536.61,0,0
31607,116.011,-3507.5,0,0
31867.3,115.696,-3478.38,0,0
32127.6,115.694,-3451.11,0,0
32387.9,114.645,-3423.16,0,0
32648.3,115.401,-3395.49,0,0
32908.6,116.679,-3368.41,0,0
33168.9,116.026,-3342.79,0,0
33429.2,117.589,-3317,0,0
33689.6,119.411,-3293.61,0,0
33949.9,118.301,-3270.85,0,0
34210.2,117.141,-3248.03,0,0
34470.5,115.504,-3224.75,0,0
34730.9,114.587,-3201.12,0,0
34991.2,114.174,-3179.17,0,0
35251.5,112.608,-3157.33,0,0
35511.8,110.446,-3135.12,0,0
35772.2,108.337,-3113.07,0,0
36032.5,106.868,-3091.25,0,0
36292.8,104.564,-3069.19,0,0
36553.1,103.004,-3047.48,0,0
36813.5,101.467,-3025.78,0,0
37073.8,100.416,-3004.41,0,0
37334.1,98.7361,-2983.69,0,0
37594.4,97.3008,-2962.55,0,0
37854.8,95.7926,-2942.05,0,0
38115.1,94.4611,-2921.6,0,0
38375.4,93.0987,-2901.19,0,0
38635.7,92.0985,-2881.15,0,0
38896.1,90.6412,-2861.49,0,0
39156.4,89.8596,-2841.87,0,0
39416.7,88.868,-2822.24,0,0
39677,87.9989,-2803.23,0,0
39937.4,86.9067,-2784.43,0,0
40197.7,86.6115,-2764.85,0,0
40458,86.1194,-2746.46,0,0
40718.3,85.9279,-2728.72,0,0
40978.7,85.2533,-2711.11,0,0
41239,84.9599,-2693.46,0,0
41499.3,84.338,-2675.95,0,0
41759.6,83.9425,-2658.85,0,0
42020,83.2836,-2642,0,0
42280.275,82.8631,-2625.18,0,0
42540.6,82.3837,-2608.14,0,0
42800.925,82.1953,-2591.8,0,0
43061.25,82.3798,-2575.81,0,0
43321.575,82.5408,-2559.98,0,0
43581.9,82.6514,-2544.83,0,0
43842.225,81.9732,-2530.1,0,0
44102.55,81.0833,-2515.04,0,0
44362.875,80.4367,-2500.06,0,0
44623.2,79.8121,-2485.06,0,0
44883.525,79.1905,-2470.17,0,0
45143.85,78.8357,-2455.73,0,0
45404.175,78.1364,-2441.24,0,0
45664.5,77.4296,-2426.95,0,0
45924.825,77.4137,-2412.75,0,0
46185.15,76.5986,-2398.56,0,0
46445.475,76.1741,-2384.6,0,0
46705.8,75.8905,-2370.77,0,0
46966.125,75.7881,-2357.17,0,0
47226.45,75.329,-2343.6,0,0
47486.775,74.991,-2330.16,0,0
47747.1,75.1241,-2316.97,0,0
48007.425,74.5222,-2304.42,0,0
48267.75,74.2669,-2291.6,0,0
48528.075,74.0946,-2279.13,0,0
48788.4,73.4715,-2266.7,0,0
49048.725,72.8773,-2254.16,0,0
49309.05,72.4863,-2241.81,0,0
49569.375,71.9606,-2229.49,0,0
49829.7,71.5334,-2217.4,0,0
50090.025,71.1481,-2205.01,0,0
50350.35,71.0883,-2193.32,0,0
50610.675,70.7416,-2181.4,0,0
50871.0,70.5644,-2169.55,0,0
51131.325,70.3254,-2157.86,0,0
51391.65,70.1745,-2146.43,0,0
51651.975,70.1938,-2135.27,0,0
51912.3,70.1606,-2124.18,0,0
52172.625,69.9812,-2113,0,0
52432.95,69.6898,-2102.16,0,0
52693.275,69.8023,-2091.25,0,0
52953.6,69.7519,-2080.71,0,0
53213.925,69.7714,-2070.25,0,0
53474.25,69.6602,-2059.84,0,0
53734.575,69.7341,-2050.05,0,0
53994.9,69.2194,-2040.42,0,0
54255.225,68.5923,-2030.51,0,0
54515.55,68.0543,-2020.37,0,0
54775.875,67.7014,-2010.58,0,0
55036.2,67.0015,-2000.94,0,0
55296.525,66.1943,-1991.01,0,0
55556.85,65.458,-1981.05,0,0
55817.175,64.9639,-1971.21,0,0
56077.5,64.2855,-1961.25,0,0
56337.825,63.8952,-1951.47,0,0
56598.15,63.5442,-1941.59,0,0
56858.475,63.3074,-1931.93,0,0
57118.8,63.1656,-1922.31,0,0
57379.125,62.9505,-1912.91,0,0
57639.45,62.7779,-1903.52,0,0
57899.775,62.496,-1894.25,0,0
58160.1,62.4728,-1885.01,0,0
58420.4,62.5197,-1875.96,0,0
58680.7,62.4009,-1866.96,0,0
58941.1,62.515,-1858.13,0,0
59201.4,62.5502,-1849.7,0,0
59461.7,62.3086,-1841.2,0,0
59722,61.9636,-1832.65,0,0
59982.4,61.6278,-1824.16,0,0
60242.7,61.2761,-1815.62,0,0
60503,61.0048,-1807.02,0,0
60763.3,60.8774,-1798.44,0,0
61023.7,60.7516,-1789.98,0,0
61284,60.7877,-1781.47,0,0
61544.3,60.9816,-1773.28,0,0
61804.6,60.9909,-1765.31,0,0
62065,60.7271,-1757.42,0,0
62325.3,60.6066,-1749.28,0,0
62585.6,60.6125,-1741.21,0,0
62845.9,60.7502,-1733.07,0,0
63106.3,61.0315,-1725.19,0,0
63366.6,61.392,-1717.58,0,0
63626.9,61.5878,-1709.97,0,0
63887.2,61.935,-1702.6,0,0
64147.6,62.3811,-1695.07,0,0
64407.9,62.7883,-1688.36,0,0
64668.2,62.62,-1681.65,0,0
64928.5,62.495,-1674.76,0,0
65188.9,62.3683,-1667.87,0,0
65449.2,62.0655,-1661.18,0,0
65709.5,61.6722,-1654.05,0,0
65969.8,61.5004,-1647.37,0,0
66230.2,61.0674,-1640.71,0,0
66490.5,60.472,-1633.94,0,0
66750.8,59.6646,-1626.8,0,0
67011.1,59.4382,-1619.69,0,0
67271.5,59.1295,-1612.76,0,0
67531.8,58.9768,-1605.65,0,0
67792.1,58.7483,-1598.92,0,0
68052.4,58.5674,-1592,0,0
68312.8,58.4254,-1585.24,0,0
68573.1,58.1292,-1578.48,0,0
68833.4,58.1617,-1571.65,0,0
69093.7,58.0099,-1565.01,0,0
69354.1,57.9451,-1558.26,0,0
69614.4,58.0234,-1551.81,0,0
69874.7,58.0602,-1545.22,0,0
70135,58.1569,-1538.9,0,0
70395.4,58.0909,-1532.52,0,0
70655.7,58.1256,-1526.21,0,0
70916,58.1766,-1519.9,0,0
71176.3,58.2913,-1513.73,0,0
71436.7,58.2856,-1507.53,0,0
71697,58.5253,-1501.41,0,0
71957.3,58.5948,-1495.68,0,0
72217.6,58.5712,-1489.92,0,0
72478,58.2985,-1484.03,0,0
72738.3,58.1812,-1478.2,0,0
72998.6,58.0992,-1472.32,0,0
73258.9,57.7419,-1466.46,0,0
73519.3,57.7182,-1460.42,0,0
73779.6,57.7891,-1454.72,0,0
74039.9,57.5017,-1449,0,0
74300.225,57.4528,-1443.36,0,0
74560.55,57.2516,-1437.64,0,0
74820.875,57.0638,-1431.88,0,0
75081.2,56.979,-1426.06,0,0
75341.525,56.9773,-1420.35,0,0
75601.85,56.9428,-1414.64,0,0
75862.175,56.8764,-1409.02,0,0
76122.5,56.9279,-1403.42,0,0
76382.825,56.9803,-1397.88,0,0
76643.15,57.1083,-1392.45,0,0
76903.475,57.0398,-1387.17,0,0
77163.8,56.975,-1381.82,0,0
77424.125,56.885,-1376.46,0,0
77684.45,56.8678,-1371.11,0,0
77944.775,56.8132,-1365.81,0,0
78205.1,56.7446,-1360.52,0,0
78465.425,56.6457,-1355.27,0,0
78725.75,56.5516,-1349.92,0,0
78986.075,56.5459,-1344.56,0,0
79246.4,56.4844,-1339.4,0,0
79506.725,56.4725,-1334.07,0,0
79767.05,56.4875,-1328.8,0,0
80027.375,56.6105,-1323.58,0,0
80287.7,56.6674,-1318.41,0,0
80548.025,56.6833,-1313.3,0,0
80808.35,56.713,-1308.24,0,0
81068.675,56.7348,-1302.95,0,0
81329.0,56.8829,-1297.79,0,0
81589.325,57.1016,-1292.7,0,0
81849.65,57.3925,-1287.57,0,0
82109.975,57.7272,-1282.42,0,0
82370.3,58.1692,-1277.61,0,0
82630.625,58.4108,-1272.84,0,0
82890.95,58.7038,-1268.05,0,0
83151.275,58.9273,-1263.35,0,0
83411.6,59.1328,-1258.45,0,0
83671.925,59.6017,-1253.65,0,0
83932.25,60.0739,-1249.03,0,0
84192.575,60.3872,-1244.57,0,0
84452.9,60.7651,-1240.03,0,0
84713.225,61.2389,-1235.58,0,0
84973.55,61.6677,-1231.44,0,0
85233.875,61.7435,-1227.51,0,0
85494.2,61.4172,-1223.36,0,0
85754.525,61.1515,-1218.94,0,0
86014.85,60.9757,-1214.22,0,0
86275.175,61.0068,-1209.64,0,0
86535.5,61.0095,-1204.96,0,0
86795.825,61.1391,-1200.25,0,0
87056.15,61.487,-1195.55,0,0
87316.475,61.8614,-1191.09,0,0
87576.8,61.9989,-1186.64,0,0
87837.125,62.3474,-1182.16,0,0
88097.45,62.7214,-1177.67,0,0
88357.775,63.0812,-1173.19,0,0
88618.1,63.4763,-1168.86,0,0
88878.425,63.8589,-1164.51,0,0
89138.75,64.2583,-1160.12,0,0
89399.075,64.8297,-1155.82,0,0
89659.4,65.2071,-1151.39,0,0
89919.725,65.8231,-1147.03,0,0
90180,66.5186,-1142.92,0,0
90440.4,67.092,-1138.68,0,0
90700.7,67.788,-1134.41,0,0
90961,68.7399,-1130.37,0,0
91221.3,69.7283,-1126.17,0,0
91481.7,70.9296,-1122.42,0,0
91742,72.067,-1118.96,0,0
92002.3,72.9177,-1115.76,0,0
92262.6,73.7195,-1112.41,0,0
92523,74.4444,-1109.31,0,0
92783.3,74.9493,-1106.35,0,0
93043.6,75.4565,-1103.35,0,0
93303.9,75.4952,-1100.7,0,0
93564.3,75.2479,-1097.69,0,0
93824.6,74.842,-1094.52,0,0
94084.9,74.294,-1090.7,0,0
94345.2,74.3071,-1086.64,0,0
94605.6,74.5479,-1082.71,0,0
94865.9,74.9841,-1078.86,0,0
95126.2,75.489,-1075.18,0,0
95386.5,76.1966,-1071.65,0,0
95646.9,76.8364,-1068.51,0,0
95907.2,77.0426,-1065.26,0,0
96167.5,77.2883,-1062.08,0,0
96427.8,77.3964,-1058.46,0,0
96688.2,77.953,-1054.98,0,0
96948.5,78.424,-1051.66,0,0
97208.8,78.962,-1048.35,0,0
97469.1,79.6076,-1045.02,0,0
97729.5,80.2789,-1042.03,0,0
97989.8,80.8131,-1039.21,0,0
98250.1,81.1599,-1036.39,0,0
98510.4,81.6183,-1033.42,0,0
98770.8,82.1701,-1030.84,0,0
99031.1,82.288,-1028.53,0,0
99291.4,82.0447,-1025.95,0,0
99551.7,81.6618,-1023.06,0,0
99812.1,81.5536,-1019.87,0,0
100072,81.671,-1016.77,0,0
100333,81.8228,-1013.85,0,0
100593,81.9503,-1011.02,0,0
100853,81.9835,-1008.29,0,0
101114,81.9092,-1005.57,0,0
101374,81.7704,-1002.73,0,0
101634,81.6982,-999.992,0,0
101895,81.4656,-997.335,0,0
102155,81.0645,-994.541,0,0
102415,80.6585,-991.679,0,0
102676,80.1729,-988.681,0,0
102936,79.7704,-985.613,0,0
103196,79.3019,-982.453,0,0
103457,78.9106,-979.116,0,0
103717,78.6734,-975.774,0,0
103977,78.4861,-972.366,0,0
104238,78.5473,-968.977,0,0
104498,78.606,-965.789,0,0
104758,78.6065,-962.696,0,0
105019,78.4376,-959.516,0,0
105279,78.2993,-956.15,0,0
105539,78.4784,-952.748,0,0
105800,78.7196,-949.434,0,0
106060,78.9623,-946.213,0,0
106320.175,79.3321,-943.002,0,0
106580.5,79.7901,-939.921,0,0
106840.825,80.2764,-936.998,0,0
107101.15,80.6748,-934.28,0,0
107361.475,80.9559,-931.678,0,0
107621.8,80.9602,-929.062,0,0
107882.125,80.905,-926.318,0,0
108142.45,80.8175,-923.359,0,0
108402.775,80.9457,-920.367,0,0
108663.1,81.1128,-917.495,0,0
108923.425,81.2233,-914.628,0,0
109183.75,81.3153,-911.778,0,0
109444.075,81.5629,-908.868,0,0
109704.4,81.7329,-906.038,0,0
109964.725,81.9728,-903.211,0,0
110225.05,82.2198,-900.532,0,0
110485.375,82.4021,-897.83,0,0
110745.7,82.5278,-895.237,0,0
111006.025,82.5943,-892.669,0,0
111266.35,82.4406,-889.815,0,0
111526.675,82.575,-887.185,0,0
111787.0,82.7638,-884.302,0,0
112047.325,82.877,-881.642,0,0
112307.65,83.012,-878.995,0,0
112567.975,83.1303,-876.296,0,0
112828.3,83.2573,-873.665,0,0
113088.625,83.3905,-871.018,0,0
113348.95,83.4144,-868.403,0,0
113609.275,83.572,-865.802,0,0
113869.6,83.6147,-863.252,0,0
114129.925,83.5982,-860.693,0,0
114390.25,83.5693,-858.064,0,0
114650.575,83.5903,-855.34,0,0
114910.9,83.6263,-852.644,0,0
115171.225,83.7482,-850.024,0,0
115431.55,83.9211,-847.474,0,0
115691.875,83.9363,-844.935,0,0
115952.2,83.9835,-842.435,0,0
116212.525,83.9163,-839.913,0,0
116472.85,83.7993,-837.341,0,0
116733.175,83.5943,-834.685,0,0
116993.5,83.4574,-831.854,0,0
117253.825,83.5404,-828.947,0,0
117514.15,83.7529,-826.117,0,0
117774.475,84.0094,-823.444,0,0
118034.8,84.2473,-820.865,0,0
118295.125,84.4342,-818.321,0,0
118555.45,84.5762,-815.739,0,0
118815.775,84.7828,-813.175,0,0
119076.1,85.0211,-810.667,0,0
119336.425,85.3112,-808.328,0,0
119596.75,85.2727,-806.073,0,0
119857.075,85.2326,-803.661,0,0
120117.4,85.1386,-801.229,0,0
120377.725,85.0255,-798.707,0,0
120638.05,84.9651,-796.1,0,0
120898.375,84.9472,-793.427,0,0
121158.7,85.0944,-790.806,0,0
121419.025,85.1699,-788.35,0,0
121679.35,85.1728,-785.853,0,0
121939.675,85.1799,-783.326,0,0
122200.0,85.2019,-780.726,0,0
122460,85.3444,-778.189,0,0
122721,85.4172,-775.726,0,0
122981,85.4639,-773.301,0,0
123241,85.449,-770.861,0,0
123502,85.404,-768.404,0,0
123762,85.3453,-765.898,0,0
124022,85.2065,-763.344,0,0
124283,85.1206,-760.702,0,0
124543,85.1686,-758.024,0,0
124803,85.2289,-755.391,0,0
125064,85.3541,-752.829,0,0
125324,85.4033,-750.322,0,0
125584,85.4203,-747.811,0,0
125845,85.4132,-745.256,0,0
126105,85.3772,-742.668,0,0
126365,85.3498,-740.002,0,0
126626,85.4773,-737.342,0,0
126886,85.5465,-734.685,0,0
127146,85.6762,-732.08,0,0
127406,85.7166,-729.659,0,0
127667,85.7222,-727,0,0
127927,85.7955,-724.285,0,0
128187,85.877,-721.644,0,0
128448,86.0696,-718.983,0,0
128708,86.2032,-716.421,0,0
128968,86.293,-713.763,0,0
129229,86.4481,-711.132,0,0
129489,86.6317,-708.533,0,0
129749,86.7346,-705.955,0,0
130010,86.8617,-703.294,0,0
130270,86.9939,-700.59,0,0
130530,87.2424,-697.875,0,0
130791,87.5849,-695.265,0,0
131051,87.8198,-692.772,0,0
131311,88.0639,-690.258,0,0
131572,88.2961,-687.841,0,0
131832,88.3267,-685.404,0,0
132092,88.336,-682.837,0,0
132353,88.4061,-680.204,0,0
132613,88.5189,-677.573,0,0
132873,88.6323,-674.989,0,0
133134,88.6648,-672.39,0,0
133394,88.614,-669.76,0,0
133654,88.5578,-667.007,0,0
133915,88.5063,-664.086,0,0
134175,88.5738,-661.112,0,0
134435,88.7826,-658.07,0,0
134696,89.0438,-655.035,0,0
134956,89.4405,-651.952,0,0
135216,90.0587,-648.887,0,0
135477,90.7176,-646.031,0,0
135737,91.3627,-643.253,0,0
135997,92.1959,-640.529,0,0
136258,92.9955,-638.153,0,0
136518,93.5041,-635.81,0,0
136778,93.9728,-633.505,0,0
137039,94.2823,-631.295,0,0
137299,94.385,-629.009,0,0
137559,94.4121,-626.622,0,0
137819,94.2949,-624.097,0,0
138080,94.1286,-621.397,0,0
138340.125,93.9289,-618.429,0,0
138600.45,93.9864,-615.286,0,0
138860.775,94.1952,-612.176,0,0
139121.1,94.5024,-609.013,0,0
139381.425,94.9391,-605.978,0,0
139641.75,95.2636,-602.998,0,0
139902.075,95.588,-599.863,0,0
140162.4,96.0807,-596.776,0,0
140422.725,96.5425,-593.702,0,0
140683.05,96.9881,-590.63,0,0
140943.375,97.4833,-587.441,0,0
141203.7,98.0968,-584.266,0,0
141464.025,98.7571,-581.168,0,0
141724.35,99.3597,-578.116,0,0
141984.675,99.8966,-575.042,0,0
142245.0,100.422,-571.865,0,0
142505.325,101.041,-568.581,0,0
142765.65,101.721,-565.323,0,0
143025.975,102.391,-562.069,0,0
143286.3,103.006,-558.756,0,0
143546.625,103.747,-555.253,0,0
143806.95,104.585,-551.798,0,0
144067.275,105.454,-548.293,0,0
144327.6,106.376,-544.719,0,0
144587.925,107.295,-541.074,0,0
144848.25,108.442,-537.226,0,0
145108.575,109.835,-533.392,0,0
145368.9,111.385,-529.645,0,0
145629.225,113.115,-525.949,0,0
145889.55,114.968,-522.438,0,0
146149.875,116.832,-519.054,0,0
146410.2,118.662,-515.775,0,0
146670.525,120.511,-512.396,0,0
146930.85,122.499,-509.055,0,0
147191.175,124.668,-505.771,0,0
147451.5,126.996,-502.911,0,0
147711.825,128.842,-500.405,0,0
147972.15,130.187,-497.607,0,0
148232.475,131.456,-494.291,0,0
148492.8,132.933,-490.585,0,0
148753.125,134.77,-486.602,0,0
149013.45,136.992,-482.468,0,0
149273.775,139.646,-478.38,0,0
149534.1,142.65,-474.404,0,0
149794.425,145.995,-470.543,0,0
150054.75,149.565,-466.947,0,0
150315.075,153.37,-463.535,0,0
150575.4,157.497,-460.357,0,0
150835.725,161.74,-457.308,0,0
151096.05,166.557,-454.373,0,0
151356.375,172.009,-452.305,0,0
151616.7,177.351,-451.317,0,0
151877.025,182.068,-451.021,0,0
152137.35,186.35,-450.936,0,0
152397.675,190.427,-451.391,0,0
152658.0,193.661,-451.801,0,0
152918.325,196.474,-452.052,0,0
153178.65,199.415,-452.448,0,0
153438.975,201.9,-453.05,0,0
153699.3,203.866,-453.754,0,0
153959.625,205.544,-454.024,0,0
154219.95,207.075,-454.264,0,0
154480,208.004,-454.426,0,0
154741,208.48,-453.708,0,0
155001,209.647,-451.977,0,0
155261,211.737,-450.438,0,0
155522,214.139,-448.981,0,0
155782,217.215,-447.829,0,0
156042,220.769,-447.404,0,0
156303,224.815,-448.489,0,0
156563,227.334,-451.302,0,0
156823,227.874,-454.287,0,0
157084,226.746,-456.455,0,0
157344,224.883,-457.107,0,0
157604,222.849,-456.332,0,0
157864,221.488,-454.486,0,0
158125,220.814,-452.118,0,0
158385,220.708,-449.435,0,0
158645,221.256,-446.313,0,0
158906,222.764,-443.416,0,0
159166,224.757,-440.91,0,0
159426,227.399,-439.019,0,0
159687,230.244,-438.283,0,0
159947,232.151,-438.52,0,0
160207,233.089,-438.662,0,0
160468,233.584,-438.706,0,0
160728,233.08,-438.339,0,0
160988,232.204,-436.913,0,0
161249,231.548,-434.453,0,0
161509,231.607,-431.316,0,0
161769,232.568,-427.885,0,0
162030,234.267,-424.591,0,0
162290,236.544,-421.76,0,0
162550,239.135,-419.286,0,0
162811,241.848,-417.225,0,0
163071,244.587,-415.456,0,0
163331,247.513,-413.947,0,0
163592,250.624,-412.929,0,0
163852,253.565,-412.52,0,0
164112,256.072,-412.403,0,0
164373,258.077,-411.967,0,0
164633,260.714,-411.641,0,0
164893,263.262,-411.954,0,0
165154,265.542,-412.601,0,0
165414,267.767,-413.876,0,0
165674,269.172,-416.06,0,0
165935,269.07,-418.375,0,0
166195,267.867,-419.907,0,0
166455,266.34,-420.395,0,0
166716,264.714,-420.453,0,0
166976,262.81,-419.991,0,0
167236,260.815,-418.855,0,0
167497,259.201,-416.978,0,0
167757,257.953,-414.929,0,0
168017,256.68,-412.868,0,0
168277,255.355,-410.627,0,0
168538,254.077,-407.99,0,0
168798,252.904,-404.928,0,0
169058,251.844,-401.612,0,0
169319,251.195,-397.887,0,0
169579,250.985,-394.044,0,0
169839,250.974,-390.323,0,0
170100,250.987,-386.62,0,0
170360.075,251.034,-382.611,0,0
170620.4,251.446,-378.523,0,0
170880.725,251.954,-374.636,0,0
171141.05,252.145,-370.739,0,0
171401.375,252.123,-366.331,0,0
171661.7,252.177,-361.04,0,0
171922.025,253.074,-354.99,0,0
172182.35,254.968,-348.867,0,0
172442.675,257.623,-342.952,0,0
172703.0,260.983,-337.349,0,0
172963.325,264.638,-332.401,0,0
173223.65,268.544,-327.669,0,0
173483.975,272.738,-323.469,0,0
173744.3,276.971,-319.861,0,0
174004.625,281.03,-316.513,0,0
174264.95,285.089,-313.51,0,0
174525.275,288.665,-311.133,0,0
174785.6,291.533,-308.54,0,0
175045.925,294.103,-305.587,0,0
175306.25,296.594,-302.373,0,0
175566.575,298.766,-298.619,0,0
175826.9,301.078,-294.16,0,0
176087.225,303.924,-288.984,0,0
176347.55,307.606,-283.579,0,0
176607.875,312.05,-278.223,0,0
176868.2,317.152,-273.087,0,0
177128.525,322.801,-268.57,0,0
177388.85,328.232,-264.558,0,0
177649.175,333.453,-260.512,0,0
177909.5,338.881,-255.839,0,0
178169.825,345.236,-251.109,0,0
178430.15,352.391,-246.748,0,0
178690.475,360.065,-243.163,0,0
178950.8,367.653,-239.906,0,0
179211.125,375.624,-236.957,0,0
179471.45,384.161,-235.179,0,0
179731.775,392.437,-233.774,0,0
179992.1,400.455,-232.75,0,0
180252.425,408.387,-232.172,0,0
180512.75,416.245,-232.16,0,0
180773.075,423.595,-232.489,0,0
181033.4,430.637,-232.792,0,0
181293.725,437.329,-233.524,0,0
181554.05,443.496,-233.974,0,0
181814.375,449.893,-233.661,0,0
182074.7,457.139,-233.806,0,0
182335.025,464.5,-234.729,0,0
182595.35,471.407,-236.312,0,0
182855.675,478.054,-238.063,0,0
183116.0,484.239,-240.532,0,0
183376.325,489.318,-243.019,0,0
183636.65,493.786,-244.819,0,0
183896.975,497.919,-246.374,0,0
184157.3,501.697,-247.243,0,0
184417.625,505.97,-247.346,0,0
184677.95,510.478,-247.766,0,0
184938.275,514.317,-247.692,0,0
185198.6,518.535,-246.572,0,0
185458.925,523.694,-244.956,0,0
185719.25,529.619,-243.344,0,0
185979.575,535.884,-241.588,0,0
186239.9,543.473,-239.6,0,0
186500,552.112,-238.862,0,0
186761,560.582,-239.138,0,0
187021,568.836,-239.845,0,0
187281,576.933,-240.776,0,0
187542,584.917,-241.729,0,0
187802,593.083,-242.612,0,0
188062,601.809,-243.442,0,0
188322,611.434,-244.774,0,0
188583,621.57,-247.328,0,0
188843,631.399,-251.287,0,0
189103,640.148,-256.167,0,0
189364,647.97,-261.201,0,0
189624,655.101,-265.826,0,0
189884,661.9,-270.717,0,0
190145,668.044,-275.091,0,0
190405,674.519,-278.095,0,0
190665,680.507,-281.157,0,0
190926,687.568,-282.954,0,0
191186,696.33,-285.114,0,0
191446,705.905,-288.475,0,0
191707,715.559,-293.077,0,0
191967,724.723,-298.847,0,0
192227,732.752,-304.869,0,0
192488,740.15,-310.763,0,0
192748,746.535,-316.211,0,0
193008,752.786,-319.642,0,0
193269,760.941,-321.636,0,0
193529,771.257,-323.662,0,0
193789,783.652,-326.335,0,0
194050,798.125,-330.961,0,0
194310,813.25,-338.104,0,0
194570,828.646,-347.241,0,0
194831,843.782,-359.228,0,0
195091,857.026,-373.121,0,0
195351,869.028,-387.352,0,0
195612,880.55,-402.06,0,0
195872,892.239,-417.602,0,0
196132,903.873,-434.792,0,0
196393,914.581,-454.556,0,0
196653,923.245,-476.07,0,0
196913,929.569,-498.402,0,0
197174,934.029,-521.249,0,0
197434,936.483,-544.668,0,0
197694,936.527,-568.257,0,0
197955,934.248,-591.168,0,0
198215,930.171,-613.442,0,0
198475,924.582,-634.541,0,0
198735,918.088,-654.439,0,0
198996,910.842,-673.374,0,0
199256,903.016,-691.369,0,0
199516,895.404,-709.073,0,0
199777,886.976,-727.553,0,0
200037,876.366,-746.094,0,0
200297,863.468,-763.813,0,0
200558,848.792,-779.226,0,0
200818,833.525,-792.4,0,0
201078,818.426,-803.427,0,0
201339,804.446,-813.397,0,0
201599,790.894,-823.234,0,0
201859,776.653,-833.076,0,0
202120,761.869,-842.388,0,0
202380.025,745.649,-851.201,0,0
202640.35,728.019,-857.798,0,0
202900.675,710.381,-861.515,0,0
203161.0,693.631,-863.302,0,0
203421.325,678.107,-863.79,0,0
203681.65,663.894,-863.244,0,0
203941.975,650.607,-862.055,0,0
204202.3,638.402,-860.167,0,0
204462.625,627.242,-857.894,0,0
204722.95,617.313,-855.858,0,0
204983.275,607.638,-854.238,0,0
205243.6,598.054,-852.656,0,0
205503.925,588.537,-850.826,0,0
205764.25,579.259,-848.844,0,0
206024.575,569.653,-846.105,0,0
206284.9,560.295,-842.344,0,0
206545.225,551.74,-837.4,0,0
206805.55,544.657,-831.985,0,0
207065.875,538.87,-826.529,0,0
207326.2,533.969,-821.362,0,0
207586.525,530.012,-816.359,0,0
207846.85,527.022,-811.842,0,0
208107.175,524.622,-808.064,0,0
208367.5,522.42,-805.138,0,0
208627.825,520.113,-802.58,0,0
208888.15,517.773,-800.329,0,0
209148.475,515.411,-798.182,0,0
209408.8,513.191,-795.934,0,0
209669.125,511.18,-793.704,0,0
209929.45,509.521,-791.523,0,0
210189.775,508.237,-789.539,0,0
210450.1,507.402,-787.934,0,0
210710.425,506.681,-786.73,0,0
210970.75,506.026,-785.747,0,0
211231.075,505.539,-785.053,0,0
211491.4,505.121,-784.607,0,0
211751.725,504.996,-784.77,0,0
212012.05,505.033,-785.562,0,0
212272.375,504.563,-786.837,0,0
212532.7,503.853,-788.369,0,0
212793.025,502.905,-790.272,0,0
213053.35,501.493,-792.607,0,0
213313.675,499.524,-795.067,0,0
213574.0,496.982,-797.436,0,0
213834.325,494.092,-799.599,0,0
214094.65,490.703,-801.516,0,0
214354.975,487.114,-803.065,0,0
214615.3,483.313,-804.272,0,0
214875.625,479.941,-805.095,0,0
215135.95,476.173,-806.058,0,0
215396.275,472.432,-806.631,0,0
215656.6,468.445,-806.993,0,0
215916.925,464.452,-807.004,0,0
216177.25,460.627,-806.654,0,0
216437.575,456.936,-806.017,0,0
216697.9,453.545,-804.999,0,0
216958.225,450.556,-803.669,0,0
217218.55,448.077,-802.306,0,0
217478.875,445.993,-801.179,0,0
217739.2,444.165,-800.257,0,0
217999.525,442.378,-799.556,0,0
218259.85,440.569,-798.955,0,0
218520,438.819,-798.4,0,0
218780,436.963,-797.802,0,0
219041,435.25,-796.919,0,0
219301,433.985,-795.959,0,0
219561,433.251,-795.211,0,0
219822,432.676,-794.844,0,0
220082,432.242,-794.938,0,0
220342,431.695,-795.331,0,0
220603,431.073,-795.97,0,0
220863,430.337,-796.803,0,0
221123,429.423,-797.861,0,0
221384,428.226,-798.747,0,0
221644,427.236,-799.642,0,0
221904,426.41,-800.633,0,0
222165,425.692,-801.953,0,0
222425,424.8,-803.597,0,0
222685,423.824,-805.647,0,0
222946,422.338,-808.075,0,0
223206,420.211,-810.163,0,0
223466,418.086,-811.863,0,0
223727,416.034,-813.653,0,0
223987,414.007,-815.521,0,0
224247,411.808,-817.346,0,0
224508,409.687,-819.091,0,0
224768,407.671,-821.129,0,0
225028,405.573,-823.224,0,0
225289,403.406,-825.567,0,0
225549,401.091,-828.696,0,0
225809,397.902,-831.875,0,0
226070,393.974,-834.661,0,0
226330,389.752,-837.161,0,0
226590,385.326,-839.227,0,0
226851,380.641,-841.027,0,0
227111,375.93,-842.593,0,0
227371,371.228,-843.859,0,0
227632,366.324,-844.92,0,0
227892,361.324,-845.633,0,0
228152,356.326,-845.957,0,0
228413,351.531,-845.958,0,0
228673,346.991,-845.746,0,0
228933,342.623,-845.364,0,0
229193,338.588,-845.03,0,0
229454,334.432,-844.783,0,0
229714,330.502,-844.549,0,0
229974,326.625,-844.407,0,0
230235,322.729,-844.479,0,0
230495,318.634,-844.558,0,0
230755,314.117,-844.719,0,0
231016,309.344,-844.481,0,0
231276,304.581,-844.029,0,0
231536,299.825,-843.357,0,0
231797,295.04,-842.57,0,0
232057,290.171,-841.564,0,0
232317,285.27,-840.311,0,0
232578,280.357,-838.754,0,0
232838,275.747,-836.937,0,0
233098,271.239,-834.988,0,0
233359,266.806,-832.979,0,0
233619,262.416,-830.899,0,0
233879,257.934,-828.499,0,0
234140,253.676,-825.856,0,0
234400,249.595,-823.056,0,0
234660.3,245.624,-820.134,0,0
234920.625,241.929,-817.154,0,0
235180.95,238.223,-813.837,0,0
235441.275,234.903,-810.489,0,0
235701.6,231.772,-807.079,0,0
235961.925,228.881,-803.622,0,0
236222.25,226.114,-800.081,0,0
236482.575,223.669,-796.459,0,0
236742.9,221.493,-792.85,0,0
237003.225,219.561,-789.325,0,0
237263.55,217.783,-785.877,0,0
237523.875,216.169,-782.549,0,0
237784.2,214.767,-779.172,0,0
238044.525,213.586,-775.927,0,0
238304.85,212.505,-772.804,0,0
238565.175,211.624,-769.718,0,0
238825.5,210.877,-766.693,0,0
239085.825,210.527,-763.897,0,0
239346.15,210.31,-761.394,0,0
239606.475,210.324,-759.195,0,0
239866.8,210.186,-757.398,0,0
240127.125,210.089,-755.957,0,0
240387.45,209.728,-754.847,0,0
240647.775,209.182,-753.875,0,0
240908.1,208.274,-753.133,0,0
241168.425,207.188,-752.345,0,0
241428.75,205.779,-751.648,0,0
241689.075,204.231,-750.799,0,0
241949.4,202.417,-749.977,0,0
242209.725,200.385,-748.989,0,0
242470.05,198.241,-747.773,0,0
242730.375,195.991,-746.356,0,0
242990.7,193.638,-744.681,0,0
243251.025,191.465,-742.746,0,0
243511.35,189.34,-740.71,0,0
243771.675,187.314,-738.541,0,0
244032.0,185.368,-736.276,0,0
244292.325,183.579,-733.939,0,0
244552.65,181.849,-731.503,0,0
244812.975,180.287,-729.045,0,0
245073.3,178.84,-726.644,0,0
245333.625,177.352,-724.252,0,0
245593.95,175.96,-721.678,0,0
245854.275,174.669,-719.213,0,0
246114.6,173.455,-716.582,0,0
246374.925,172.349,-713.952,0,0
246635.25,171.43,-711.296,0,0
246895.575,170.67,-708.787,0,0
247155.9,170.015,-706.409,0,0
247416.225,169.332,-704.141,0,0
247676.55,168.53,-701.965,0,0
247936.875,167.767,-699.778,0,0
248197.2,166.869,-697.591,0,0
248457.525,165.951,-695.39,0,0
248717.85,164.936,-693.076,0,0
248978.175,163.921,-690.667,0,0
249238.5,162.937,-688.065,0,0
249498.825,162.08,-685.3,0,0
249759.15,161.311,-682.519,0,0
250019.475,160.711,-679.605,0,0
250279.8,160.196,-676.664,0,0
250540,159.91,-673.643,0,0
250800,159.728,-670.518,0,0
251061,159.816,-667.306,0,0
251321,160.172,-664.117,0,0
251581,160.818,-661.065,0,0
251842,161.872,-658.146,0,0
252102,163.045,-655.433,0,0
252362,164.387,-653.015,0,0
252623,165.884,-650.928,0,0
252883,167.364,-649.203,0,0
253143,168.762,-647.795,0,0
253404,170.01,-646.636,0,0
253664,171.008,-645.681,0,0
253924,171.782,-644.827,0,0
254185,172.305,-643.989,0,0
254445,172.633,-643.068,0,0
254705,172.846,-642.11,0,0
254966,173.01,-640.929,0,0
255226,173.155,-639.758,0,0
255486,173.226,-638.439,0,0
255747,173.402,-637.058,0,0
256007,173.629,-635.528,0,0
256267,173.959,-633.978,0,0
256528,174.391,-632.51,0,0
256788,174.836,-631.037,0,0
257048,175.28,-629.584,0,0
257309,175.768,-628.064,0,0
257569,176.319,-626.574,0,0
257829,176.96,-625.09,0,0
258090,177.624,-623.581,0,0
258350,178.419,-622.093,0,0
258610,179.295,-620.672,0,0
258871,180.212,-619.327,0,0
259131,181.207,-618.027,0,0
259391,182.207,-616.77,0,0
259651,183.304,-615.58,0,0
259912,184.493,-614.42,0,0
260172,185.737,-613.341,0,0
260432,186.965,-612.466,0,0
260693,188.122,-611.685,0,0
260953,189.359,-610.872,0,0
261213,190.598,-610.131,0,0
261474,191.893,-609.445,0,0
261734,193.306,-608.888,0,0
261994,194.832,-608.454,0,0
262255,196.294,-608.318,0,0
262515,197.617,-608.438,0,0
262775,198.667,-608.635,0,0
263036,199.52,-608.816,0,0
263296,200.307,-608.965,0,0
263556,200.981,-609.148,0,0
263817,201.456,-609.328,0,0
264077,201.707,-609.391,0,0
264337,201.899,-609.167,0,0
264598,202.09,-608.739,0,0
264858,202.426,-608.061,0,0
265118,202.907,-607.327,0,0
265379,203.555,-606.418,0,0
265639,204.441,-605.49,0,0
265899,205.5,-604.584,0,0
266160,206.83,-603.601,0,0
266420,208.243,-602.769,0,0
266680.25,210.047,-601.915,0,0
266940.575,212.024,-601.242,0,0
267200.9,214.233,-600.751,0,0
267461.225,216.671,-600.503,0,0
267721.55,219.271,-600.516,0,0
267981.875,222.028,-600.845,0,0
268242.2,224.944,-601.512,0,0
268502.525,227.945,-602.575,0,0
268762.85,230.967,-604.124,0,0
269023.175,233.866,-606.156,0,0
269283.5,236.462,-608.536,0,0
269543.825,238.822,-611.28,0,0
269804.15,240.99,-614.265,0,0
270064.475,242.904,-617.449,0,0
270324.8,244.507,-620.945,0,0
270585.125,245.934,-624.681,0,0
270845.45,246.879,-628.671,0,0
271105.775,247.548,-632.792,0,0
271366.1,247.859,-637.072,0,0
271626.425,247.732,-641.545,0,0
271886.75,247.194,-645.965,0,0
272147.075,246.292,-650.477,0,0
272407.4,244.951,-654.899,0,0
272667.725,243.141,-659.332,0,0
272928.05,240.943,-663.741,0,0
273188.375,238.271,-667.986,0,0
273448.7,235.142,-672.14,0,0
273709.025,231.505,-676.015,0,0
273969.35,227.394,-679.484,0,0
274229.675,222.88,-682.497,0,0
274490.0,218.164,-684.971,0,0
274750.325,213.206,-686.909,0,0
275010.65,208.268,-688.364,0,0
275270.975,203.216,-689.275,0,0
275531.3,198.258,-689.66,0,0
275791.625,193.519,-689.57,0,0
276051.95,189.056,-689.174,0,0
276312.275,184.846,-688.444,0,0
276572.6,180.904,-687.591,0,0
276832.925,177.157,-686.61,0,0
277093.25,173.578,-685.547,0,0
277353.575,170.1,-684.355,0,0
277613.9,166.725,-683.022,0,0
277874.225,163.546,-681.605,0,0
278134.55,160.515,-680.076,0,0
278394.875,157.572,-678.512,0,0
278655.2,154.76,-676.897,0,0
278915.525,151.939,-675.199,0,0
279175.85,149.154,-673.321,0,0
279436.175,146.521,-671.223,0,0
279696.5,144.054,-668.985,0,0
279956.825,141.819,-666.527,0,0
280217.15,139.903,-664.059,0,0
280477.475,138.292,-661.503,0,0
280737.8,136.932,-659.03,0,0
280998.125,135.808,-656.634,0,0
281258.45,134.867,-654.374,0,0
281518.775,134.064,-652.234,0,0
281779.1,133.397,-650.186,0,0
282039.425,132.805,-648.273,0,0
282299.75,132.347,-646.41,0,0
282560,131.993,-644.705,0,0
282820,131.696,-643.193,0,0
283081,131.383,-641.852,0,0
283341,130.961,-640.604,0,0
283601,130.476,-639.406,0,0
283862,129.914,-638.181,0,0
284122,129.372,-636.926,0,0
284382,128.809,-635.587,0,0
284643,128.306,-634.212,0,0
284903,127.868,-632.799,0,0
285163,127.611,-631.285,0,0
285424,127.46,-629.752,0,0
285684,127.575,-628.228,0,0
285944,127.942,-626.877,0,0
286205,128.436,-625.7,0,0
286465,129.086,-624.744,0,0
286725,129.875,-623.983,0,0
286986,130.765,-623.526,0,0
287246,131.68,-623.43,0,0
287506,132.519,-623.728,0,0
287767,133.216,-624.436,0,0
288027,133.574,-625.475,0,0
288287,133.507,-626.761,0,0
288548,132.974,-628.134,0,0
288808,132.019,-629.403,0,0
289068,130.746,-630.507,0,0
289329,129.203,-631.406,0,0
289589,127.48,-632.124,0,0
289849,125.6,-632.671,0,0
290109,123.566,-632.993,0,0
290370,121.501,-633.019,0,0
290630,119.459,-632.824,0,0
290890,117.481,-632.468,0,0
291151,115.587,-632.016,0,0
291411,113.749,-631.502,0,0
291671,111.937,-630.938,0,0
291932,110.116,-630.349,0,0
292192,108.249,-629.669,0,0
292452,106.396,-628.916,0,0
292713,104.526,-628.051,0,0
292973,102.691,-627.082,0,0
293233,100.896,-626.035,0,0
293494,99.1257,-624.893,0,0
293754,97.4175,-623.686,0,0
294014,95.752,-622.411,0,0
294275,94.1237,-621.054,0,0
294535,92.5214,-619.636,0,0
294795,91.0783,-618.163,0,0
295056,89.6307,-616.642,0,0
295316,88.265,-615.056,0,0
295576,86.9678,-613.389,0,0
295837,85.7921,-611.71,0,0
296097,84.6957,-610.022,0,0
296357,83.7007,-608.354,0,0
296618,82.7892,-606.697,0,0
296878,81.9322,-605.094,0,0
297138,81.0835,-603.533,0,0
297399,80.2569,-601.964,0,0
297659,79.4392,-600.412,0,0
297919,78.6483,-598.845,0,0
298180,77.8713,-597.252,0,0
298440,77.1515,-595.626,0,0
298700.2,76.4763,-594,0,0
298960.525,75.8351,-592.38,0,0
299220.85,75.2445,-590.756,0,0
299481.175,74.6949,-589.106,0,0
299741.5,74.1868,-587.485,0,0
300001.825,73.716,-585.834,0,0
300262.15,73.2939,-584.194,0,0
300522.475,72.9347,-582.51,0,0
300782.8,72.6414,-580.843,0,0
301043.125,72.4176,-579.188,0,0
301303.45,72.2813,-577.566,0,0
301563.775,72.2016,-575.96,0,0
301824.1,72.1942,-574.407,0,0
302084.425,72.2323,-572.933,0,0
302344.75,72.3065,-571.483,0,0
302605.075,72.428,-570.118,0,0
302865.4,72.5588,-568.821,0,0
303125.725,72.6815,-567.582,0,0
303386.05,72.8205,-566.348,0,0
303646.375,72.9841,-565.177,0,0
303906.7,73.154,-564.045,0,0
304167.025,73.3299,-562.94,0,0
304427.35,73.5274,-561.873,0,0
304687.675,73.7001,-560.853,0,0
304948.0,73.8589,-559.856,0,0
305208.325,74.0295,-558.9,0,0
305468.65,74.2309,-557.926,0,0
305728.975,74.4378,-556.993,0,0
305989.3,74.6863,-556.124,0,0
306249.625,74.9516,-555.294,0,0
306509.95,75.2071,-554.553,0,0
306770.275,75.441,-553.842,0,0
307030.6,75.6517,-553.196,0,0
307290.925,75.8176,-552.56,0,0
307551.25,75.9722,-551.943,0,0
307811.575,76.1177,-551.323,0,0
308071.9,76.3105,-550.735,0,0
308332.225,76.5472,-550.203,0,0
308592.55,76.7538,-549.785,0,0
308852.875,76.9228,-549.479,0,0
309113.2,77.0075,-549.248,0,0
309373.525,76.937,-549.061,0,0
309633.85,76.77,-548.859,0,0
309894.175,76.4947,-548.607,0,0
310154.5,76.1611,-548.269,0,0
310414.825,75.8397,-547.874,0,0
310675.15,75.5002,-547.455,0,0
310935.475,75.1616,-547.008,0,0
311195.8,74.8467,-546.548,0,0
311456.125,74.5009,-546.082,0,0
311716.45,74.1497,-545.594,0,0
311976.775,73.8285,-545.109,0,0
312237.1,73.4712,-544.616,0,0
312497.425,73.1255,-544.125,0,0
312757.75,72.7837,-543.629,0,0
313018.075,72.4311,-543.152,0,0
313278.4,72.0391,-542.702,0,0
313538.725,71.6152,-542.228,0,0
313799.05,71.1404,-541.761,0,0
314059.375,70.6623,-541.27,0,0
314319.7,70.1238,-540.746,0,0
314580,69.5402,-540.14,0,0
314840,69.0361,-539.523,0,0
315101,68.5022,-538.798,0,0
315361,67.9965,-538.219,0,0
315621,67.4462,-537.417,0,0
315882,66.9825,-536.619,0,0
316142,66.4508,-535.931,0,0
316402,66.0727,-535.003,0,0
316663,65.6712,-534.24,0,0
316923,65.234,-533.33,0,0
317183,64.9698,-532.529,0,0
317444,64.6783,-531.689,0,0
317704,64.402,-530.88,0,0
317964,64.1308,-530.018,0,0
318225,63.8388,-529.268,0,0
318485,63.6495,-528.527,0,0
318745,63.4164,-527.766,0,0
319006,63.2442,-526.935,0,0
319266,63.0979,-526.211,0,0
319526,62.936,-525.486,0,0
319787,62.8004,-524.754,0,0
320047,62.7471,-524.099,0,0
320307,62.614,-523.494,0,0
320567,62.502,-522.93,0,0
320828,62.4083,-522.396,0,0
321088,62.1798,-521.922,0,0
321348,61.9788,-521.389,0,0
321609,61.7843,-520.869,0,0
321869,61.458,-520.438,0,0
322129,61.2237,-519.928,0,0
322390,60.8852,-519.395,0,0
322650,60.5674,-518.905,0,0
322910,60.2535,-518.38,0,0
323171,59.8774,-517.89,0,0
323431,59.558,-517.372,0,0
323691,59.2257,-516.871,0,0
323952,58.805,-516.4,0,0
324212,58.3721,-515.925,0,0
324472,57.9212,-515.451,0,0
324733,57.447,-514.901,0,0
324993,56.8113,-514.362,0,0
325253,56.3961,-513.69,0,0
325514,55.8344,-513.124,0,0
325774,55.317,-512.394,0,0
326034,54.7628,-511.688,0,0
326295,54.2756,-510.883,0,0
326555,53.8189,-510.151,0,0
326815,53.3632,-509.358,0,0
327076,52.9437,-508.592,0,0
327336,52.5951,-507.792,0,0
327596,52.1264,-507.035,0,0
327857,51.6703,-506.174,0,0
328117,51.3911,-505.438,0,0
328377,50.9678,-504.637,0,0
328638,50.58,-503.765,0,0
328898,50.2731,-502.976,0,0
329158,49.8467,-502.215,0,0
329419,49.5006,-501.435,0,0
329679,49.1488,-500.57,0,0
329939,48.8138,-499.772,0,0
330200,48.476,-498.961,0,0
330460,48.1031,-498.048,0,0
330720.15,47.7571,-497.232,0,0
330980.475,47.4178,-496.424,0,0
331240.8,47.1383,-495.523,0,0
331501.125,46.8139,-494.685,0,0
331761.45,46.5099,-493.79,0,0
332021.775,46.2003,-492.907,0,0
332282.1,45.9201,-491.937,0,0
332542.425,45.6869,-491.037,0,0
332802.75,45.4381,-490.134,0,0
333063.075,45.2136,-489.153,0,0
333323.4,44.9748,-488.17,0,0
333583.725,44.8282,-487.239,0,0
333844.05,44.6994,-486.3,0,0
334104.375,44.6225,-485.33,0,0
334364.7,44.5359,-484.33,0,0
334625.025,44.4928,-483.435,0,0
334885.35,44.5165,-482.566,0,0
335145.675,44.4744,-481.638,0,0
335406.0,44.5363,-480.858,0,0
335666.325,44.5359,-480.015,0,0
335926.65,44.5893,-479.194,0,0
336186.975,44.678,-478.442,0,0
336447.3,44.7001,-477.719,0,0
336707.625,44.7086,-476.969,0,0
336967.95,44.704,-476.295,0,0
337228.275,44.7641,-475.598,0,0
337488.6,44.7832,-474.937,0,0
337748.925,44.8276,-474.271,0,0
338009.25,44.7993,-473.647,0,0
338269.575,44.7184,-473,0,0
338529.9,44.6992,-472.428,0,0
338790.225,44.6837,-471.782,0,0
339050.55,44.6368,-471.23,0,0
339310.875,44.5385,-470.658,0,0
339571.2,44.4421,-470.051,0,0
339831.525,44.323,-469.476,0,0
340091.85,44.181,-468.853,0,0
340352.175,44.1166,-468.24,0,0
340612.5,43.95,-467.659,0,0
340872.825,43.8454,-467.014,0,0
341133.15,43.6683,-466.404,0,0
341393.475,43.459,-465.761,0,0
341653.8,43.3189,-465.098,0,0
341914.125,43.0971,-464.432,0,0
342174.45,42.947,-463.759,0,0
342434.775,42.773,-463.015,0,0
342695.1,42.6288,-462.344,0,0
342955.425,42.4928,-461.657,0,0
343215.75,42.3125,-460.954,0,0
343476.075,42.1834,-460.167,0,0
343736.4,42.0438,-459.476,0,0
343996.725,41.9021,-458.769,0,0
344257.05,41.7789,-457.982,0,0
344517.375,41.6383,-457.218,0,0
344777.7,41.5599,-456.494,0,0
345038.025,41.4926,-455.751,0,0
345298.35,41.4062,-454.973,0,0
345558.675,41.3288,-454.248,0,0
345819.0,41.2588,-453.465,0,0
346079.325,41.2141,-452.71,0,0
346339.65,41.1164,-451.891,0,0
346599.975,41.1241,-451.132,0,0
346860,41.1152,-450.366,0,0
347121,41.1771,-449.584,0,0
347381,41.1694,-448.824,0,0
347641,41.1626,-448.076,0,0
347902,41.2741,-447.376,0,0
348162,41.2842,-446.625,0,0
348422,41.3442,-445.905,0,0
348683,41.4264,-445.172,0,0
348943,41.5439,-444.532,0,0
349203,41.5588,-443.866,0,0
349464,41.6154,-443.209,0,0
349724,41.7518,-442.548,0,0
349984,41.7544,-441.855,0,0
350245,41.8472,-441.171,0,0
350505,41.9384,-440.51,0,0
350765,42.0114,-439.887,0,0
351025,42.1459,-439.218,0,0
351286,42.2261,-438.586,0,0
351546,42.3145,-437.99,0,0
351806,42.3796,-437.407,0,0
352067,42.5378,-436.802,0,0
352327,42.5994,-436.218,0,0
352587,42.6806,-435.587,0,0
352848,42.8126,-435.025,0,0
353108,42.8988,-434.4,0,0
353368,43.0317,-433.866,0,0
353629,43.1643,-433.313,0,0
353889,43.2509,-432.783,0,0
354149,43.3676,-432.265,0,0
354410,43.4983,-431.728,0,0
354670,43.5891,-431.225,0,0
354930,43.6778,-430.789,0,0
355191,43.7117,-430.291,0,0
355451,43.7899,-429.818,0,0
355711,43.8749,-429.308,0,0
355972,43.9551,-428.867,0,0
356232,43.966,-428.383,0,0
356492,44.0293,-427.927,0,0
356753,44.0464,-427.475,0,0
357013,44.1003,-427.047,0,0
357273,44.0846,-426.613,0,0
357534,44.0498,-426.171,0,0
357794,44.0095,-425.719,0,0
358054,43.925,-425.254,0,0
358315,43.9338,-424.789,0,0
358575,43.8703,-424.257,0,0
358835,43.8259,-423.797,0,0
359096,43.7905,-423.302,0,0
359356,43.6907,-422.734,0,0
359616,43.6198,-422.251,0,0
359877,43.6228,-421.727,0,0
360137,43.5713,-421.148,0,0
360397,43.5116,-420.604,0,0
360658,43.5327,-420.068,0,0
360918,43.4407,-419.5,0,0
361178,43.4327,-418.967,0,0
361438,43.3774,-418.423,0,0
361699,43.3812,-417.84,0,0
361959,43.319,-417.3,0,0
362219,43.3365,-416.749,0,0
362480,43.3577,-416.163,0,0
362740.1,43.3432,-415.56,0,0
363000.425,43.2998,-415.012,0,0
363260.75,43.324,-414.473,0,0
363521.075,43.3283,-413.892,0,0
363781.4,43.3779,-413.275,0,0
364041.725,43.3561,-412.686,0,0
364302.05,43.3865,-412.135,0,0
364562.375,43.4184,-411.516,0,0
364822.7,43.4647,-410.901,0,0
365083.025,43.5096,-410.336,0,0
365343.35,43.6246,-409.734,0,0
365603.675,43.7267,-409.146,0,0
365864.0,43.8331,-408.588,0,0
366124.325,43.954,-408.058,0,0
366384.65,44.0859,-407.539,0,0
366644.975,44.1622,-407.039,0,0
366905.3,44.234,-406.561,0,0
367165.625,44.3253,-406.065,0,0
367425.95,44.3959,-405.566,0,0
367686.275,44.4885,-405.079,0,0
367946.6,44.5255,-404.581,0,0
368206.925,44.5672,-404.069,0,0
368467.25,44.6267,-403.537,0,0
368727.575,44.6544,-403.016,0,0
368987.9,44.7377,-402.422,0,0
369248.225,44.8444,-401.855,0,0
369508.55,44.9741,-401.256,0,0
369768.875,45.1007,-400.7,0,0
370029.2,45.2724,-400.15,0,0
370289.525,45.4725,-399.632,0,0
370549.85,45.6812,-399.127,0,0
370810.175,45.943,-398.661,0,0
371070.5,46.1031,-398.233,0,0
371330.825,46.3367,-397.833,0,0
371591.15,46.5363,-397.49,0,0
371851.475,46.6832,-397.089,0,0
372111.8,46.841,-396.7,0,0
372372.125,46.9858,-396.361,0,0
372632.45,47.1333,-395.953,0,0
372892.775,47.2542,-395.61,0,0
373153.1,47.3435,-395.288,0,0
373413.425,47.4334,-394.96,0,0
373673.75,47.5301,-394.569,0,0
373934.075,47.6389,-394.225,0,0
374194.4,47.6606,-393.861,0,0
374454.725,47.7691,-393.535,0,0
374715.05,47.8452,-393.173,0,0
374975.375,47.8736,-392.785,0,0
375235.7,47.9414,-392.435,0,0
375496.025,48.0111,-392.086,0,0
375756.35,48.0663,-391.676,0,0
376016.675,48.1502,-391.276,0,0
376277.0,48.2264,-390.915,0,0
376537.325,48.3429,-390.515,0,0
376797.65,48.4157,-390.146,0,0
377057.975,48.5878,-389.825,0,0
377318.3,48.7294,-389.49,0,0
377578.625,48.8284,-389.22,0,0
377838.95,48.9399,-389.005,0,0
378099.275,49.0386,-388.766,0,0
378359.6,49.0502,-388.581,0,0
378619.925,48.9983,-388.396,0,0
378880,48.9395,-388.145,0,0
379141,48.8522,-387.879,0,0
379401,48.6355,-387.602,0,0
379661,48.5616,-387.182,0,0
379922,48.4619,-386.794,0,0
380182,48.3785,-386.32,0,0
380442,48.368,-385.807,0,0
380703,48.4197,-385.351,0,0
380963,48.5084,-384.908,0,0
381223,48.746,-384.466,0,0
381483,48.8666,-384.168,0,0
381744,49.0508,-383.924,0,0
382004,49.2049,-383.749,0,0
382264,49.2433,-383.628,0,0
382525,49.2545,-383.476,0,0
382785,49.1947,-383.436,0,0
383045,49.0814,-383.299,0,0
383306,48.9127,-383.123,0,0
383566,48.7203,-382.961,0,0
383826,48.4571,-382.75,0,0
384087,48.2395,-382.46,0,0
384347,47.9885,-382.179,0,0
384607,47.6815,-381.863,0,0
384868,47.3961,-381.548,0,0
385128,47.1504,-381.164,0,0
385388,46.8656,-380.721,0,0
385649,46.6031,-380.293,0,0
385909,46.3879,-379.794,0,0
386169,46.1085,-379.342,0,0
386430,45.8843,-378.834,0,0
386690,45.7127,-378.299,0,0
386950,45.4662,-377.782,0,0
387211,45.3075,-377.225,0,0
387471,45.1628,-376.664,0,0
387731,45.0085,-376.1,0,0
387992,44.8586,-375.483,0,0
388252,44.7921,-374.932,0,0
388512,44.6868,-374.323,0,0
388773,44.6085,-373.75,0,0
389033,44.5207,-373.147,0,0
389293,44.4841,-372.606,0,0
389554,44.481,-371.983,0,0
389814,44.4813,-371.432,0,0
390074,44.4999,-370.899,0,0
390335,44.4914,-370.348,0,0
390595,44.4862,-369.817,0,0
390855,44.5099,-369.276,0,0
391116,44.4959,-368.75,0,0
391376,44.5185,-368.257,0,0
391636,44.5162,-367.787,0,0
391896,44.4894,-367.277,0,0
392157,44.4796,-366.767,0,0
392417,44.4669,-366.236,0,0
392677,44.4792,-365.765,0,0
392938,44.4385,-365.289,0,0
393198,44.4109,-364.732,0,0
393458,44.3999,-364.206,0,0
393719,44.3938,-363.643,0,0
393979,44.4043,-363.083,0,0
394239,44.4096,-362.54,0,0
394500,44.4198,-361.995,0,0
394760.05,44.4245,-361.445,0,0
395020.375,44.494,-360.883,0,0
395280.7,44.5288,-360.356,0,0
395541.025,44.6034,-359.785,0,0
395801.35,44.668,-359.236,0,0
396061.675,44.761,-358.687,0,0
396322.0,44.8402,-358.149,0,0
396582.325,44.9757,-357.665,0,0
396842.65,45.0868,-357.144,0,0
397102.975,45.199,-356.678,0,0
397363.3,45.3111,-356.228,0,0
397623.625,45.3975,-355.78,0,0
397883.95,45.4977,-355.328,0,0
398144.275,45.6106,-354.907,0,0
398404.6,45.6382,-354.453,0,0
398664.925,45.7003,-354.025,0,0
398925.25,45.74,-353.592,0,0
399185.575,45.7872,-353.161,0,0
399445.9,45.8567,-352.745,0,0
399706.225,45.8475,-352.278,0,0
399966.55,45.887,-351.865,0,0
400006.6,45.8856,-351.771,0,0