File: Accelerated corrosion test data/2025-10-13_06-00-03/sample_2.csv
Frequency (Hz),Impedance (ohms),Phase (Radians),Temperature (C),Humidity (%)
10000.0,230.323,-11421.8,0,0
10260.325,224.928,-11134.3,0,0
10520.65,219.544,-10861.1,0,0
10780.975,214.777,-10601.1,0,0
11041.3,209.451,-10353.7,0,0
11301.625,205.032,-10116.2,0,0
11561.95,201.746,-9888.79,0,0
11822.275,199.262,-9679.92,0,0
12082.6,194.121,-9469.89,0,0
12342.925,189.14,-9273.36,0,0
12603.25,184.673,-9082.07,0,0
12863.575,181.676,-8898.36,0,0
13123.9,178.712,-8725.21,0,0
13384.225,174.537,-8553.84,0,0
13644.55,172.235,-8388.48,0,0
13904.875,184.405,-8246.15,0,0
14165.2,165.958,-8089.81,0,0
14425.525,164.03,-7942.36,0,0
14685.8,166.446,-7795.95,0,0
14946.175,161.539,-7666.55,0,0
15206.5,161.055,-7547.24,0,0
15466.825,165.095,-7412.79,0,0
15727.15,152.803,-7298.17,0,0
15987.5,149.535,-7176.94,0,0
16247.8,150.149,-7063.08,0,0
16508.125,144.581,-6952.85,0,0
16768.45,142.209,-6844.95,0,0
17028.775,140.674,-6740.5,0,0
17289.1,139.065,-6640.19,0,0
17549.425,136.056,-6541.61,0,0
17809.75,134.705,-6445.5,0,0
18070.075,132.365,-6351.94,0,0
18330.4,130.315,-6261.77,0,0
18590.725,129.989,-6174.01,0,0
18851.05,128.823,-6087.85,0,0
19111.375,130.472,-6007.21,0,0
19371.7,128.704,-5929.83,0,0
19632.025,124.028,-5850.86,0,0
19892.35,121.887,-5773.24,0,0
20152.675,120.226,-5697.47,0,0
20413.0,119.402,-5623.66,0,0
20673.3,118.788,-5551,0,0
20933.65,119.697,-5479.14,0,0
21193.975,123.2,-5412.59,0,0
21454.3,129.987,-5353.02,0,0
21714.625,126.21,-5295.21,0,0
21974.9,126.146,-5230.63,0,0
22235.275,119.14,-5174.31,0,0
22495.6,116.151,-5114.56,0,0
22755.925,113.688,-5053.12,0,0
23016.25,113.262,-4998.91,0,0
23276.6,113.09,-4945.07,0,0
23536.9,109.647,-4889.56,0,0
23797.225,108.467,-4835.35,0,0
24057.55,107.115,-4784.08,0,0
24317.875,103.628,-4732.96,0,0
24578.2,102.556,-4682.47,0,0
24838.525,101.468,-4632.35,0,0
25098.85,100.267,-4583.28,0,0
25359.175,99.0469,-4536.44,0,0
25619.5,98.146,-4489.75,0,0
25879.8,97.6889,-4443.4,0,0
26140.1,97.7539,-4399.31,0,0
26400.5,96.659,-4355.02,0,0
26660.8,97.0285,-4313.58,0,0
26921.1,96.0263,-4271.22,0,0
27181.4,95.1069,-4232.33,0,0
27441.8,93.0545,-4191.36,0,0
27702.1,91.705,-4151.32,0,0
27962.4,90.9658,-4110.92,0,0
28222.7,91.2035,-4072.63,0,0
28483.1,90.3921,-4034.79,0,0
28743.4,90.2522,-3996.25,0,0
29003.7,91.9494,-3960.12,0,0
29264,92.6868,-3923.2,0,0
29524.4,95.0433,-3889.23,0,0
29784.7,97.4327,-3861.01,0,0
30045,93.6154,-3828.26,0,0
30305.3,95.4445,-3796.2,0,0
30565.7,91.4288,-3767.17,0,0
30826,89.018,-3734.61,0,0
31086.3,87.5694,-3702.9,0,0
31346.6,86.3102,-3671.26,0,0
31607,86.0732,-3641.47,0,0
31867.3,83.851,-3611.09,0,0
32127.6,83.0966,-3580.17,0,0
32387.9,84.2144,-3550.53,0,0
32648.3,84.9785,-3523.5,0,0
32908.6,83.1756,-3496.37,0,0
33168.9,82.7414,-3469.44,0,0
33429.2,81.11,-3441.93,0,0
33689.6,80.7486,-3415.56,0,0
33949.9,79.9944,-3389.88,0,0
34210.2,77.9005,-3363.55,0,0
34470.5,77.1099,-3337.23,0,0
34730.9,76.8758,-3312.01,0,0
34991.2,76.3229,-3286.89,0,0
35251.5,75.614,-3262.21,0,0
35511.8,75.4931,-3237.91,0,0
35772.2,74.7821,-3214.14,0,0
36032.5,73.944,-3190.62,0,0
36292.8,73.4486,-3167.17,0,0
36553.1,73.0895,-3144.33,0,0
36813.5,72.3557,-3121.47,0,0
37073.8,72.1244,-3099.25,0,0
37334.1,72.0174,-3077.2,0,0
37594.4,71.625,-3055.94,0,0
37854.8,71.5303,-3034.38,0,0
38115.1,70.7857,-3013.71,0,0
38375.4,70.1339,-2992.71,0,0
38635.7,69.9314,-2972.18,0,0
38896.1,69.4257,-2951.92,0,0
39156.4,68.8597,-2931.95,0,0
39416.7,68.4491,-2912.32,0,0
39677,68.3718,-2892.45,0,0
39937.4,67.8056,-2873.3,0,0
40197.7,67.7303,-2854.22,0,0
40458,67.0113,-2835.32,0,0
40718.3,67.1345,-2816.76,0,0
40978.7,66.863,-2798.62,0,0
41239,66.6748,-2780.44,0,0
41499.3,66.5444,-2763.03,0,0
41759.6,66.278,-2745.23,0,0
42020,65.9713,-2727.65,0,0
42280.275,65.6986,-2711.07,0,0
42540.6,65.3682,-2694.03,0,0
42800.925,64.9365,-2677.34,0,0
43061.25,64.6072,-2660.54,0,0
43321.575,64.52,-2644.13,0,0
43581.9,64.3394,-2628.15,0,0
43842.225,64.0808,-2612.08,0,0
44102.55,63.701,-2596.21,0,0
44362.875,63.746,-2580.81,0,0
44623.2,63.3015,-2565.38,0,0
44883.525,62.7624,-2549.84,0,0
45143.85,62.7644,-2534.51,0,0
45404.175,62.6807,-2519.74,0,0
45664.5,62.2658,-2505.02,0,0
45924.825,62.6143,-2489.96,0,0
46185.15,62.4407,-2476.07,0,0
46445.475,61.9666,-2462.01,0,0
46705.8,61.4899,-2447.59,0,0
46966.125,61.5348,-2433.58,0,0
47226.45,61.7689,-2419.42,0,0
47486.775,61.6438,-2406.19,0,0
47747.1,61.4543,-2392.35,0,0
48007.425,61.4627,-2378.96,0,0
48267.75,62.2659,-2365.49,0,0
48528.075,62.728,-2354,0,0
48788.4,61.8392,-2341.82,0,0
49048.725,61.138,-2329.07,0,0
49309.05,60.4106,-2316.4,0,0
49569.375,59.9343,-2303.83,0,0
49829.7,59.7392,-2291.41,0,0
50090.025,58.8947,-2279.32,0,0
50350.35,58.6618,-2266.78,0,0
50610.675,58.5143,-2254.52,0,0
50871.0,58.4635,-2242.46,0,0
51131.325,58.3393,-2230.91,0,0
51391.65,57.9051,-2219.31,0,0
51651.975,57.3753,-2207.87,0,0
51912.3,56.8382,-2196.22,0,0
52172.625,56.6039,-2184.55,0,0
52432.95,56.2423,-2173.19,0,0
52693.275,55.9488,-2161.9,0,0
52953.6,55.8189,-2150.48,0,0
53213.925,55.6484,-2139.36,0,0
53474.25,55.5024,-2128.43,0,0
53734.575,55.2685,-2117.47,0,0
53994.9,55.144,-2106.64,0,0
54255.225,54.9538,-2095.87,0,0
54515.55,55.0248,-2085.33,0,0
54775.875,54.8655,-2074.85,0,0
55036.2,54.7937,-2064.36,0,0
55296.525,54.7157,-2054.08,0,0
55556.85,54.7461,-2043.79,0,0
55817.175,54.6913,-2033.75,0,0
56077.5,54.6126,-2023.75,0,0
56337.825,54.5656,-2013.9,0,0
56598.15,54.4461,-2003.92,0,0
56858.475,54.7124,-1994.05,0,0
57118.8,54.588,-1984.51,0,0
57379.125,54.5873,-1975.03,0,0
57639.45,54.7613,-1965.47,0,0
57899.775,54.7807,-1956.19,0,0
58160.1,54.6479,-1946.87,0,0
58420.4,54.5877,-1937.49,0,0
58680.7,54.6584,-1928.21,0,0
58941.1,54.906,-1919.05,0,0
59201.4,54.9868,-1909.92,0,0
59461.7,55.2631,-1900.97,0,0
59722,55.6677,-1891.97,0,0
59982.4,56.1657,-1883.23,0,0
60242.7,56.8825,-1875.08,0,0
60503,56.7238,-1867.02,0,0
60763.3,56.6634,-1858.39,0,0
61023.7,57.0504,-1849.57,0,0
61284,58.043,-1841.34,0,0
61544.3,59.108,-1833.75,0,0
61804.6,59.8162,-1826.99,0,0
62065,59.4764,-1820.33,0,0
62325.3,58.5731,-1813,0,0
62585.6,58.3251,-1805.31,0,0
62845.9,58.2263,-1798.18,0,0
63106.3,56.9057,-1790.93,0,0
63366.6,56.552,-1783.22,0,0
63626.9,56.065,-1775.61,0,0
63887.2,55.5642,-1768.07,0,0
64147.6,54.9282,-1760.99,0,0
64407.9,54.0858,-1753.15,0,0
64668.2,53.6496,-1745.66,0,0
64928.5,52.5552,-1738.34,0,0
65188.9,51.6175,-1730.14,0,0
65449.2,51.3308,-1722,0,0
65709.5,51.3506,-1714.03,0,0
65969.8,51.3152,-1706.43,0,0
66230.2,51.3155,-1698.69,0,0
66490.5,51.4477,-1691.14,0,0
66750.8,51.5114,-1683.84,0,0
67011.1,51.5454,-1676.21,0,0
67271.5,51.9343,-1668.65,0,0
67531.8,52.5908,-1661.53,0,0
67792.1,53.2913,-1654.74,0,0
68052.4,53.6543,-1648.27,0,0
68312.8,53.7869,-1641.54,0,0
68573.1,54.1678,-1634.8,0,0
68833.4,54.7884,-1628.36,0,0
69093.7,54.9701,-1622.02,0,0
69354.1,55.5886,-1615.7,0,0
69614.4,56.396,-1609.81,0,0
69874.7,56.8203,-1604.65,0,0
70135,56.5489,-1599.66,0,0
70395.4,55.7374,-1594.32,0,0
70655.7,54.6877,-1588.55,0,0
70916,53.9974,-1582.25,0,0
71176.3,53.6063,-1576.57,0,0
71436.7,52.8422,-1570.96,0,0
71697,51.7332,-1565.34,0,0
71957.3,50.5236,-1559.12,0,0
72217.6,49.2495,-1552.64,0,0
72478,48.4899,-1546.03,0,0
72738.3,47.5989,-1539.41,0,0
72998.6,47.2276,-1532.67,0,0
73258.9,46.9707,-1526.47,0,0
73519.3,46.1259,-1520.02,0,0
73779.6,45.7312,-1513.1,0,0
74039.9,45.5411,-1506.48,0,0
74300.225,45.6144,-1500,0,0
74560.55,45.6136,-1493.61,0,0
74820.875,45.6569,-1487.29,0,0
75081.2,45.8234,-1480.9,0,0
75341.525,46.0502,-1474.71,0,0
75601.85,46.262,-1468.61,0,0
75862.175,46.5513,-1462.42,0,0
76122.5,47.0224,-1456.44,0,0
76382.825,47.4443,-1450.64,0,0
76643.15,47.8727,-1444.86,0,0
76903.475,48.2479,-1439.14,0,0
77163.8,48.7196,-1433.33,0,0
77424.125,49.4186,-1427.73,0,0
77684.45,50.0373,-1422.25,0,0
77944.775,50.805,-1416.97,0,0
78205.1,51.6638,-1411.88,0,0
78465.425,52.3542,-1407.11,0,0
78725.75,52.9606,-1402.4,0,0
78986.075,53.3564,-1397.87,0,0
79246.4,53.6873,-1393.41,0,0
79506.725,54.0449,-1389.08,0,0
79767.05,53.9776,-1385.26,0,0
80027.375,53.2456,-1381.12,0,0
80287.7,52.502,-1376.55,0,0
80548.025,51.6867,-1371.82,0,0
80808.35,51.0095,-1366.7,0,0
81068.675,50.5932,-1361.64,0,0
81329.0,50.1409,-1356.65,0,0
81589.325,49.7807,-1351.6,0,0
81849.65,49.3132,-1346.59,0,0
82109.975,48.9989,-1341.39,0,0
82370.3,48.7295,-1336.17,0,0
82630.625,48.526,-1330.94,0,0
82890.95,48.5178,-1325.75,0,0
83151.275,48.6375,-1320.65,0,0
83411.6,48.7913,-1315.64,0,0
83671.925,48.9527,-1310.73,0,0
83932.25,49.0542,-1305.89,0,0
84192.575,49.3064,-1301.13,0,0
84452.9,49.4008,-1296.44,0,0
84713.225,49.429,-1291.77,0,0
84973.55,49.5213,-1287.01,0,0
85233.875,49.6177,-1282.22,0,0
85494.2,49.9458,-1277.39,0,0
85754.525,50.4263,-1272.96,0,0
86014.85,50.6952,-1268.68,0,0
86275.175,50.7289,-1264.38,0,0
86535.5,50.7532,-1259.96,0,0
86795.825,50.8858,-1255.49,0,0
87056.15,51.1432,-1251.09,0,0
87316.475,51.3528,-1246.87,0,0
87576.8,51.466,-1242.83,0,0
87837.125,51.3595,-1238.48,0,0
88097.45,51.5016,-1234.12,0,0
88357.775,51.8214,-1230.05,0,0
88618.1,51.4166,-1226.27,0,0
88878.425,51.1341,-1221.64,0,0
89138.75,51.4104,-1217.05,0,0
89399.075,51.5654,-1212.81,0,0
89659.4,51.8032,-1208.47,0,0
89919.725,52.237,-1204.53,0,0
90180,52.2522,-1200.78,0,0
90440.4,51.9782,-1196.81,0,0
90700.7,51.7229,-1192.24,0,0
90961,52.2213,-1187.68,0,0
91221.3,52.5549,-1183.73,0,0
91481.7,52.7018,-1179.84,0,0
91742,52.8072,-1175.67,0,0
92002.3,53.0609,-1171.31,0,0
92262.6,53.659,-1167.18,0,0
92523,54.3707,-1163.4,0,0
92783.3,54.8472,-1159.79,0,0
93043.6,55.174,-1156.23,0,0
93303.9,55.5439,-1152.54,0,0
93564.3,55.9501,-1149.05,0,0
93824.6,56.4188,-1145.74,0,0
94084.9,56.6036,-1142.68,0,0
94345.2,56.2738,-1139.63,0,0
94605.6,55.8453,-1136.05,0,0
94865.9,55.7868,-1132.64,0,0
95126.2,55.1241,-1129.28,0,0
95386.5,54.2406,-1125.06,0,0
95646.9,54.306,-1120.36,0,0
95907.2,54.9757,-1116.07,0,0
96167.5,55.8997,-1112.32,0,0
96427.8,56.5339,-1109.1,0,0
96688.2,56.8914,-1105.7,0,0
96948.5,57.5573,-1102.25,0,0
97208.8,58.3493,-1099.45,0,0
97469.1,58.4234,-1096.96,0,0
97729.5,58.2915,-1094.01,0,0
97989.8,58.2027,-1091.14,0,0
98250.1,58.1013,-1088.17,0,0
98510.4,58.0259,-1085.31,0,0
98770.8,57.8145,-1082.69,0,0
99031.1,57.2954,-1080.19,0,0
99291.4,56.3058,-1077.58,0,0
99551.7,54.9267,-1074.39,0,0
99812.1,53.8789,-1070.59,0,0
100072,53.3105,-1066.62,0,0
100333,53.4231,-1063.08,0,0
100593,53.0616,-1060.31,0,0
100853,52.0165,-1057.3,0,0
101114,50.8433,-1053.86,0,0
101374,49.6386,-1050.03,0,0
101634,48.8292,-1045.78,0,0
101895,48.3166,-1041.75,0,0
102155,47.7509,-1037.68,0,0
102415,47.4373,-1033.6,0,0
102676,46.9504,-1029.63,0,0
102936,46.5485,-1025.4,0,0
103196,46.3055,-1021.03,0,0
103457,46.2721,-1016.8,0,0
103717,46.2047,-1012.34,0,0
103977,46.7033,-1007.88,0,0
104238,47.3113,-1003.7,0,0
104498,47.9749,-999.739,0,0
104758,48.6599,-995.831,0,0
105019,49.4501,-991.941,0,0
105279,50.3139,-988.339,0,0
105539,51.1518,-984.729,0,0
105800,52.1881,-981.137,0,0
106060,53.4416,-977.935,0,0
106320.175,54.4765,-975.105,0,0
106580.5,55.3538,-972.258,0,0
106840.825,56.3141,-969.531,0,0
107101.15,57.1782,-967.172,0,0
107361.475,57.806,-965.018,0,0
107621.8,57.9706,-963.051,0,0
107882.125,57.8308,-960.733,0,0
108142.45,57.7442,-958.318,0,0
108402.775,57.4654,-955.996,0,0
108663.1,57.099,-953.539,0,0
108923.425,56.5256,-951.044,0,0
109183.75,55.7947,-948.311,0,0
109444.075,55.2404,-945.286,0,0
109704.4,54.5805,-942.388,0,0
109964.725,53.8568,-939.226,0,0
110225.05,53.1155,-935.811,0,0
110485.375,52.6576,-932.343,0,0
110745.7,52.3521,-928.847,0,0
111006.025,52.0438,-925.294,0,0
111266.35,51.7116,-921.808,0,0
111526.675,51.6349,-917.959,0,0
111787.0,51.8846,-914.407,0,0
112047.325,52.0343,-911.14,0,0
112307.65,51.9256,-907.732,0,0
112567.975,51.9829,-904.158,0,0
112828.3,52.0932,-900.628,0,0
113088.625,52.2402,-897.164,0,0
113348.95,52.5974,-893.7,0,0
113609.275,52.9038,-890.317,0,0
113869.6,53.1573,-886.872,0,0
114129.925,53.5026,-883.433,0,0
114390.25,53.9244,-880.055,0,0
114650.575,54.4039,-876.664,0,0
114910.9,54.9615,-873.288,0,0
115171.225,55.6272,-870.06,0,0
115431.55,56.1631,-866.893,0,0
115691.875,56.6937,-863.802,0,0
115952.2,57.2606,-860.606,0,0
116212.525,57.8771,-857.399,0,0
116472.85,58.5747,-854.278,0,0
116733.175,59.3299,-851.211,0,0
116993.5,60.08,-848.235,0,0
117253.825,60.8706,-845.273,0,0
117514.15,61.7035,-842.428,0,0
117774.475,62.4978,-839.703,0,0
118034.8,63.2406,-837.019,0,0
118295.125,63.9082,-834.353,0,0
118555.45,64.5659,-831.601,0,0
118815.775,65.4642,-828.945,0,0
119076.1,66.3171,-826.512,0,0
119336.425,67.0304,-824.054,0,0
119596.75,67.855,-821.755,0,0
119857.075,68.4995,-819.576,0,0
120117.4,69.0965,-817.428,0,0
120377.725,69.6883,-815.428,0,0
120638.05,69.9145,-813.591,0,0
120898.375,69.9231,-811.563,0,0
121158.7,69.9209,-809.293,0,0
121419.025,69.9788,-807.11,0,0
121679.35,69.8549,-804.875,0,0
121939.675,69.6858,-802.513,0,0
122200.0,69.4811,-800.035,0,0
122460,69.3361,-797.429,0,0
122721,69.2673,-794.795,0,0
122981,69.2163,-792.163,0,0
123241,69.2144,-789.51,0,0
123502,69.2026,-786.906,0,0
123762,69.1193,-784.259,0,0
124022,69.0494,-781.56,0,0
124283,68.9863,-778.803,0,0
124543,68.9184,-776.008,0,0
124803,68.8792,-773.137,0,0
125064,68.865,-770.224,0,0
125324,68.9224,-767.311,0,0
125584,68.9984,-764.342,0,0
125845,69.119,-761.348,0,0
126105,69.3181,-758.313,0,0
126365,69.5545,-755.264,0,0
126626,69.8214,-752.202,0,0
126886,70.15,-749.163,0,0
127146,70.5278,-746.079,0,0
127406,71.141,-743.039,0,0
127667,71.8888,-740.002,0,0
127927,72.5094,-737.184,0,0
128187,73.1282,-734.394,0,0
128448,73.8255,-731.558,0,0
128708,74.5411,-728.829,0,0
128968,75.2887,-726.213,0,0
129229,75.9874,-723.652,0,0
129489,76.6225,-721.167,0,0
129749,77.2153,-718.605,0,0
130010,77.7672,-716.042,0,0
130270,78.417,-713.517,0,0
130530,79.0391,-711.042,0,0
130791,79.7385,-708.627,0,0
131051,80.3587,-706.353,0,0
131311,80.8391,-704.143,0,0
131572,81.2175,-701.86,0,0
131832,81.574,-699.625,0,0
132092,81.8064,-697.392,0,0
132353,81.8936,-695.029,0,0
132613,81.9517,-692.492,0,0
132873,82.0918,-689.915,0,0
133134,82.2831,-687.239,0,0
133394,82.5489,-684.6,0,0
133654,82.7851,-681.949,0,0
133915,83.0538,-679.333,0,0
134175,83.3018,-676.715,0,0
134435,83.4429,-674.073,0,0
134696,83.5511,-671.287,0,0
134956,83.7071,-668.413,0,0
135216,83.9275,-665.49,0,0
135477,84.2161,-662.522,0,0
135737,84.6238,-659.518,0,0
135997,85.0426,-656.564,0,0
136258,85.5444,-653.627,0,0
136518,85.9833,-650.774,0,0
136778,86.3408,-647.808,0,0
137039,86.7495,-644.704,0,0
137299,87.3352,-641.589,0,0
137559,88.0008,-638.542,0,0
137819,88.6222,-635.575,0,0
138080,89.2589,-632.648,0,0
138340.125,89.7989,-629.726,0,0
138600.45,90.3266,-626.659,0,0
138860.775,90.8974,-623.569,0,0
139121.1,91.4846,-620.441,0,0
139381.425,92.1023,-617.28,0,0
139641.75,92.6597,-614.083,0,0
139902.075,93.2926,-610.734,0,0
140162.4,93.9676,-607.354,0,0
140422.725,94.6309,-603.881,0,0
140683.05,95.4153,-600.215,0,0
140943.375,96.3734,-596.388,0,0
141203.7,97.6146,-592.516,0,0
141464.025,99.1344,-588.734,0,0
141724.35,100.767,-585.092,0,0
141984.675,102.507,-581.544,0,0
142245.0,104.338,-578.054,0,0
142505.325,106.35,-574.689,0,0
142765.65,108.398,-571.584,0,0
143025.975,110.34,-568.669,0,0
143286.3,112.067,-565.696,0,0
143546.625,113.847,-562.561,0,0
143806.95,115.761,-559.448,0,0
144067.275,117.722,-556.431,0,0
144327.6,119.65,-553.41,0,0
144587.925,121.569,-550.315,0,0
144848.25,123.624,-547.107,0,0
145108.575,125.893,-543.941,0,0
145368.9,128.282,-540.885,0,0
145629.225,130.748,-538.01,0,0
145889.55,133.074,-535.27,0,0
146149.875,135.321,-532.419,0,0
146410.2,137.634,-529.444,0,0
146670.525,140.098,-526.397,0,0
146930.85,142.728,-523.331,0,0
147191.175,145.479,-520.305,0,0
147451.5,148.368,-517.261,0,0
147711.825,151.426,-514.278,0,0
147972.15,154.564,-511.368,0,0
148232.475,157.892,-508.354,0,0
148492.8,161.472,-505.382,0,0
148753.125,165.304,-502.46,0,0
149013.45,169.524,-499.555,0,0
149273.775,174.227,-496.944,0,0
149534.1,179.243,-494.764,0,0
149794.425,184.485,-493.059,0,0
150054.75,189.753,-491.842,0,0
150315.075,195.192,-490.852,0,0
150575.4,201.004,-490.569,0,0
150835.725,206.609,-491.203,0,0
151096.05,211.746,-492.342,0,0
151356.375,216.714,-493.865,0,0
151616.7,221.286,-496.091,0,0
151877.025,225.129,-498.726,0,0
152137.35,228.254,-501.466,0,0
152397.675,230.842,-504.088,0,0
152658.0,233.088,-506.544,0,0
152918.325,235.217,-508.946,0,0
153178.65,237.171,-511.607,0,0
153438.975,238.574,-514.52,0,0
153699.3,239.298,-517.417,0,0
153959.625,239.435,-520.007,0,0
154219.95,239.121,-522.11,0,0
154480,238.745,-523.753,0,0
154741,238.307,-525.081,0,0
155001,237.83,-526.182,0,0
155261,237.329,-527.095,0,0
155522,236.946,-527.836,0,0
155782,236.431,-528.578,0,0
156042,235.85,-529.255,0,0
156303,235.115,-529.669,0,0
156563,234.397,-530.131,0,0
156823,233.411,-530.556,0,0
157084,232.092,-530.621,0,0
157344,230.891,-530.056,0,0
157604,229.749,-529.214,0,0
157864,229.015,-528.09,0,0
158125,228.602,-527.083,0,0
158385,228.282,-526.061,0,0
158645,228.063,-525.001,0,0
158906,227.944,-524.297,0,0
159166,227.561,-523.602,0,0
159426,227.11,-522.605,0,0
159687,226.778,-521.299,0,0
159947,226.573,-520.018,0,0
160207,226.639,-518.694,0,0
160468,226.623,-517.678,0,0
160728,226.408,-516.378,0,0
160988,226.424,-514.68,0,0
161249,226.944,-512.853,0,0
161509,227.846,-511.209,0,0
161769,229.17,-509.664,0,0
162030,231.387,-508.651,0,0
162290,233.777,-509.233,0,0
162550,235.226,-510.854,0,0
162811,235.592,-513.013,0,0
163071,234.545,-515.177,0,0
163331,232.567,-516.389,0,0
163592,230.441,-516.8,0,0
163852,228.474,-516.965,0,0
164112,226.24,-516.965,0,0
164373,223.751,-516.507,0,0
164633,221.214,-515.912,0,0
164893,218.501,-514.876,0,0
165154,215.65,-513.621,0,0
165414,212.41,-511.935,0,0
165674,209.085,-509.274,0,0
165935,206.44,-505.972,0,0
166195,204.084,-502.682,0,0
166455,202.007,-499.183,0,0
166716,200.065,-495.544,0,0
166976,198.379,-491.46,0,0
167236,197.095,-487.359,0,0
167497,195.942,-483.178,0,0
167757,195.053,-478.893,0,0
168017,194.365,-474.496,0,0
168277,193.975,-470.019,0,0
168538,193.971,-465.494,0,0
168798,194.275,-461.154,0,0
169058,194.665,-457.136,0,0
169319,194.932,-453.207,0,0
169579,195.006,-449.138,0,0
169839,195.316,-444.791,0,0
170100,195.886,-440.399,0,0
170360.075,196.66,-436.176,0,0
170620.4,197.236,-432.013,0,0
170880.725,197.788,-427.475,0,0
171141.05,198.686,-422.711,0,0
171401.375,200.003,-418.067,0,0
171661.7,201.386,-413.54,0,0
171922.025,202.882,-409.043,0,0
172182.35,204.318,-404.642,0,0
172442.675,205.847,-399.907,0,0
172703.0,207.752,-395.096,0,0
172963.325,209.826,-390.429,0,0
173223.65,212.097,-385.776,0,0
173483.975,214.397,-381.186,0,0
173744.3,216.814,-376.471,0,0
174004.625,219.478,-371.677,0,0
174264.95,222.4,-366.853,0,0
174525.275,225.596,-362.031,0,0
174785.6,229.083,-357.229,0,0
175045.925,232.938,-352.536,0,0
175306.25,237.117,-347.99,0,0
175566.575,241.749,-343.815,0,0
175826.9,246.315,-340.034,0,0
176087.225,250.964,-336.304,0,0
176347.55,255.968,-332.901,0,0
176607.875,260.876,-329.886,0,0
176868.2,265.731,-326.947,0,0
177128.525,270.897,-324.053,0,0
177388.85,276.376,-321.706,0,0
177649.175,281.798,-319.74,0,0
177909.5,287.26,-318.288,0,0
178169.825,292.46,-317.37,0,0
178430.15,297.433,-316.789,0,0
178690.475,302.123,-316.596,0,0
178950.8,306.204,-316.724,0,0
179211.125,310.01,-316.986,0,0
179471.45,313.09,-317.667,0,0
179731.775,314.774,-318.076,0,0
179992.1,317.538,-316.645,0,0
180252.425,319.124,-316.109,0,0
180512.75,320.371,-315.009,0,0
180773.075,321.45,-313.323,0,0
181033.4,322.602,-311.032,0,0
181293.725,323.807,-308.254,0,0
181554.05,325.116,-304.707,0,0
181814.375,327.278,-300.411,0,0
182074.7,330.56,-296.271,0,0
182335.025,334.062,-292.863,0,0
182595.35,337.264,-289.605,0,0
182855.675,340.258,-286.068,0,0
183116.0,343.411,-282.095,0,0
183376.325,346.861,-277.864,0,0
183636.65,350.573,-273.338,0,0
183896.975,354.821,-268.547,0,0
184157.3,359.51,-263.689,0,0
184417.625,364.639,-258.595,0,0
184677.95,370.805,-253.409,0,0
184938.275,377.797,-248.856,0,0
185198.6,384.966,-244.998,0,0
185458.925,392.297,-241.522,0,0
185719.25,399.831,-238.484,0,0
185979.575,407.479,-235.888,0,0
186239.9,415.156,-233.749,0,0
186500,422.396,-232.139,0,0
186761,429,-230.26,0,0
187021,435.737,-227.452,0,0
187281,443.5,-224.472,0,0
187542,452.023,-222.068,0,0
187802,460.889,-220.565,0,0
188062,469.39,-219.579,0,0
188322,477.829,-218.844,0,0
188583,486.226,-218.376,0,0
188843,494.195,-218.372,0,0
189103,501.514,-218.267,0,0
189364,508.759,-217.4,0,0
189624,516.323,-216.117,0,0
189884,524.375,-214.455,0,0
190145,533.365,-212.875,0,0
190405,542.476,-211.884,0,0
190665,551.553,-210.919,0,0
190926,560.93,-209.365,0,0
191186,571.508,-207.583,0,0
191446,583.165,-206.665,0,0
191707,594.945,-206.582,0,0
191967,606.792,-206.61,0,0
192227,619.407,-206.699,0,0
192488,632.96,-207.4,0,0
192748,647.206,-208.967,0,0
193008,662.093,-211.537,0,0
193269,677.498,-215.395,0,0
193529,692.928,-220.755,0,0
193789,708.069,-227.387,0,0
194050,722.853,-235.099,0,0
194310,737.236,-243.891,0,0
194570,750.955,-253.722,0,0
194831,763.857,-264.332,0,0
195091,776.123,-275.498,0,0
195351,787.662,-287.354,0,0
195612,798.346,-299.746,0,0
195872,808.154,-312.421,0,0
196132,817.034,-325.064,0,0
196393,825.4,-337.399,0,0
196653,833.644,-349.524,0,0
196913,842.051,-361.564,0,0
197174,850.811,-374.125,0,0
197434,859.608,-387.557,0,0
197694,868.041,-401.872,0,0
197955,875.999,-416.955,0,0
198215,883.558,-432.88,0,0
198475,890.168,-449.948,0,0
198735,895.473,-467.606,0,0
198996,899.429,-485.62,0,0
199256,902.007,-503.544,0,0
199516,903.724,-520.973,0,0
199777,904.865,-538.122,0,0
200037,905.632,-555.128,0,0
200297,906.097,-572.641,0,0
200558,905.623,-590.565,0,0
200818,904.094,-608.669,0,0
201078,901.283,-626.965,0,0
201339,897.081,-644.792,0,0
201599,892.052,-662.035,0,0
201859,886.211,-678.607,0,0
202120,879.717,-694.807,0,0
202380.025,872.597,-710.456,0,0
202640.35,864.998,-726.035,0,0
202900.675,856.087,-741.273,0,0
203161.0,845.831,-755.733,0,0
203421.325,834.618,-768.55,0,0
203681.65,823.34,-779.627,0,0
203941.975,812.833,-789.397,0,0
204202.3,802.973,-799.112,0,0
204462.625,793.27,-808.727,0,0
204722.95,783.611,-818.649,0,0
204983.275,772.953,-828.455,0,0
205243.6,761.357,-837.938,0,0
205503.925,749.024,-846.526,0,0
205764.25,736.325,-853.367,0,0
206024.575,724.196,-859.343,0,0
206284.9,712.042,-864.852,0,0
206545.225,699.703,-869.531,0,0
206805.55,687.737,-872.839,0,0
207065.875,676.502,-875.668,0,0
207326.2,665.869,-878.004,0,0
207586.525,655.371,-880.096,0,0
207846.85,645.303,-881.542,0,0
208107.175,635.98,-882.34,0,0
208367.5,627.762,-883.158,0,0
208627.825,620.093,-884.414,0,0
208888.15,612.658,-885.965,0,0
209148.475,605.57,-887.844,0,0
209408.8,598.579,-890.339,0,0
209669.125,591.068,-893.577,0,0
209929.45,582.565,-896.644,0,0
210189.775,573.49,-899.231,0,0
210450.1,564.489,-901.118,0,0
210710.425,555.373,-902.911,0,0
210970.75,545.989,-904.318,0,0
211231.075,536.412,-905.282,0,0
211491.4,526.47,-905.659,0,0
211751.725,516.55,-905.004,0,0
212012.05,507.201,-903.521,0,0
212272.375,498.541,-901.621,0,0
212532.7,490.477,-899.659,0,0
212793.025,482.652,-897.748,0,0
213053.35,474.893,-895.661,0,0
213313.675,467.27,-893.198,0,0
213574.0,460.092,-890.385,0,0
213834.325,453.292,-887.428,0,0
214094.65,446.838,-884.349,0,0
214354.975,440.702,-881.168,0,0
214615.3,435.08,-878.001,0,0
214875.625,429.652,-875.081,0,0
215135.95,424.258,-872.017,0,0
215396.275,419.066,-868.873,0,0
215656.6,413.945,-865.6,0,0
215916.925,409.216,-862.189,0,0
216177.25,404.766,-858.793,0,0
216437.575,400.538,-855.358,0,0
216697.9,396.599,-851.883,0,0
216958.225,392.854,-848.501,0,0
217218.55,389.279,-844.999,0,0
217478.875,386.081,-841.593,0,0
217739.2,383.089,-838.269,0,0
217999.525,380.272,-834.963,0,0
218259.85,377.662,-831.8,0,0
218520,375.204,-828.707,0,0
218780,372.912,-825.722,0,0
219041,370.739,-822.722,0,0
219301,368.791,-819.844,0,0
219561,366.987,-817.05,0,0
219822,365.388,-814.383,0,0
220082,363.883,-811.944,0,0
220342,362.501,-809.574,0,0
220603,361.033,-807.319,0,0
220863,359.549,-805.065,0,0
221123,358.238,-802.795,0,0
221384,357.094,-800.537,0,0
221644,356.096,-798.368,0,0
221904,355.371,-796.253,0,0
222165,354.796,-794.25,0,0
222425,354.485,-792.579,0,0
222685,354.256,-791.169,0,0
222946,354.001,-790.263,0,0
223206,353.583,-789.548,0,0
223466,352.918,-789.043,0,0
223727,352.009,-788.452,0,0
223987,350.954,-787.857,0,0
224247,350.028,-787.113,0,0
224508,348.983,-786.468,0,0
224768,347.845,-785.796,0,0
225028,346.728,-785.141,0,0
225289,345.637,-784.211,0,0
225549,344.791,-783.199,0,0
225809,344.164,-782.306,0,0
226070,343.706,-781.548,0,0
226330,343.24,-780.937,0,0
226590,342.893,-780.342,0,0
226851,342.725,-779.925,0,0
227111,342.594,-779.768,0,0
227371,342.477,-779.776,0,0
227632,342.395,-779.933,0,0
227892,342.441,-780.355,0,0
228152,342.446,-781.114,0,0
228413,342.266,-782.157,0,0
228673,341.932,-783.419,0,0
228933,341.35,-784.969,0,0
229193,340.478,-786.662,0,0
229454,339.225,-788.435,0,0
229714,337.803,-790.289,0,0
229974,336.03,-792.099,0,0
230235,334.002,-793.895,0,0
230495,331.728,-795.442,0,0
230755,329.333,-797.038,0,0
231016,326.655,-798.366,0,0
231276,323.839,-799.482,0,0
231536,321.122,-800.487,0,0
231797,318.353,-801.421,0,0
232057,315.48,-802.333,0,0
232317,312.466,-803.146,0,0
232578,309.383,-803.769,0,0
232838,306.34,-804.288,0,0
233098,303.196,-804.815,0,0
233359,299.988,-805.19,0,0
233619,296.757,-805.41,0,0
233879,293.521,-805.481,0,0
234140,290.374,-805.469,0,0
234400,287.197,-805.512,0,0
234660.3,283.923,-805.391,0,0
234920.625,280.791,-805.204,0,0
235180.95,277.473,-804.852,0,0
235441.275,274.362,-804.523,0,0
235701.6,271.15,-804.171,0,0
235961.925,267.85,-803.68,0,0
236222.25,264.67,-803.166,0,0
236482.575,261.375,-802.573,0,0
236742.9,258.143,-801.912,0,0
237003.225,254.82,-801.141,0,0
237263.55,251.448,-800.314,0,0
237523.875,248.103,-799.275,0,0
237784.2,244.828,-798.054,0,0
238044.525,241.603,-796.903,0,0
238304.85,238.503,-795.595,0,0
238565.175,235.437,-794.217,0,0
238825.5,232.323,-792.734,0,0
239085.825,229.301,-791.161,0,0
239346.15,226.268,-789.574,0,0
239606.475,223.373,-787.829,0,0
239866.8,220.536,-785.979,0,0
240127.125,217.846,-784.176,0,0
240387.45,215.255,-782.263,0,0
240647.775,212.845,-780.331,0,0
240908.1,210.352,-778.471,0,0
241168.425,208.042,-776.481,0,0
241428.75,205.769,-774.561,0,0
241689.075,203.517,-772.612,0,0
241949.4,201.322,-770.603,0,0
242209.725,199.276,-768.544,0,0
242470.05,197.334,-766.464,0,0
242730.375,195.572,-764.456,0,0
242990.7,193.866,-762.578,0,0
243251.025,192.179,-760.727,0,0
243511.35,190.562,-758.967,0,0
243771.675,188.919,-757.219,0,0
244032.0,187.382,-755.566,0,0
244292.325,185.84,-753.949,0,0
244552.65,184.241,-752.421,0,0
244812.975,182.854,-750.938,0,0
245073.3,181.307,-749.554,0,0
245333.625,179.71,-748.276,0,0
245593.95,178.135,-747.189,0,0
245854.275,176.446,-746.177,0,0
246114.6,174.591,-745.248,0,0
246374.925,172.411,-744.434,0,0
246635.25,170.025,-743.533,0,0
246895.575,167.248,-742.406,0,0
247155.9,164.519,-740.911,0,0
247416.225,161.694,-739.278,0,0
247676.55,158.875,-737.403,0,0
247936.875,156.097,-735.257,0,0
248197.2,153.463,-732.987,0,0
248457.525,150.943,-730.587,0,0
248717.85,148.509,-728.169,0,0
248978.175,146.137,-725.616,0,0
249238.5,143.766,-723.014,0,0
249498.825,141.544,-720.256,0,0
249759.15,139.353,-717.355,0,0
250019.475,137.269,-714.46,0,0
250279.8,135.19,-711.464,0,0
250540,133.264,-708.393,0,0
250800,131.381,-705.102,0,0
251061,129.692,-701.745,0,0
251321,128.189,-698.271,0,0
251581,126.943,-694.819,0,0
251842,125.797,-691.346,0,0
252102,124.848,-687.908,0,0
252362,124.03,-684.518,0,0
252623,123.37,-681.16,0,0
252883,122.721,-677.95,0,0
253143,122.193,-674.752,0,0
253404,121.69,-671.595,0,0
253664,121.214,-668.4,0,0
253924,120.847,-665.231,0,0
254185,120.543,-662.09,0,0
254445,120.366,-658.989,0,0
254705,120.217,-655.847,0,0
254966,120.074,-652.768,0,0
255226,120.035,-649.599,0,0
255486,120.134,-646.442,0,0
255747,120.313,-643.272,0,0
256007,120.647,-640.136,0,0
256267,121.097,-637.016,0,0
256528,121.702,-634.004,0,0
256788,122.396,-631.06,0,0
257048,123.182,-628.148,0,0
257309,124.025,-625.369,0,0
257569,124.915,-622.681,0,0
257829,125.873,-620.033,0,0
258090,126.849,-617.459,0,0
258350,127.889,-614.919,0,0
258610,128.991,-612.43,0,0
258871,130.144,-609.99,0,0
259131,131.417,-607.542,0,0
259391,132.755,-605.15,0,0
259651,134.237,-602.902,0,0
259912,135.784,-600.735,0,0
260172,137.426,-598.715,0,0
260432,139.071,-596.801,0,0
260693,140.782,-594.981,0,0
260953,142.507,-593.325,0,0
261213,144.235,-591.749,0,0
261474,145.987,-590.264,0,0
261734,147.761,-588.869,0,0
261994,149.549,-587.595,0,0
262255,151.358,-586.424,0,0
262515,153.154,-585.34,0,0
262775,154.957,-584.371,0,0
263036,156.769,-583.518,0,0
263296,158.562,-582.807,0,0
263556,160.283,-582.173,0,0
263817,161.986,-581.64,0,0
264077,163.669,-581.188,0,0
264337,165.302,-580.818,0,0
264598,166.951,-580.555,0,0
264858,168.517,-580.351,0,0
265118,170.037,-580.367,0,0
265379,171.496,-580.431,0,0
265639,172.779,-580.571,0,0
265899,173.97,-580.73,0,0
266160,175.067,-580.918,0,0
266420,176.08,-581.11,0,0
266680.25,177.045,-581.282,0,0
266940.575,177.964,-581.506,0,0
267200.9,178.832,-581.693,0,0
267461.225,179.722,-581.948,0,0
267721.55,180.507,-582.265,0,0
267981.875,181.26,-582.586,0,0
268242.2,181.898,-582.955,0,0
268502.525,182.473,-583.386,0,0
268762.85,182.875,-583.836,0,0
269023.175,183.145,-584.226,0,0
269283.5,183.263,-584.518,0,0
269543.825,183.308,-584.658,0,0
269804.15,183.335,-584.702,0,0
270064.475,183.402,-584.589,0,0
270324.8,183.498,-584.433,0,0
270585.125,183.561,-584.16,0,0
270845.45,183.695,-583.767,0,0
271105.775,183.928,-583.286,0,0
271366.1,184.295,-582.757,0,0
271626.425,184.739,-582.201,0,0
271886.75,185.245,-581.616,0,0
272147.075,185.88,-580.938,0,0
272407.4,186.675,-580.192,0,0
272667.725,187.693,-579.525,0,0
272928.05,188.89,-578.849,0,0
273188.375,190.287,-578.324,0,0
273448.7,191.892,-577.94,0,0
273709.025,193.595,-577.682,0,0
273969.35,195.462,-577.587,0,0
274229.675,197.547,-577.687,0,0
274490.0,199.793,-578.073,0,0
274750.325,202.119,-578.822,0,0
275010.65,204.531,-579.952,0,0
275270.975,207.001,-581.555,0,0
275531.3,209.297,-583.585,0,0
275791.625,211.384,-586.127,0,0
276051.95,213.091,-589.051,0,0
276312.275,214.373,-592.294,0,0
276572.6,215.188,-595.743,0,0
276832.925,215.461,-599.309,0,0
277093.25,215.237,-602.847,0,0
277353.575,214.555,-606.267,0,0
277613.9,213.532,-609.531,0,0
277874.225,212.182,-612.626,0,0
278134.55,210.554,-615.503,0,0
278394.875,208.695,-618.146,0,0
278655.2,206.662,-620.587,0,0
278915.525,204.474,-622.805,0,0
279175.85,202.2,-624.805,0,0
279436.175,199.794,-626.632,0,0
279696.5,197.232,-628.329,0,0
279956.825,194.653,-629.699,0,0
280217.15,191.905,-630.943,0,0
280477.475,189.23,-631.853,0,0
280737.8,186.656,-632.543,0,0
280998.125,184.211,-633.158,0,0
281258.45,181.805,-633.757,0,0
281518.775,179.399,-634.394,0,0
281779.1,176.808,-635.052,0,0
282039.425,174.095,-635.585,0,0
282299.75,171.247,-635.945,0,0
282560,168.303,-636.107,0,0
282820,165.24,-635.98,0,0
283081,162.208,-635.551,0,0
283341,159.277,-634.819,0,0
283601,156.582,-633.807,0,0
283862,154.191,-632.671,0,0
284122,152.09,-631.585,0,0
284382,150.144,-630.712,0,0
284643,148.193,-630.037,0,0
284903,146.074,-629.482,0,0
285163,143.735,-628.856,0,0
285424,141.155,-628.195,0,0
285684,138.412,-627.236,0,0
285944,135.619,-626.038,0,0
286205,132.8,-624.526,0,0
286465,129.979,-622.76,0,0
286725,127.244,-620.641,0,0
286986,124.664,-618.242,0,0
287246,122.261,-615.593,0,0
287506,120.085,-612.689,0,0
287767,118.157,-609.573,0,0
288027,116.485,-606.278,0,0
288287,115.118,-602.793,0,0
288548,114.064,-599.156,0,0
288808,113.376,-595.38,0,0
289068,113.124,-591.561,0,0
289329,113.33,-587.702,0,0
289589,114.017,-583.932,0,0
289849,115.137,-580.413,0,0
290109,116.576,-577.134,0,0
290370,118.332,-574.083,0,0
290630,120.388,-571.257,0,0
290890,122.773,-568.735,0,0
291151,125.509,-566.623,0,0
291411,128.481,-564.968,0,0
291671,131.569,-563.896,0,0
291932,134.688,-563.362,0,0
292192,137.728,-563.419,0,0
292452,140.564,-564.027,0,0
292713,143.056,-565.135,0,0
292973,145.106,-566.626,0,0
293233,146.647,-568.374,0,0
293494,147.681,-570.239,0,0
293754,148.197,-572.122,0,0
294014,148.234,-573.861,0,0
294275,147.874,-575.329,0,0
294535,147.205,-576.411,0,0
294795,146.432,-577.061,0,0
295056,145.737,-577.239,0,0
295316,145.269,-577.116,0,0
295576,145.246,-576.77,0,0
295837,145.666,-576.458,0,0
296097,146.57,-576.377,0,0
296357,147.816,-576.807,0,0
296618,149.12,-577.927,0,0
296878,150.11,-579.69,0,0
297138,150.586,-581.885,0,0
297399,150.444,-584.304,0,0
297659,149.687,-586.689,0,0
297919,148.398,-588.85,0,0
298180,146.774,-590.705,0,0
298440,144.892,-592.198,0,0
298700.2,142.878,-593.366,0,0
298960.525,140.8,-594.255,0,0
299220.85,138.752,-594.85,0,0
299481.175,136.726,-595.249,0,0
299741.5,134.748,-595.499,0,0
300001.825,132.785,-595.607,0,0
300262.15,130.853,-595.554,0,0
300522.475,128.923,-595.382,0,0
300782.8,127.052,-594.997,0,0
301043.125,125.288,-594.458,0,0
301303.45,123.671,-593.762,0,0
301563.775,122.247,-592.968,0,0
301824.1,121.037,-592.148,0,0
302084.425,120.046,-591.387,0,0
302344.75,119.176,-590.73,0,0
302605.075,118.415,-590.204,0,0
302865.4,117.693,-589.874,0,0
303125.725,116.933,-589.633,0,0
303386.05,116.099,-589.499,0,0
303646.375,115.212,-589.424,0,0
303906.7,114.237,-589.402,0,0
304167.025,113.197,-589.463,0,0
304427.35,112.05,-589.554,0,0
304687.675,110.755,-589.622,0,0
304948.0,109.344,-589.649,0,0
305208.325,107.792,-589.612,0,0
305468.65,106.165,-589.462,0,0
305728.975,104.508,-589.18,0,0
305989.3,102.806,-588.787,0,0
306249.625,101.106,-588.302,0,0
306509.95,99.4106,-587.724,0,0
306770.275,97.7201,-587.039,0,0
307030.6,96.0265,-586.265,0,0
307290.925,94.3709,-585.38,0,0
307551.25,92.7852,-584.402,0,0
307811.575,91.2878,-583.355,0,0
308071.9,89.8446,-582.268,0,0
308332.225,88.4763,-581.146,0,0
308592.55,87.1663,-580.015,0,0
308852.875,85.894,-578.855,0,0
309113.2,84.7049,-577.659,0,0
309373.525,83.5513,-576.503,0,0
309633.85,82.4646,-575.341,0,0
309894.175,81.3512,-574.204,0,0
310154.5,80.238,-573.067,0,0
310414.825,79.1374,-571.906,0,0
310675.15,78.0431,-570.685,0,0
310935.475,76.967,-569.418,0,0
311195.8,75.9626,-568.123,0,0
311456.125,75.0002,-566.819,0,0
311716.45,74.0921,-565.492,0,0
311976.775,73.2116,-564.167,0,0
312237.1,72.3778,-562.841,0,0
312497.425,71.5865,-561.499,0,0
312757.75,70.8216,-560.161,0,0
313018.075,70.1179,-558.822,0,0
313278.4,69.4457,-557.505,0,0
313538.725,68.7997,-556.228,0,0
313799.05,68.189,-554.948,0,0
314059.375,67.5667,-553.676,0,0
314319.7,66.9702,-552.44,0,0
314580,66.3743,-551.191,0,0
314840,65.7645,-549.975,0,0
315101,65.1913,-548.706,0,0
315361,64.6325,-547.337,0,0
315621,64.0369,-546.158,0,0
315882,63.5554,-544.791,0,0
316142,63.0016,-543.493,0,0
316402,62.5973,-542.207,0,0
316663,62.0593,-540.864,0,0
316923,61.6478,-539.543,0,0
317183,61.2684,-538.242,0,0
317444,60.8858,-536.899,0,0
317704,60.6386,-535.662,0,0
317964,60.3569,-534.408,0,0
318225,60.0429,-533.103,0,0
318485,59.813,-531.903,0,0
318745,59.5931,-530.682,0,0
319006,59.3238,-529.511,0,0
319266,59.0872,-528.302,0,0
319526,58.8827,-527.197,0,0
319787,58.6099,-526,0,0
320047,58.4934,-524.841,0,0
320307,58.2473,-523.686,0,0
320567,58.1142,-522.489,0,0
320828,57.9215,-521.343,0,0
321088,57.7043,-520.208,0,0
321348,57.4633,-519.083,0,0
321609,57.2882,-517.945,0,0
321869,57.1533,-516.751,0,0
322129,56.9681,-515.596,0,0
322390,56.8276,-514.439,0,0
322650,56.7402,-513.263,0,0
322910,56.6009,-512.033,0,0
323171,56.4865,-510.886,0,0
323431,56.3533,-509.754,0,0
323691,56.3083,-508.522,0,0
323952,56.2008,-507.212,0,0
324212,56.1491,-505.933,0,0
324472,56.1502,-504.625,0,0
324733,56.2991,-503.256,0,0
324993,56.4131,-501.945,0,0
325253,56.6584,-500.59,0,0
325514,57.0029,-499.199,0,0
325774,57.4206,-497.959,0,0
326034,57.9172,-496.685,0,0
326295,58.5403,-495.504,0,0
326555,59.1775,-494.483,0,0
326815,59.8817,-493.608,0,0
327076,60.5679,-492.828,0,0
327336,61.2582,-492.1,0,0
327596,61.8323,-491.457,0,0
327857,62.3675,-490.931,0,0
328117,62.855,-490.425,0,0
328377,63.3549,-489.902,0,0
328638,63.742,-489.474,0,0
328898,64.1359,-489.124,0,0
329158,64.5007,-488.638,0,0
329419,64.9033,-488.225,0,0
329679,65.2892,-487.799,0,0
329939,65.6437,-487.463,0,0
330200,66.0434,-487.127,0,0
330460,66.3434,-486.892,0,0
330720.15,66.6601,-486.749,0,0
330980.475,66.982,-486.627,0,0
331240.8,67.2109,-486.519,0,0
331501.125,67.3016,-486.506,0,0
331761.45,67.4397,-486.48,0,0
332021.775,67.3579,-486.508,0,0
332282.1,67.3131,-486.551,0,0
332542.425,67.0738,-486.58,0,0
332802.75,66.8161,-486.568,0,0
333063.075,66.4616,-486.509,0,0
333323.4,66.0283,-486.407,0,0
333583.725,65.5421,-486.298,0,0
333844.05,65.0386,-486.062,0,0
334104.375,64.5038,-485.644,0,0
334364.7,63.9261,-485.353,0,0
334625.025,63.4366,-484.819,0,0
334885.35,62.8936,-484.397,0,0
335145.675,62.3186,-483.737,0,0
335406.0,61.884,-483.227,0,0
335666.325,61.4029,-482.604,0,0
335926.65,61.0033,-481.985,0,0
336186.975,60.5757,-481.325,0,0
336447.3,60.1544,-480.676,0,0
336707.625,59.7656,-479.962,0,0
336967.95,59.4191,-479.247,0,0
337228.275,59.0103,-478.525,0,0
337488.6,58.7474,-477.75,0,0
337748.925,58.4198,-477.025,0,0
338009.25,58.0613,-476.301,0,0
338269.575,57.7541,-475.533,0,0
338529.9,57.4686,-474.783,0,0
338790.225,57.2111,-474.041,0,0
339050.55,56.9516,-473.264,0,0
339310.875,56.6659,-472.442,0,0
339571.2,56.3795,-471.639,0,0
339831.525,56.1324,-470.845,0,0
340091.85,55.9029,-470.011,0,0
340352.175,55.682,-469.166,0,0
340612.5,55.5027,-468.408,0,0
340872.825,55.2514,-467.487,0,0
341133.15,55.1691,-466.618,0,0
341393.475,54.9923,-465.748,0,0
341653.8,54.8602,-464.901,0,0
341914.125,54.7382,-464.054,0,0
342174.45,54.6557,-463.242,0,0
342434.775,54.515,-462.337,0,0
342695.1,54.393,-461.465,0,0
342955.425,54.3693,-460.591,0,0
343215.75,54.2359,-459.685,0,0
343476.075,54.221,-458.777,0,0
343736.4,54.2605,-457.86,0,0
343996.725,54.2593,-456.947,0,0
344257.05,54.2999,-456.076,0,0
344517.375,54.3082,-455.198,0,0
344777.7,54.4228,-454.291,0,0
345038.025,54.5593,-453.396,0,0
345298.35,54.6729,-452.484,0,0
345558.675,54.8472,-451.656,0,0
345819.0,54.9714,-450.82,0,0
346079.325,55.1868,-449.968,0,0
346339.65,55.3621,-449.162,0,0
346599.975,55.5625,-448.364,0,0
346860,55.8212,-447.587,0,0
347121,56.0654,-446.827,0,0
347381,56.2939,-446.024,0,0
347641,56.5781,-445.34,0,0
347902,56.8437,-444.561,0,0
348162,57.1112,-443.84,0,0
348422,57.402,-443.159,0,0
348683,57.6869,-442.499,0,0
348943,58.0126,-441.83,0,0
349203,58.3604,-441.191,0,0
349464,58.6744,-440.55,0,0
349724,58.989,-439.929,0,0
349984,59.348,-439.362,0,0
350245,59.6769,-438.826,0,0
350505,60.0161,-438.27,0,0
350765,60.3633,-437.773,0,0
351025,60.6749,-437.326,0,0
351286,61.0523,-436.828,0,0
351546,61.2883,-436.391,0,0
351806,61.5914,-436.002,0,0
352067,61.8346,-435.543,0,0
352327,62.1021,-435.152,0,0
352587,62.3174,-434.709,0,0
352848,62.535,-434.225,0,0
353108,62.7631,-433.823,0,0
353368,62.9913,-433.381,0,0
353629,63.2287,-432.951,0,0
353889,63.4783,-432.449,0,0
354149,63.7537,-432.121,0,0
354410,63.9756,-431.64,0,0
354670,64.2114,-431.229,0,0
354930,64.477,-430.806,0,0
355191,64.7556,-430.417,0,0
355451,65.0261,-429.97,0,0
355711,65.2717,-429.611,0,0
355972,65.5004,-429.19,0,0
356232,65.7968,-428.808,0,0
356492,66.0642,-428.404,0,0
356753,66.414,-428.053,0,0
357013,66.7451,-427.666,0,0
357273,67.0405,-427.319,0,0
357534,67.3528,-426.981,0,0
357794,67.7449,-426.652,0,0
358054,68.1078,-426.377,0,0
358315,68.447,-426.107,0,0
358575,68.8628,-425.928,0,0
358835,69.2063,-425.698,0,0
359096,69.6087,-425.548,0,0
359356,69.9584,-425.448,0,0
359616,70.2688,-425.412,0,0
359877,70.5641,-425.381,0,0
360137,70.8589,-425.382,0,0
360397,71.1225,-425.358,0,0
360658,71.3476,-425.387,0,0
360918,71.4587,-425.461,0,0
361178,71.6165,-425.446,0,0
361438,71.7379,-425.576,0,0
361699,71.7571,-425.64,0,0
361959,71.7883,-425.687,0,0
362219,71.7597,-425.743,0,0
362480,71.7527,-425.749,0,0
362740.1,71.7075,-425.723,0,0
363000.425,71.6138,-425.766,0,0
363260.75,71.5481,-425.714,0,0
363521.075,71.4487,-425.678,0,0
363781.4,71.2802,-425.634,0,0
364041.725,71.1505,-425.511,0,0
364302.05,71.0607,-425.471,0,0
364562.375,70.9228,-425.39,0,0
364822.7,70.7903,-425.333,0,0
365083.025,70.608,-425.219,0,0
365343.35,70.4306,-425.08,0,0
365603.675,70.2421,-424.961,0,0
365864.0,70.0069,-424.814,0,0
366124.325,69.8134,-424.605,0,0
366384.65,69.6305,-424.373,0,0
366644.975,69.4371,-424.142,0,0
366905.3,69.2443,-423.873,0,0
367165.625,69.0864,-423.593,0,0
367425.95,68.9751,-423.353,0,0
367686.275,68.8378,-423.035,0,0
367946.6,68.7677,-422.735,0,0
368206.925,68.7545,-422.432,0,0
368467.25,68.7385,-422.107,0,0
368727.575,68.7449,-421.884,0,0
368987.9,68.7841,-421.719,0,0
369248.225,68.8692,-421.564,0,0
369508.55,68.9062,-421.479,0,0
369768.875,68.8897,-421.461,0,0
370029.2,68.8425,-421.47,0,0
370289.525,68.7109,-421.507,0,0
370549.85,68.5196,-421.487,0,0
370810.175,68.3194,-421.439,0,0
371070.5,68.0843,-421.414,0,0
371330.825,67.8187,-421.323,0,0
371591.15,67.5056,-421.152,0,0
371851.475,67.2256,-421.046,0,0
372111.8,66.9159,-420.849,0,0
372372.125,66.6511,-420.643,0,0
372632.45,66.4091,-420.399,0,0
372892.775,66.223,-420.141,0,0
373153.1,65.9946,-419.965,0,0
373413.425,65.8198,-419.697,0,0
373673.75,65.6448,-419.554,0,0
373934.075,65.4623,-419.357,0,0
374194.4,65.294,-419.265,0,0
374454.725,65.0666,-419.18,0,0
374715.05,64.8131,-419.082,0,0
374975.375,64.4885,-418.994,0,0
375235.7,64.1524,-418.867,0,0
375496.025,63.7509,-418.735,0,0
375756.35,63.3693,-418.572,0,0
376016.675,63.0118,-418.327,0,0
376277.0,62.6004,-418.087,0,0
376537.325,62.2259,-417.843,0,0
376797.65,61.838,-417.556,0,0
377057.975,61.5302,-417.263,0,0
377318.3,61.1709,-416.98,0,0
377578.625,60.8709,-416.723,0,0
377838.95,60.6111,-416.452,0,0
378099.275,60.2429,-416.184,0,0
378359.6,59.9377,-416.02,0,0
378619.925,59.5124,-415.819,0,0
378880,59.1105,-415.713,0,0
379141,58.5569,-415.474,0,0
379401,57.9002,-415.225,0,0
379661,57.2638,-414.849,0,0
379922,56.6024,-414.344,0,0
380182,55.9816,-413.761,0,0
380442,55.4552,-413.086,0,0
380703,54.9798,-412.284,0,0
380963,54.6545,-411.437,0,0
381223,54.5748,-410.669,0,0
381483,54.5163,-410.02,0,0
381744,54.564,-409.419,0,0
382004,54.5921,-408.958,0,0
382264,54.5777,-408.614,0,0
382525,54.531,-408.41,0,0
382785,54.3959,-408.195,0,0
383045,54.1252,-407.991,0,0
383306,53.8668,-407.752,0,0
383566,53.5572,-407.541,0,0
383826,53.1687,-407.272,0,0
384087,52.7033,-406.983,0,0
384347,52.2884,-406.657,0,0
384607,51.7979,-406.237,0,0
384868,51.3293,-405.833,0,0
385128,50.7906,-405.368,0,0
385388,50.3103,-404.824,0,0
385649,49.8695,-404.278,0,0
385909,49.4618,-403.682,0,0
386169,49.0237,-403.07,0,0
386430,48.6362,-402.415,0,0
386690,48.2452,-401.75,0,0
386950,47.9299,-401.098,0,0
387211,47.6535,-400.408,0,0
387471,47.3137,-399.734,0,0
387731,47.0384,-399.033,0,0
387992,46.8358,-398.367,0,0
388252,46.5837,-397.642,0,0
388512,46.3774,-396.966,0,0
388773,46.1633,-396.257,0,0
389033,46.0379,-395.531,0,0
389293,45.887,-394.824,0,0
389554,45.794,-394.098,0,0
389814,45.7022,-393.426,0,0
390074,45.6692,-392.768,0,0
390335,45.6227,-392.143,0,0
390595,45.6248,-391.535,0,0
390855,45.6551,-390.959,0,0
391116,45.6781,-390.384,0,0
391376,45.6632,-389.964,0,0
391636,45.6372,-389.499,0,0
391896,45.5881,-389.099,0,0
392157,45.4962,-388.713,0,0
392417,45.3634,-388.345,0,0
392677,45.15,-387.951,0,0
392938,44.9268,-387.584,0,0
393198,44.6248,-387.13,0,0
393458,44.3523,-386.693,0,0
393719,43.9859,-386.182,0,0
393979,43.6265,-385.644,0,0
394239,43.2818,-385.058,0,0
394500,42.9375,-384.444,0,0
394760.05,42.5534,-383.765,0,0
395020.375,42.2202,-383.033,0,0
395280.7,41.9012,-382.249,0,0
395541.025,41.6501,-381.438,0,0
395801.35,41.4504,-380.605,0,0
396061.675,41.2632,-379.753,0,0
396322.0,41.1256,-378.89,0,0
396582.325,41.0082,-378.052,0,0
396842.65,40.9241,-377.229,0,0
397102.975,40.9024,-376.358,0,0
397363.3,40.8681,-375.56,0,0
397623.625,40.8955,-374.71,0,0
397883.95,40.9387,-373.882,0,0
398144.275,40.9997,-373.106,0,0
398404.6,41.07,-372.314,0,0
398664.925,41.207,-371.567,0,0
398925.25,41.3144,-370.752,0,0
399185.575,41.4259,-370.043,0,0
399445.9,41.5554,-369.326,0,0
399706.225,41.7115,-368.617,0,0
399966.55,41.8625,-367.899,0,0
400006.6,41.889,-367.807,0,0