File: Accelerated corrosion test data/2025-10-13_06-00-03/sample_6.csv
Frequency (Hz),Impedance (ohms),Phase (Radians),Temperature (C),Humidity (%)
10000.0,4142.69,-6698.41,0,0
10260.325,4004.98,-6615.76,0,0
10520.65,3873.28,-6532.09,0,0
10780.975,3747.6,-6449.03,0,0
11041.3,3628.35,-6367.07,0,0
11301.625,3514.36,-6286.54,0,0
11561.95,3405.66,-6207.64,0,0
11822.275,3301.66,-6129.36,0,0
12082.6,3201.79,-6051.9,0,0
12342.925,3106.94,-5975.78,0,0
12603.25,3018.5,-5899.08,0,0
12863.575,2930.7,-5825.91,0,0
13123.9,2850.24,-5755.11,0,0
13384.225,2768.88,-5686.15,0,0
13644.55,2691.36,-5616.34,0,0
13904.875,2617.32,-5547.91,0,0
14165.2,2546.53,-5480.52,0,0
14425.525,2479.23,-5414.17,0,0
14685.8,2413.55,-5348.88,0,0
14946.175,2352.04,-5284.68,0,0
15206.5,2291.4,-5222.52,0,0
15466.825,2234.12,-5160.72,0,0
15727.15,2178.37,-5100.54,0,0
15987.5,2125.12,-5041.29,0,0
16247.8,2073.32,-4983.49,0,0
16508.125,2023.59,-4926.5,0,0
16768.45,1975.67,-4870.29,0,0
17028.775,1930.14,-4815.38,0,0
17289.1,1885.65,-4762.6,0,0
17549.425,1842.67,-4709.57,0,0
17809.75,1800.59,-4657.39,0,0
18070.075,1760.69,-4605.99,0,0
18330.4,1721.92,-4556.2,0,0
18590.725,1684.7,-4507.24,0,0
18851.05,1649.52,-4458.35,0,0
19111.375,1614.47,-4412.13,0,0
19371.7,1581.14,-4365.87,0,0
19632.025,1547.94,-4320.96,0,0
19892.35,1515.51,-4276.17,0,0
20152.675,1485.43,-4232.03,0,0
20413.0,1455.1,-4190.14,0,0
20673.3,1426.2,-4148.27,0,0
20933.65,1397.92,-4106.07,0,0
21193.975,1370.92,-4065.08,0,0
21454.3,1345.01,-4024.74,0,0
21714.625,1319.6,-3985.66,0,0
21974.9,1295.12,-3947.01,0,0
22235.275,1270.2,-3908.72,0,0
22495.6,1246.93,-3870.77,0,0
22755.925,1225.29,-3833.14,0,0
23016.25,1205.47,-3797.08,0,0
23276.6,1185.18,-3763.07,0,0
23536.9,1164.44,-3729.59,0,0
23797.225,1143.62,-3695.83,0,0
24057.55,1121.87,-3662.42,0,0
24317.875,1103.39,-3629.86,0,0
24578.2,1084.65,-3597.12,0,0
24838.525,1066.22,-3564.96,0,0
25098.85,1048.09,-3533.4,0,0
25359.175,1030.92,-3502.57,0,0
25619.5,1014.3,-3472.01,0,0
25879.8,997.901,-3441.89,0,0
26140.1,981.164,-3412.94,0,0
26400.5,965.979,-3383.36,0,0
26660.8,951.145,-3354.46,0,0
26921.1,936.398,-3325.82,0,0
27181.4,922.468,-3298.3,0,0
27441.8,908.562,-3270.65,0,0
27702.1,895.09,-3243.75,0,0
27962.4,882.148,-3217.98,0,0
28222.7,868.515,-3192.16,0,0
28483.1,855.432,-3166.28,0,0
28743.4,842.567,-3140.83,0,0
29003.7,829.908,-3115.2,0,0
29264,818.328,-3090.05,0,0
29524.4,807.222,-3064.85,0,0
29784.7,796.196,-3040.66,0,0
30045,785.85,-3016.91,0,0
30305.3,775.582,-2993.52,0,0
30565.7,765.726,-2970.82,0,0
30826,755.276,-2948.26,0,0
31086.3,745.849,-2925.72,0,0
31346.6,735.482,-2904.06,0,0
31607,726.18,-2881.9,0,0
31867.3,717.562,-2860.37,0,0
32127.6,708.812,-2839,0,0
32387.9,700.723,-2817.83,0,0
32648.3,693.218,-2797.71,0,0
32908.6,685.999,-2778.19,0,0
33168.9,678.228,-2759.87,0,0
33429.2,670.746,-2741.69,0,0
33689.6,662.343,-2723.9,0,0
33949.9,653.685,-2706.16,0,0
34210.2,644.343,-2688.1,0,0
34470.5,635.82,-2669.42,0,0
34730.9,627.888,-2650.23,0,0
34991.2,621.126,-2631.99,0,0
35251.5,613.823,-2614.91,0,0
35511.8,606.877,-2598.12,0,0
35772.2,598.866,-2582.04,0,0
36032.5,590.001,-2564.45,0,0
36292.8,582.609,-2546.33,0,0
36553.1,575.728,-2528.8,0,0
36813.5,569.168,-2511.36,0,0
37073.8,562.937,-2494.18,0,0
37334.1,556.845,-2477.83,0,0
37594.4,550.799,-2461.84,0,0
37854.8,544.378,-2445.72,0,0
38115.1,538.57,-2429.35,0,0
38375.4,532.739,-2413.26,0,0
38635.7,526.916,-2396.91,0,0
38896.1,521.784,-2381.07,0,0
39156.4,516.925,-2365.08,0,0
39416.7,512.675,-2349.68,0,0
39677,508.605,-2334.47,0,0
39937.4,504.576,-2320.04,0,0
40197.7,500.555,-2306.08,0,0
40458,496.513,-2292.24,0,0
40718.3,492.662,-2278.85,0,0
40978.7,488.882,-2265.83,0,0
41239,484.184,-2253.42,0,0
41499.3,479.519,-2240.1,0,0
41759.6,475.661,-2227.11,0,0
42020,471.811,-2215.9,0,0
42280.275,466.225,-2203.74,0,0
42540.6,460.679,-2191.28,0,0
42800.925,454.784,-2178,0,0
43061.25,450.822,-2163.9,0,0
43321.575,447.42,-2150.58,0,0
43581.9,443.871,-2138.31,0,0
43842.225,440.034,-2125.78,0,0
44102.55,436.799,-2112.8,0,0
44362.875,433.875,-2100.44,0,0
44623.2,431.485,-2088.65,0,0
44883.525,428.609,-2077.61,0,0
45143.85,425.501,-2066.08,0,0
45404.175,423.202,-2054.74,0,0
45664.5,420.526,-2044.31,0,0
45924.825,418.077,-2033.81,0,0
46185.15,415.064,-2023.55,0,0
46445.475,412.034,-2013.8,0,0
46705.8,408.454,-2003.79,0,0
46966.125,405.204,-1993.39,0,0
47226.45,402.165,-1983.44,0,0
47486.775,399.324,-1973.41,0,0
47747.1,395.933,-1963.37,0,0
48007.425,393.152,-1953.6,0,0
48267.75,390.75,-1943.82,0,0
48528.075,387.926,-1934.62,0,0
48788.4,385.495,-1924.96,0,0
49048.725,383.092,-1916.2,0,0
49309.05,380.573,-1907.86,0,0
49569.375,377.422,-1899.65,0,0
49829.7,374.588,-1891.27,0,0
50090.025,370.672,-1883.59,0,0
50350.35,367.044,-1874.97,0,0
50610.675,362.732,-1866.46,0,0
50871.0,358.648,-1857.35,0,0
51131.325,355.319,-1848.05,0,0
51391.65,351.714,-1839.05,0,0
51651.975,348.661,-1830.36,0,0
51912.3,345.047,-1821.49,0,0
52172.625,341.493,-1812.37,0,0
52432.95,338.379,-1802.95,0,0
52693.275,335.869,-1793.72,0,0
52953.6,333.534,-1785.3,0,0
53213.925,330.684,-1776.88,0,0
53474.25,327.961,-1768.95,0,0
53734.575,324.256,-1760.62,0,0
53994.9,320.739,-1751.45,0,0
54255.225,318.091,-1742.15,0,0
54515.55,315.908,-1733.05,0,0
54775.875,314.121,-1724.44,0,0
55036.2,312.025,-1716.25,0,0
55296.525,309.904,-1708.15,0,0
55556.85,307.529,-1700.29,0,0
55817.175,305.066,-1692.37,0,0
56077.5,302.536,-1684.2,0,0
56337.825,299.913,-1675.92,0,0
56598.15,297.499,-1667.08,0,0
56858.475,295.902,-1658,0,0
57118.8,294.904,-1649.42,0,0
57379.125,294.18,-1641.21,0,0
57639.45,293.802,-1633.67,0,0
57899.775,293.172,-1626.72,0,0
58160.1,292.316,-1620.06,0,0
58420.4,291.326,-1613.66,0,0
58680.7,290.23,-1607.55,0,0
58941.1,288.713,-1601.53,0,0
59201.4,286.845,-1595.59,0,0
59461.7,284.907,-1589.53,0,0
59722,282.956,-1583.54,0,0
59982.4,280.752,-1577.57,0,0
60242.7,278.161,-1571.43,0,0
60503,276.015,-1565.08,0,0
60763.3,273.841,-1559.04,0,0
61023.7,271.204,-1552.97,0,0
61284,268.29,-1546.99,0,0
61544.3,265.014,-1540.36,0,0
61804.6,261.807,-1533.08,0,0
62065,259.068,-1525.48,0,0
62325.3,256.699,-1517.55,0,0
62585.6,255.091,-1509.24,0,0
62845.9,254.584,-1501.22,0,0
63106.3,254.678,-1494.06,0,0
63366.6,254.697,-1487.88,0,0
63626.9,254.427,-1482.48,0,0
63887.2,253.659,-1477.04,0,0
64147.6,252.735,-1472.56,0,0
64407.9,250.67,-1467.8,0,0
64668.2,248.183,-1462.37,0,0
64928.5,245.801,-1456.6,0,0
65188.9,243.417,-1450.32,0,0
65449.2,241.458,-1444.12,0,0
65709.5,239.725,-1437.72,0,0
65969.8,238.469,-1431.41,0,0
66230.2,237.098,-1425.38,0,0
66490.5,235.82,-1419.4,0,0
66750.8,234.445,-1413.58,0,0
67011.1,233.234,-1407.83,0,0
67271.5,231.913,-1402.12,0,0
67531.8,230.661,-1396.52,0,0
67792.1,229.475,-1390.91,0,0
68052.4,228.228,-1385.29,0,0
68312.8,227.045,-1379.76,0,0
68573.1,225.921,-1374.44,0,0
68833.4,224.81,-1369.09,0,0
69093.7,223.62,-1363.98,0,0
69354.1,222.211,-1358.76,0,0
69614.4,220.878,-1353.67,0,0
69874.7,219.562,-1348.61,0,0
70135,218.269,-1343.48,0,0
70395.4,216.974,-1338.42,0,0
70655.7,215.276,-1333.34,0,0
70916,213.77,-1328.25,0,0
71176.3,212.333,-1323.1,0,0
71436.7,210.819,-1317.97,0,0
71697,209.363,-1312.64,0,0
71957.3,207.88,-1307.33,0,0
72217.6,206.599,-1302.09,0,0
72478,205.445,-1296.75,0,0
72738.3,204.315,-1291.56,0,0
72998.6,203.225,-1286.45,0,0
73258.9,202.09,-1281.3,0,0
73519.3,200.938,-1276.29,0,0
73779.6,199.829,-1271.27,0,0
74039.9,198.807,-1266.24,0,0
74300.225,197.691,-1261.27,0,0
74560.55,196.869,-1256.38,0,0
74820.875,195.939,-1251.64,0,0
75081.2,194.955,-1246.88,0,0
75341.525,194.046,-1242.22,0,0
75601.85,192.933,-1237.52,0,0
75862.175,191.881,-1232.83,0,0
76122.5,190.843,-1228.2,0,0
76382.825,189.774,-1223.54,0,0
76643.15,188.771,-1218.9,0,0
76903.475,187.762,-1214.27,0,0
77163.8,186.699,-1209.63,0,0
77424.125,185.686,-1204.99,0,0
77684.45,184.644,-1200.41,0,0
77944.775,183.685,-1195.81,0,0
78205.1,182.723,-1191.26,0,0
78465.425,181.745,-1186.68,0,0
78725.75,180.77,-1182.11,0,0
78986.075,179.843,-1177.58,0,0
79246.4,178.928,-1173.01,0,0
79506.725,177.944,-1168.52,0,0
79767.05,177.137,-1164.13,0,0
80027.375,176.077,-1159.62,0,0
80287.7,175.193,-1155.17,0,0
80548.025,174.278,-1150.63,0,0
80808.35,173.405,-1146.14,0,0
81068.675,172.498,-1141.71,0,0
81329.0,171.631,-1137.14,0,0
81589.325,170.914,-1132.67,0,0
81849.65,170.075,-1128.14,0,0
82109.975,169.39,-1123.66,0,0
82370.3,168.65,-1119.17,0,0
82630.625,167.997,-1114.75,0,0
82890.95,167.323,-1110.37,0,0
83151.275,166.68,-1105.91,0,0
83411.6,166.035,-1101.46,0,0
83671.925,165.473,-1097.02,0,0
83932.25,164.985,-1092.64,0,0
84192.575,164.445,-1088.04,0,0
84452.9,163.966,-1083.71,0,0
84713.225,163.62,-1079.29,0,0
84973.55,163.361,-1074.78,0,0
85233.875,163.179,-1070.44,0,0
85494.2,163.089,-1066.22,0,0
85754.525,162.892,-1062.08,0,0
86014.85,162.938,-1057.98,0,0
86275.175,162.833,-1053.88,0,0
86535.5,162.741,-1049.83,0,0
86795.825,162.679,-1045.84,0,0
87056.15,162.722,-1041.94,0,0
87316.475,162.667,-1038.14,0,0
87576.8,162.694,-1034.28,0,0
87837.125,162.657,-1030.4,0,0
88097.45,162.711,-1026.59,0,0
88357.775,162.828,-1022.92,0,0
88618.1,162.848,-1019.14,0,0
88878.425,163.196,-1015.42,0,0
89138.75,163.489,-1011.85,0,0
89399.075,163.772,-1008.53,0,0
89659.4,164.135,-1005.2,0,0
89919.725,164.655,-1002.04,0,0
90180,164.936,-999.189,0,0
90440.4,164.986,-996.36,0,0
90700.7,165.195,-993.665,0,0
90961,164.959,-991.184,0,0
91221.3,164.496,-988.72,0,0
91481.7,163.867,-986.114,0,0
91742,162.998,-983.441,0,0
92002.3,161.848,-980.446,0,0
92262.6,160.887,-977.011,0,0
92523,160.401,-973.553,0,0
92783.3,159.79,-970.337,0,0
93043.6,159.01,-966.896,0,0
93303.9,158.42,-963.344,0,0
93564.3,158.018,-959.693,0,0
93824.6,157.805,-956.236,0,0
94084.9,157.549,-952.604,0,0
94345.2,157.538,-949.014,0,0
94605.6,157.627,-945.618,0,0
94865.9,157.662,-942.413,0,0
95126.2,157.703,-939.363,0,0
95386.5,157.604,-935.985,0,0
95646.9,157.911,-932.868,0,0
95907.2,158.203,-930.007,0,0
96167.5,158.279,-927.227,0,0
96427.8,158.28,-924.516,0,0
96688.2,158.264,-921.782,0,0
96948.5,158.175,-919.26,0,0
97208.8,157.854,-916.768,0,0
97469.1,157.31,-914.18,0,0
97729.5,156.828,-911.34,0,0
97989.8,156.285,-908.522,0,0
98250.1,155.703,-905.451,0,0
98510.4,155.325,-902.198,0,0
98770.8,155.196,-898.865,0,0
99031.1,155.303,-895.687,0,0
99291.4,155.585,-892.693,0,0
99551.7,155.847,-889.889,0,0
99812.1,156.035,-887.18,0,0
100072,156.4,-884.458,0,0
100333,156.73,-882.145,0,0
100593,156.993,-879.975,0,0
100853,157.008,-877.947,0,0
101114,156.876,-875.944,0,0
101374,156.395,-873.909,0,0
101634,155.944,-871.64,0,0
101895,155.617,-869.333,0,0
102155,155.195,-867.053,0,0
102415,154.822,-864.752,0,0
102676,154.553,-862.498,0,0
102936,154.328,-860.448,0,0
103196,153.916,-858.537,0,0
103457,153.252,-856.743,0,0
103717,152.46,-854.746,0,0
103977,151.802,-852.807,0,0
104238,150.792,-851.144,0,0
104498,149.394,-849.404,0,0
104758,147.828,-847.372,0,0
105019,146.04,-845.068,0,0
105279,144.335,-842.692,0,0
105539,142.325,-840.122,0,0
105800,140.043,-837.065,0,0
106060,138.084,-833.385,0,0
106320.175,136.393,-829.659,0,0
106580.5,134.815,-825.643,0,0
106840.825,133.664,-821.395,0,0
107101.15,132.731,-817.162,0,0
107361.475,132.17,-812.905,0,0
107621.8,131.76,-808.706,0,0
107882.125,131.598,-804.44,0,0
108142.45,131.725,-800.244,0,0
108402.775,132.115,-796.252,0,0
108663.1,132.588,-792.51,0,0
108923.425,133.18,-789.103,0,0
109183.75,133.499,-785.708,0,0
109444.075,133.732,-782.337,0,0
109704.4,134.083,-778.743,0,0
109964.725,134.733,-775.116,0,0
110225.05,135.592,-771.739,0,0
110485.375,136.319,-768.62,0,0
110745.7,137.077,-765.306,0,0
111006.025,138.089,-762.033,0,0
111266.35,139.202,-758.876,0,0
111526.675,140.368,-755.83,0,0
111787.0,141.964,-753.295,0,0
112047.325,143.448,-751.219,0,0
112307.65,144.567,-749.255,0,0
112567.975,145.59,-747.301,0,0
112828.3,146.452,-745.576,0,0
113088.625,147.233,-743.873,0,0
113348.95,147.667,-742.231,0,0
113609.275,148.023,-740.427,0,0
113869.6,148.419,-738.486,0,0
114129.925,148.727,-736.689,0,0
114390.25,149.052,-734.807,0,0
114650.575,149.384,-732.811,0,0
114910.9,149.935,-730.745,0,0
115171.225,150.553,-728.916,0,0
115431.55,151.08,-727.19,0,0
115691.875,151.923,-725.438,0,0
115952.2,153.071,-724.262,0,0
116212.525,153.861,-723.84,0,0
116472.85,153.861,-723.753,0,0
116733.175,153.311,-723.548,0,0
116993.5,152.27,-723.257,0,0
117253.825,150.615,-722.677,0,0
117514.15,148.535,-721.464,0,0
117774.475,146.449,-719.661,0,0
118034.8,144.423,-717.353,0,0
118295.125,142.588,-714.527,0,0
118555.45,141.228,-711.398,0,0
118815.775,140.27,-708.325,0,0
119076.1,139.263,-705.272,0,0
119336.425,138.412,-702.009,0,0
119596.75,137.781,-698.542,0,0
119857.075,137.587,-695.003,0,0
120117.4,137.724,-691.541,0,0
120377.725,138.196,-688.263,0,0
120638.05,138.904,-685.231,0,0
120898.375,139.853,-682.613,0,0
121158.7,140.767,-680.44,0,0
121419.025,141.404,-678.649,0,0
121679.35,141.725,-676.996,0,0
121939.675,141.768,-675.392,0,0
122200.0,141.484,-673.737,0,0
122460,140.865,-671.812,0,0
122721,140.394,-669.459,0,0
122981,140.165,-666.991,0,0
123241,140.104,-664.548,0,0
123502,140.187,-662.287,0,0
123762,140.155,-660.172,0,0
124022,140.032,-658.018,0,0
124283,139.946,-655.825,0,0
124543,139.826,-653.764,0,0
124803,139.64,-651.661,0,0
125064,139.441,-649.551,0,0
125324,139.11,-647.435,0,0
125584,138.787,-645.281,0,0
125845,138.376,-643.048,0,0
126105,138.018,-640.757,0,0
126365,137.583,-638.412,0,0
126626,137.174,-635.967,0,0
126886,136.705,-633.484,0,0
127146,136.438,-630.854,0,0
127406,136.145,-627.981,0,0
127667,135.818,-625.355,0,0
127927,135.747,-622.524,0,0
128187,135.782,-619.686,0,0
128448,135.881,-616.85,0,0
128708,136.199,-614.082,0,0
128968,136.489,-611.444,0,0
129229,136.946,-608.9,0,0
129489,137.35,-606.524,0,0
129749,137.616,-604.192,0,0
130010,137.862,-601.897,0,0
130270,137.998,-599.608,0,0
130530,138.125,-597.248,0,0
130791,138.232,-594.823,0,0
131051,138.306,-592.377,0,0
131311,138.435,-589.89,0,0
131572,138.644,-587.331,0,0
131832,138.888,-584.812,0,0
132092,139.098,-582.277,0,0
132353,139.387,-579.671,0,0
132613,139.78,-577.09,0,0
132873,140.189,-574.547,0,0
133134,140.709,-572.047,0,0
133394,141.199,-569.585,0,0
133654,141.729,-567.217,0,0
133915,142.248,-564.943,0,0
134175,142.703,-562.528,0,0
134435,143.2,-560.144,0,0
134696,143.742,-557.779,0,0
134956,144.269,-555.437,0,0
135216,144.811,-553.071,0,0
135477,145.292,-550.781,0,0
135737,145.876,-548.345,0,0
135997,146.466,-545.922,0,0
136258,147.181,-543.609,0,0
136518,147.874,-541.263,0,0
136778,148.672,-538.937,0,0
137039,149.573,-536.655,0,0
137299,150.494,-534.447,0,0
137559,151.491,-532.378,0,0
137819,152.419,-530.493,0,0
138080,153.287,-528.672,0,0
138340.125,154.063,-526.926,0,0
138600.45,154.773,-525.204,0,0
138860.775,155.409,-523.402,0,0
139121.1,156.015,-521.737,0,0
139381.425,156.474,-519.945,0,0
139641.75,156.98,-518.083,0,0
139902.075,157.553,-516.256,0,0
140162.4,158.027,-514.34,0,0
140422.725,158.628,-512.445,0,0
140683.05,159.303,-510.632,0,0
140943.375,159.833,-508.792,0,0
141203.7,160.555,-507.08,0,0
141464.025,161.221,-505.384,0,0
141724.35,161.925,-503.856,0,0
141984.675,162.378,-502.454,0,0
142245.0,162.744,-501.076,0,0
142505.325,162.815,-499.654,0,0
142765.65,162.897,-498.083,0,0
143025.975,162.83,-496.349,0,0
143286.3,162.855,-494.466,0,0
143546.625,162.846,-492.641,0,0
143806.95,162.776,-490.634,0,0
144067.275,162.917,-488.407,0,0
144327.6,163.002,-486.371,0,0
144587.925,163.201,-484.071,0,0
144848.25,163.43,-481.85,0,0
145108.575,163.964,-479.52,0,0
145368.9,164.409,-477.363,0,0
145629.225,165.096,-475.315,0,0
145889.55,165.632,-473.427,0,0
146149.875,166.138,-471.534,0,0
146410.2,166.613,-469.779,0,0
146670.525,166.976,-467.966,0,0
146930.85,167.303,-466.168,0,0
147191.175,167.548,-464.535,0,0
147451.5,167.649,-462.836,0,0
147711.825,167.541,-461.101,0,0
147972.15,167.354,-459.125,0,0
148232.475,167,-457.029,0,0
148492.8,166.764,-454.777,0,0
148753.125,166.56,-452.291,0,0
149013.45,166.461,-449.676,0,0
149273.775,166.505,-447,0,0
149534.1,166.621,-444.272,0,0
149794.425,166.818,-441.505,0,0
150054.75,167.132,-438.791,0,0
150315.075,167.483,-435.976,0,0
150575.4,167.917,-433.172,0,0
150835.725,168.31,-430.378,0,0
151096.05,168.821,-427.421,0,0
151356.375,169.388,-424.456,0,0
151616.7,170.045,-421.388,0,0
151877.025,170.92,-418.225,0,0
152137.35,172.083,-415.113,0,0
152397.675,173.451,-412.093,0,0
152658.0,174.938,-409.272,0,0
152918.325,176.536,-406.662,0,0
153178.65,178.211,-404.329,0,0
153438.975,179.745,-402.208,0,0
153699.3,181.108,-400.205,0,0
153959.625,182.37,-398.301,0,0
154219.95,183.355,-396.408,0,0
154480,184.11,-394.442,0,0
154741,184.782,-392.24,0,0
155001,185.601,-389.7,0,0
155261,186.539,-387.198,0,0
155522,187.586,-384.522,0,0
155782,188.9,-381.842,0,0
156042,190.409,-379.266,0,0
156303,192.055,-376.816,0,0
156563,193.864,-374.51,0,0
156823,195.663,-372.568,0,0
157084,197.31,-370.953,0,0
157344,198.734,-369.36,0,0
157604,200,-367.808,0,0
157864,200.979,-366.343,0,0
158125,201.755,-364.642,0,0
158385,202.641,-362.743,0,0
158645,203.389,-360.786,0,0
158906,204.231,-358.803,0,0
159166,205.037,-356.762,0,0
159426,205.939,-354.594,0,0
159687,206.773,-352.433,0,0
159947,207.688,-350.203,0,0
160207,208.599,-348.064,0,0
160468,209.51,-345.863,0,0
160728,210.381,-343.539,0,0
160988,211.382,-341.164,0,0
161249,212.461,-338.871,0,0
161509,213.443,-336.56,0,0
161769,214.422,-334.228,0,0
162030,215.443,-331.906,0,0
162290,216.4,-329.519,0,0
162550,217.407,-327.088,0,0
162811,218.516,-324.547,0,0
163071,219.582,-322.033,0,0
163331,220.769,-319.513,0,0
163592,222.067,-317.014,0,0
163852,223.309,-314.672,0,0
164112,224.471,-312.331,0,0
164373,225.511,-309.919,0,0
164633,226.508,-307.445,0,0
164893,227.583,-304.863,0,0
165154,228.58,-302.197,0,0
165414,229.641,-299.416,0,0
165674,230.761,-296.63,0,0
165935,231.969,-293.75,0,0
166195,233.29,-290.832,0,0
166455,234.612,-287.978,0,0
166716,235.929,-285.101,0,0
166976,237.227,-282.154,0,0
167236,238.58,-279.172,0,0
167497,239.992,-276.111,0,0
167757,241.401,-272.979,0,0
168017,242.959,-269.774,0,0
168277,244.559,-266.553,0,0
168538,246.262,-263.344,0,0
168798,248.033,-260.168,0,0
169058,249.818,-257.014,0,0
169319,251.587,-253.838,0,0
169579,253.382,-250.622,0,0
169839,255.139,-247.389,0,0
170100,256.97,-244.074,0,0
170360.075,258.795,-240.751,0,0
170620.4,260.704,-237.331,0,0
170880.725,262.593,-233.905,0,0
171141.05,264.519,-230.308,0,0
171401.375,266.507,-226.683,0,0
171661.7,268.558,-222.933,0,0
171922.025,270.734,-219.156,0,0
172182.35,272.955,-215.312,0,0
172442.675,275.215,-211.356,0,0
172703.0,277.604,-207.319,0,0
172963.325,280.094,-203.263,0,0
173223.65,282.649,-199.189,0,0
173483.975,285.279,-194.947,0,0
173744.3,288.024,-190.624,0,0
174004.625,290.904,-186.187,0,0
174264.95,293.904,-181.645,0,0
174525.275,297.051,-177.045,0,0
174785.6,300.405,-172.33,0,0
175045.925,303.916,-167.545,0,0
175306.25,307.621,-162.716,0,0
175566.575,311.565,-157.834,0,0
175826.9,315.704,-152.958,0,0
176087.225,320.031,-148.038,0,0
176347.55,324.601,-143.082,0,0
176607.875,329.363,-138.123,0,0
176868.2,334.439,-133.102,0,0
177128.525,339.719,-128.171,0,0
177388.85,345.273,-123.327,0,0
177649.175,351.031,-118.527,0,0
177909.5,357.026,-113.793,0,0
178169.825,363.235,-109.117,0,0
178430.15,369.676,-104.516,0,0
178690.475,376.47,-99.9916,0,0
178950.8,383.504,-95.6835,0,0
179211.125,390.817,-91.5262,0,0
179471.45,398.349,-87.6663,0,0
179731.775,405.997,-83.9537,0,0
179992.1,413.873,-80.7237,0,0
180252.425,421.734,-77.5992,0,0
180512.75,429.525,-74.7233,0,0
180773.075,437.295,-71.9398,0,0
181033.4,445.055,-69.2003,0,0
181293.725,452.971,-66.4415,0,0
181554.05,460.967,-63.7362,0,0
181814.375,469.23,-61.1033,0,0
182074.7,477.597,-58.5662,0,0
182335.025,486.174,-56.1798,0,0
182595.35,494.911,-54.0296,0,0
182855.675,503.665,-52.1041,0,0
183116.0,512.481,-50.3501,0,0
183376.325,521.331,-48.5984,0,0
183636.65,530.142,-46.8671,0,0
183896.975,538.945,-45.1734,0,0
184157.3,547.92,-43.505,0,0
184417.625,557.07,-41.7846,0,0
184677.95,566.29,-39.8503,0,0
184938.275,575.911,-37.9765,0,0
185198.6,585.752,-36.1031,0,0
185458.925,595.855,-34.1782,0,0
185719.25,606.335,-32.2137,0,0
185979.575,617.323,-30.242,0,0
186239.9,628.839,-28.3471,0,0
186500,640.918,-26.775,0,0
186761,653.498,-25.4777,0,0
187021,666.554,-24.5428,0,0
187281,680.053,-23.994,0,0
187542,693.97,-23.9125,0,0
187802,708.275,-24.2564,0,0
188062,722.955,-25.1276,0,0
188322,738.002,-26.4015,0,0
188583,753.354,-28.2011,0,0
188843,769.177,-30.6026,0,0
189103,785.43,-33.5533,0,0
189364,801.963,-37.2786,0,0
189624,818.79,-41.7463,0,0
189884,836.01,-47.0477,0,0
190145,853.465,-53.1232,0,0
190405,870.981,-60.1849,0,0
190665,888.772,-68.1769,0,0
190926,906.487,-77.3566,0,0
191186,923.93,-87.5196,0,0
191446,941.262,-98.6995,0,0
191707,958.196,-110.743,0,0
191967,974.827,-123.809,0,0
192227,990.989,-137.658,0,0
192488,1006.77,-152.312,0,0
192748,1022.1,-167.797,0,0
193008,1036.99,-184.061,0,0
193269,1051.4,-201.14,0,0
193529,1065.25,-218.966,0,0
193789,1078.52,-237.625,0,0
194050,1091.3,-257.071,0,0
194310,1103.44,-277.409,0,0
194570,1114.67,-298.714,0,0
194831,1125.2,-320.621,0,0
195091,1134.63,-343.386,0,0
195351,1143.07,-366.9,0,0
195612,1150.51,-391.114,0,0
195872,1156.67,-415.903,0,0
196132,1161.57,-441.218,0,0
196393,1165.17,-466.87,0,0
196653,1167.37,-492.931,0,0
196913,1168.18,-518.787,0,0
197174,1167.68,-544.929,0,0
197434,1165.76,-571.101,0,0
197694,1162.39,-596.984,0,0
197955,1157.75,-622.614,0,0
198215,1151.64,-647.751,0,0
198475,1144.3,-672.317,0,0
198735,1135.88,-696.113,0,0
198996,1126.32,-719.321,0,0
199256,1115.93,-741.692,0,0
199516,1104.63,-763.518,0,0
199777,1092.74,-784.56,0,0
200037,1079.73,-804.634,0,0
200297,1066.11,-824.376,0,0
200558,1051.65,-843.3,0,0
200818,1036.85,-861.088,0,0
201078,1020.84,-878.263,0,0
201339,1004.71,-894.375,0,0
201599,987.514,-909.666,0,0
201859,970.078,-923.673,0,0
202120,952.227,-936.809,0,0
202380.025,934.315,-948.481,0,0
202640.35,915.902,-959.459,0,0
202900.675,897.777,-969.143,0,0
203161.0,879.482,-977.896,0,0
203421.325,861.54,-985.586,0,0
203681.65,843.391,-992.693,0,0
203941.975,825.918,-998.658,0,0
204202.3,808.094,-1003.94,0,0
204462.625,791.407,-1008.48,0,0
204722.95,774.104,-1012.38,0,0
204983.275,757.384,-1015.5,0,0
205243.6,741.174,-1018.28,0,0
205503.925,725.117,-1020.53,0,0
205764.25,709.75,-1021.73,0,0
206024.575,693.907,-1022.81,0,0
206284.9,678.869,-1023.56,0,0
206545.225,664.29,-1023.59,0,0
206805.55,650.005,-1023.32,0,0
207065.875,635.857,-1022.89,0,0
207326.2,622.489,-1021.57,0,0
207586.525,609.277,-1020.47,0,0
207846.85,596.382,-1018.77,0,0
208107.175,583.94,-1016.78,0,0
208367.5,571.715,-1014.63,0,0
208627.825,559.83,-1012.29,0,0
208888.15,548.303,-1009.74,0,0
209148.475,537.254,-1006.98,0,0
209408.8,526.395,-1004.27,0,0
209669.125,515.947,-1001.39,0,0
209929.45,505.926,-998.126,0,0
210189.775,495.707,-994.839,0,0
210450.1,486.118,-991.82,0,0
210710.425,476.742,-988.253,0,0
210970.75,467.272,-984.83,0,0
211231.075,458.269,-981.347,0,0
211491.4,449.247,-977.647,0,0
211751.725,440.594,-973.736,0,0
212012.05,432.266,-969.639,0,0
212272.375,424.02,-965.597,0,0
212532.7,416.207,-961.361,0,0
212793.025,408.69,-957.158,0,0
213053.35,401.317,-953.034,0,0
213313.675,394.213,-948.853,0,0
213574.0,387.157,-944.626,0,0
213834.325,380.261,-940.512,0,0
214094.65,373.526,-936.253,0,0
214354.975,366.912,-931.865,0,0
214615.3,360.641,-927.447,0,0
214875.625,354.216,-922.956,0,0
215135.95,348.181,-918.498,0,0
215396.275,342.366,-913.578,0,0
215656.6,336.695,-908.987,0,0
215916.925,331.274,-904.24,0,0
216177.25,326.198,-899.651,0,0
216437.575,321.106,-895.002,0,0
216697.9,316.307,-890.348,0,0
216958.225,311.657,-885.667,0,0
217218.55,307.14,-881.251,0,0
217478.875,302.581,-876.661,0,0
217739.2,298.385,-872.15,0,0
217999.525,294.135,-867.605,0,0
218259.85,290.13,-863.086,0,0
218520,286.103,-858.578,0,0
218780,282.381,-854.028,0,0
219041,278.592,-849.646,0,0
219301,275.046,-845.054,0,0
219561,271.667,-840.535,0,0
219822,268.431,-836.149,0,0
220082,265.118,-831.668,0,0
220342,262.129,-827.147,0,0
220603,259.191,-822.783,0,0
220863,256.328,-818.292,0,0
221123,253.691,-813.979,0,0
221384,251.195,-809.521,0,0
221644,248.758,-805.317,0,0
221904,246.281,-801.017,0,0
222165,244.011,-796.804,0,0
222425,241.985,-792.705,0,0
222685,239.935,-788.479,0,0
222946,237.902,-784.382,0,0
223206,236.068,-780.397,0,0
223466,234.307,-776.242,0,0
223727,232.626,-772.165,0,0
223987,231.101,-768.241,0,0
224247,229.582,-764.35,0,0
224508,228.106,-760.396,0,0
224768,227.047,-756.775,0,0
225028,225.755,-752.834,0,0
225289,224.657,-749.447,0,0
225549,223.574,-745.906,0,0
225809,222.643,-742.379,0,0
226070,221.613,-738.931,0,0
226330,220.55,-735.641,0,0
226590,219.684,-732.409,0,0
226851,218.773,-729.164,0,0
227111,217.812,-726.047,0,0
227371,216.946,-722.865,0,0
227632,216.026,-719.886,0,0
227892,215.077,-716.702,0,0
228152,214.216,-713.651,0,0
228413,213.275,-710.575,0,0
228673,212.459,-707.481,0,0
228933,211.557,-704.396,0,0
229193,210.794,-701.359,0,0
229454,210.11,-698.239,0,0
229714,209.414,-695.104,0,0
229974,208.762,-691.989,0,0
230235,208.229,-688.77,0,0
230495,207.743,-685.717,0,0
230755,207.235,-682.632,0,0
231016,206.891,-679.547,0,0
231276,206.563,-676.488,0,0
231536,206.339,-673.375,0,0
231797,206.149,-670.349,0,0
232057,206.002,-667.273,0,0
232317,205.932,-664.242,0,0
232578,206.036,-661.209,0,0
232838,206.023,-658.238,0,0
233098,206.163,-655.238,0,0
233359,206.376,-652.306,0,0
233619,206.582,-649.434,0,0
233879,207.036,-646.492,0,0
234140,207.438,-643.661,0,0
234400,207.968,-640.812,0,0
234660.3,208.5,-638.001,0,0
234920.625,209.182,-635.407,0,0
235180.95,209.949,-632.557,0,0
235441.275,210.766,-630.024,0,0
235701.6,211.553,-627.348,0,0
235961.925,212.469,-624.944,0,0
236222.25,213.501,-622.395,0,0
236482.575,214.581,-619.981,0,0
236742.9,215.685,-617.659,0,0
237003.225,216.899,-615.371,0,0
237263.55,218.138,-613.171,0,0
237523.875,219.431,-611.013,0,0
237784.2,220.784,-608.958,0,0
238044.525,222.209,-606.962,0,0
238304.85,223.679,-605.008,0,0
238565.175,225.183,-603.188,0,0
238825.5,226.734,-601.448,0,0
239085.825,228.373,-599.745,0,0
239346.15,230.006,-598.084,0,0
239606.475,231.816,-596.642,0,0
239866.8,233.594,-595.234,0,0
240127.125,235.22,-593.809,0,0
240387.45,237.025,-592.665,0,0
240647.775,238.878,-591.519,0,0
240908.1,240.632,-590.491,0,0
241168.425,242.526,-589.561,0,0
241428.75,244.348,-588.703,0,0
241689.075,246.18,-587.927,0,0
241949.4,248.057,-587.27,0,0
242209.725,249.956,-586.675,0,0
242470.05,251.805,-586.094,0,0
242730.375,253.694,-585.642,0,0
242990.7,255.609,-585.283,0,0
243251.025,257.568,-584.961,0,0
243511.35,259.552,-584.715,0,0
243771.675,261.69,-584.613,0,0
244032.0,263.806,-584.662,0,0
244292.325,266.126,-584.891,0,0
244552.65,268.163,-585.417,0,0
244812.975,270.325,-586.221,0,0
245073.3,272.331,-587.218,0,0
245333.625,274.349,-588.338,0,0
245593.95,275.956,-589.657,0,0
245854.275,277.412,-590.911,0,0
246114.6,278.707,-592.441,0,0
246374.925,279.826,-593.908,0,0
246635.25,280.748,-595.277,0,0
246895.575,281.59,-596.753,0,0
247155.9,282.365,-598.07,0,0
247416.225,283.033,-599.393,0,0
247676.55,283.683,-600.799,0,0
247936.875,284.143,-602.214,0,0
248197.2,284.651,-603.514,0,0
248457.525,285.099,-604.993,0,0
248717.85,285.412,-606.125,0,0
248978.175,285.773,-607.414,0,0
249238.5,286.046,-608.608,0,0
249498.825,286.364,-609.693,0,0
249759.15,286.684,-610.792,0,0
250019.475,287.232,-611.842,0,0
250279.8,287.969,-613.136,0,0
250540,288.576,-614.43,0,0
250800,289.216,-615.986,0,0
251061,289.988,-617.849,0,0
251321,290.515,-619.617,0,0
251581,290.885,-621.675,0,0
251842,291.243,-623.86,0,0
252102,291.473,-626.103,0,0
252362,291.563,-628.388,0,0
252623,291.565,-630.783,0,0
252883,291.443,-633.265,0,0
253143,291.227,-635.939,0,0
253404,290.807,-638.675,0,0
253664,290.074,-641.486,0,0
253924,289.267,-644.38,0,0
254185,288.015,-647.349,0,0
254445,286.584,-650.29,0,0
254705,284.984,-653.006,0,0
254966,282.997,-655.611,0,0
255226,280.88,-658.373,0,0
255486,278.61,-660.801,0,0
255747,276.044,-662.973,0,0
256007,273.434,-665.136,0,0
256267,270.748,-667.049,0,0
256528,267.902,-668.802,0,0
256788,265.055,-670.361,0,0
257048,262.11,-671.773,0,0
257309,259.139,-673.02,0,0
257569,256.149,-674.077,0,0
257829,253.132,-675.058,0,0
258090,250.147,-675.869,0,0
258350,247.182,-676.528,0,0
258610,244.193,-677.06,0,0
258871,241.282,-677.49,0,0
259131,238.384,-677.907,0,0
259391,235.457,-678.021,0,0
259651,232.493,-678.241,0,0
259912,229.65,-678.316,0,0
260172,226.95,-678.332,0,0
260432,224.108,-678.2,0,0
260693,221.249,-677.962,0,0
260953,218.575,-677.777,0,0
261213,215.795,-677.403,0,0
261474,213.219,-677.035,0,0
261734,210.554,-676.523,0,0
261994,207.93,-675.928,0,0
262255,205.42,-675.336,0,0
262515,202.907,-674.682,0,0
262775,200.457,-673.938,0,0
263036,197.991,-673.175,0,0
263296,195.738,-672.356,0,0
263556,193.415,-671.472,0,0
263817,191.103,-670.59,0,0
264077,188.958,-669.641,0,0
264337,186.749,-668.692,0,0
264598,184.675,-667.632,0,0
264858,182.582,-666.691,0,0
265118,180.452,-665.569,0,0
265379,178.462,-664.536,0,0
265639,176.542,-663.507,0,0
265899,174.742,-662.447,0,0
266160,172.853,-661.25,0,0
266420,171.082,-660.123,0,0
266680.25,169.363,-659.113,0,0
266940.575,167.501,-657.907,0,0
267200.9,165.787,-656.748,0,0
267461.225,164.11,-655.592,0,0
267721.55,162.401,-654.452,0,0
267981.875,160.781,-653.311,0,0
268242.2,159.177,-652.088,0,0
268502.525,157.606,-650.911,0,0
268762.85,156.03,-649.777,0,0
269023.175,154.499,-648.486,0,0
269283.5,152.979,-647.334,0,0
269543.825,151.495,-646.085,0,0
269804.15,150.164,-644.871,0,0
270064.475,148.663,-643.587,0,0
270324.8,147.272,-642.419,0,0
270585.125,145.851,-641.105,0,0
270845.45,144.438,-639.888,0,0
271105.775,143.072,-638.654,0,0
271366.1,141.867,-637.374,0,0
271626.425,140.477,-636.184,0,0
271886.75,139.256,-634.903,0,0
272147.075,137.965,-633.605,0,0
272407.4,136.738,-632.332,0,0
272667.725,135.563,-631.059,0,0
272928.05,134.419,-629.814,0,0
273188.375,133.197,-628.541,0,0
273448.7,132.077,-627.247,0,0
273709.025,130.921,-626.022,0,0
273969.35,129.849,-624.714,0,0
274229.675,128.731,-623.463,0,0
274490.0,127.709,-622.208,0,0
274750.325,126.632,-620.852,0,0
275010.65,125.655,-619.56,0,0
275270.975,124.575,-618.346,0,0
275531.3,123.598,-617.077,0,0
275791.625,122.612,-615.78,0,0
276051.95,121.652,-614.495,0,0
276312.275,120.663,-613.225,0,0
276572.6,119.742,-611.949,0,0
276832.925,118.845,-610.651,0,0
277093.25,117.942,-609.38,0,0
277353.575,117.026,-608.075,0,0
277613.9,116.128,-606.78,0,0
277874.225,115.29,-605.497,0,0
278134.55,114.421,-604.192,0,0
278394.875,113.608,-602.893,0,0
278655.2,112.763,-601.576,0,0
278915.525,111.976,-600.255,0,0
279175.85,111.191,-598.884,0,0
279436.175,110.43,-597.597,0,0
279696.5,109.755,-596.181,0,0
279956.825,109.058,-594.821,0,0
280217.15,108.441,-593.43,0,0
280477.475,107.926,-592.052,0,0
280737.8,107.363,-590.744,0,0
280998.125,106.938,-589.457,0,0
281258.45,106.489,-588.226,0,0
281518.775,106.05,-587.023,0,0
281779.1,105.624,-585.87,0,0
282039.425,105.179,-584.767,0,0
282299.75,104.703,-583.675,0,0
282560,104.228,-582.61,0,0
282820,103.723,-581.55,0,0
283081,103.228,-580.461,0,0
283341,102.703,-579.383,0,0
283601,102.231,-578.293,0,0
283862,101.694,-577.176,0,0
284122,101.246,-576.092,0,0
284382,100.83,-574.996,0,0
284643,100.37,-573.921,0,0
284903,99.9759,-572.815,0,0
285163,99.6076,-571.691,0,0
285424,99.2165,-570.646,0,0
285684,98.9581,-569.626,0,0
285944,98.6626,-568.615,0,0
286205,98.3986,-567.652,0,0
286465,98.0457,-566.758,0,0
286725,97.7523,-565.886,0,0
286986,97.419,-565.063,0,0
287246,97.0724,-564.283,0,0
287506,96.6639,-563.505,0,0
287767,96.2149,-562.715,0,0
288027,95.7088,-561.882,0,0
288287,95.2332,-561.096,0,0
288548,94.7298,-560.242,0,0
288808,94.2172,-559.363,0,0
289068,93.7218,-558.493,0,0
289329,93.1986,-557.62,0,0
289589,92.7665,-556.712,0,0
289849,92.2575,-555.77,0,0
290109,91.808,-554.874,0,0
290370,91.322,-553.995,0,0
290630,90.9403,-553.093,0,0
290890,90.5205,-552.196,0,0
291151,90.0828,-551.332,0,0
291411,89.6921,-550.424,0,0
291671,89.2578,-549.552,0,0
291932,88.8702,-548.691,0,0
292192,88.4837,-547.838,0,0
292452,88.0512,-547.034,0,0
292713,87.6492,-546.224,0,0
292973,87.2084,-545.421,0,0
293233,86.7515,-544.619,0,0
293494,86.3104,-543.823,0,0
293754,85.8059,-543.032,0,0
294014,85.3528,-542.188,0,0
294275,84.8458,-541.361,0,0
294535,84.3149,-540.516,0,0
294795,83.8243,-539.683,0,0
295056,83.2781,-538.748,0,0
295316,82.7177,-537.856,0,0
295576,82.2233,-536.964,0,0
295837,81.6932,-535.986,0,0
296097,81.194,-535.017,0,0
296357,80.719,-534.035,0,0
296618,80.2503,-533.002,0,0
296878,79.8282,-531.956,0,0
297138,79.4389,-530.942,0,0
297399,79.0887,-529.851,0,0
297659,78.752,-528.796,0,0
297919,78.5089,-527.76,0,0
298180,78.2883,-526.745,0,0
298440,78.0983,-525.757,0,0
298700.2,77.9016,-524.816,0,0
298960.525,77.7985,-523.916,0,0
299220.85,77.6422,-523.062,0,0
299481.175,77.3845,-522.263,0,0
299741.5,77.168,-521.482,0,0
300001.825,76.9089,-520.75,0,0
300262.15,76.6635,-519.913,0,0
300522.475,76.4345,-519.156,0,0
300782.8,76.1873,-518.456,0,0
301043.125,75.8265,-517.648,0,0
301303.45,75.5095,-516.841,0,0
301563.775,75.214,-516.074,0,0
301824.1,74.9048,-515.224,0,0
302084.425,74.6177,-514.411,0,0
302344.75,74.2759,-513.634,0,0
302605.075,73.9927,-512.833,0,0
302865.4,73.7499,-511.896,0,0
303125.725,73.4221,-511.136,0,0
303386.05,73.0742,-510.29,0,0
303646.375,72.8836,-509.449,0,0
303906.7,72.5641,-508.618,0,0
304167.025,72.3845,-507.778,0,0
304427.35,72.1452,-506.998,0,0
304687.675,71.9723,-506.118,0,0
304948.0,71.8174,-505.387,0,0
305208.325,71.5544,-504.515,0,0
305468.65,71.3627,-503.748,0,0
305728.975,71.1648,-502.973,0,0
305989.3,70.9708,-502.239,0,0
306249.625,70.7225,-501.539,0,0
306509.95,70.4858,-500.83,0,0
306770.275,70.2902,-500.092,0,0
307030.6,70.078,-499.403,0,0
307290.925,69.8411,-498.606,0,0
307551.25,69.5877,-497.926,0,0
307811.575,69.3107,-497.204,0,0
308071.9,69.0481,-496.45,0,0
308332.225,68.7651,-495.701,0,0
308592.55,68.5674,-494.948,0,0
308852.875,68.2789,-494.245,0,0
309113.2,68.1241,-493.474,0,0
309373.525,67.8471,-492.744,0,0
309633.85,67.6013,-492.034,0,0
309894.175,67.3841,-491.211,0,0
310154.5,67.1397,-490.492,0,0
310414.825,66.8879,-489.801,0,0
310675.15,66.7437,-488.981,0,0
310935.475,66.4927,-488.325,0,0
311195.8,66.2763,-487.597,0,0
311456.125,66.0197,-486.777,0,0
311716.45,65.863,-486.195,0,0
311976.775,65.6039,-485.412,0,0
312237.1,65.3589,-484.72,0,0
312497.425,65.1673,-484.021,0,0
312757.75,64.9126,-483.303,0,0
313018.075,64.7127,-482.579,0,0
313278.4,64.4757,-481.842,0,0
313538.725,64.2695,-481.151,0,0
313799.05,64.0041,-480.437,0,0
314059.375,63.8156,-479.639,0,0
314319.7,63.6127,-478.965,0,0
314580,63.3843,-478.215,0,0
314840,63.2204,-477.443,0,0
315101,62.9589,-476.748,0,0
315361,62.7525,-476.065,0,0
315621,62.6235,-475.274,0,0
315882,62.4167,-474.576,0,0
316142,62.1976,-473.903,0,0
316402,61.9986,-473.237,0,0
316663,61.8278,-472.495,0,0
316923,61.6636,-471.81,0,0
317183,61.4139,-471.05,0,0
317444,61.2413,-470.366,0,0
317704,61.0713,-469.642,0,0
317964,60.8596,-468.982,0,0
318225,60.693,-468.303,0,0
318485,60.4956,-467.573,0,0
318745,60.2761,-466.855,0,0
319006,60.1012,-466.183,0,0
319266,59.9539,-465.473,0,0
319526,59.7364,-464.759,0,0
319787,59.5981,-464.101,0,0
320047,59.4406,-463.381,0,0
320307,59.2636,-462.636,0,0
320567,59.1243,-461.943,0,0
320828,58.9542,-461.241,0,0
321088,58.8241,-460.531,0,0
321348,58.6345,-459.842,0,0
321609,58.52,-459.224,0,0
321869,58.3376,-458.522,0,0
322129,58.1868,-457.802,0,0
322390,58.0592,-457.138,0,0
322650,57.9446,-456.476,0,0
322910,57.8168,-455.825,0,0
323171,57.6455,-455.142,0,0
323431,57.5026,-454.468,0,0
323691,57.3852,-453.812,0,0
323952,57.2422,-453.203,0,0
324212,57.1028,-452.514,0,0
324472,56.9702,-451.884,0,0
324733,56.8067,-451.218,0,0
324993,56.6606,-450.623,0,0
325253,56.5001,-449.924,0,0
325514,56.3693,-449.261,0,0
325774,56.2257,-448.665,0,0
326034,56.07,-448.06,0,0
326295,55.8924,-447.338,0,0
326555,55.7566,-446.682,0,0
326815,55.5761,-446.049,0,0
327076,55.4089,-445.39,0,0
327336,55.2648,-444.731,0,0
327596,55.0693,-444.076,0,0
327857,54.972,-443.402,0,0
328117,54.796,-442.762,0,0
328377,54.6778,-442.068,0,0
328638,54.5491,-441.401,0,0
328898,54.3745,-440.782,0,0
329158,54.3173,-440.051,0,0
329419,54.1548,-439.392,0,0
329679,54.0074,-438.731,0,0
329939,53.8718,-438.079,0,0
330200,53.8021,-437.409,0,0
330460,53.6783,-436.762,0,0
330720.15,53.5481,-436.078,0,0
330980.475,53.4561,-435.389,0,0
331240.8,53.3398,-434.749,0,0
331501.125,53.221,-434.106,0,0
331761.45,53.1657,-433.426,0,0
332021.775,53.0655,-432.783,0,0
332282.1,52.971,-432.149,0,0
332542.425,52.8933,-431.486,0,0
332802.75,52.7974,-430.857,0,0
333063.075,52.7179,-430.209,0,0
333323.4,52.5796,-429.566,0,0
333583.725,52.524,-428.926,0,0
333844.05,52.4648,-428.338,0,0
334104.375,52.3071,-427.676,0,0
334364.7,52.2774,-427.072,0,0
334625.025,52.2168,-426.393,0,0
334885.35,52.1616,-425.852,0,0
335145.675,52.0734,-425.178,0,0
335406.0,51.9788,-424.58,0,0
335666.325,51.8986,-423.939,0,0
335926.65,51.7957,-423.306,0,0
336186.975,51.7223,-422.631,0,0
336447.3,51.7539,-422.071,0,0
336707.625,51.6202,-421.453,0,0
336967.95,51.5343,-420.865,0,0
337228.275,51.4386,-420.203,0,0
337488.6,51.3844,-419.609,0,0
337748.925,51.3258,-419.023,0,0
338009.25,51.2345,-418.373,0,0
338269.575,51.1763,-417.786,0,0
338529.9,51.0811,-417.144,0,0
338790.225,51.0435,-416.564,0,0
339050.55,50.9526,-415.939,0,0
339310.875,50.8993,-415.354,0,0
339571.2,50.8518,-414.736,0,0
339831.525,50.748,-414.102,0,0
340091.85,50.7161,-413.513,0,0
340352.175,50.647,-412.841,0,0
340612.5,50.584,-412.284,0,0
340872.825,50.5571,-411.635,0,0
341133.15,50.4994,-411.013,0,0
341393.475,50.4671,-410.417,0,0
341653.8,50.4501,-409.805,0,0
341914.125,50.3863,-409.197,0,0
342174.45,50.3981,-408.549,0,0
342434.775,50.3855,-407.985,0,0
342695.1,50.4108,-407.384,0,0
342955.425,50.4337,-406.761,0,0
343215.75,50.3815,-406.214,0,0
343476.075,50.4271,-405.66,0,0
343736.4,50.4127,-405.088,0,0
343996.725,50.3877,-404.547,0,0
344257.05,50.3764,-404.055,0,0
344517.375,50.3053,-403.495,0,0
344777.7,50.313,-402.974,0,0
345038.025,50.2433,-402.445,0,0
345298.35,50.1858,-401.874,0,0
345558.675,50.1069,-401.297,0,0
345819.0,50.0817,-400.716,0,0
346079.325,50.0488,-400.162,0,0
346339.65,50.0122,-399.606,0,0
346599.975,49.9904,-398.959,0,0
346860,49.9404,-398.398,0,0
347121,49.9201,-397.817,0,0
347381,49.9521,-397.227,0,0
347641,49.9201,-396.658,0,0
347902,49.8869,-396.085,0,0
348162,49.9123,-395.529,0,0
348422,49.9195,-394.917,0,0
348683,49.9024,-394.386,0,0
348943,49.9178,-393.821,0,0
349203,49.9311,-393.259,0,0
349464,49.96,-392.68,0,0
349724,49.968,-392.181,0,0
349984,50.0218,-391.663,0,0
350245,50.0483,-391.102,0,0
350505,50.0806,-390.533,0,0
350765,50.1015,-390.023,0,0
351025,50.1447,-389.504,0,0
351286,50.1573,-388.992,0,0
351546,50.1914,-388.499,0,0
351806,50.2252,-387.995,0,0
352067,50.266,-387.507,0,0
352327,50.2725,-387.001,0,0
352587,50.3076,-386.495,0,0
352848,50.3261,-386.02,0,0
353108,50.3695,-385.542,0,0
353368,50.3698,-385.042,0,0
353629,50.4241,-384.578,0,0
353889,50.4404,-384.122,0,0
354149,50.4156,-383.681,0,0
354410,50.4314,-383.206,0,0
354670,50.4931,-382.769,0,0
354930,50.483,-382.352,0,0
355191,50.4765,-381.894,0,0
355451,50.4591,-381.465,0,0
355711,50.4505,-380.989,0,0
355972,50.4092,-380.566,0,0
356232,50.4264,-380.115,0,0
356492,50.3775,-379.645,0,0
356753,50.3667,-379.21,0,0
357013,50.2599,-378.773,0,0
357273,50.2469,-378.284,0,0
357534,50.2243,-377.824,0,0
357794,50.1576,-377.344,0,0
358054,50.117,-376.919,0,0
358315,50.0897,-376.41,0,0
358575,50.0623,-375.958,0,0
358835,50.0103,-375.513,0,0
359096,49.9713,-375.048,0,0
359356,49.9402,-374.55,0,0
359616,49.9034,-374.103,0,0
359877,49.8791,-373.651,0,0
360137,49.8262,-373.214,0,0
360397,49.782,-372.746,0,0
360658,49.7425,-372.283,0,0
360918,49.73,-371.783,0,0
361178,49.693,-371.353,0,0
361438,49.5917,-370.868,0,0
361699,49.5512,-370.388,0,0
361959,49.5467,-369.917,0,0
362219,49.4419,-369.47,0,0
362480,49.3566,-368.943,0,0
362740.1,49.3593,-368.459,0,0
363000.425,49.2957,-367.955,0,0
363260.75,49.2655,-367.489,0,0
363521.075,49.2486,-366.992,0,0
363781.4,49.1913,-366.507,0,0
364041.725,49.1685,-365.975,0,0
364302.05,49.0955,-365.509,0,0
364562.375,49.1272,-365.024,0,0
364822.7,49.0867,-364.506,0,0
365083.025,49.0533,-364.02,0,0
365343.35,49.0642,-363.516,0,0
365603.675,49,-363.029,0,0
365864.0,49.0121,-362.522,0,0
366124.325,49.0098,-362.077,0,0
366384.65,48.9897,-361.535,0,0
366644.975,49.0217,-361.057,0,0
366905.3,48.9961,-360.59,0,0
367165.625,49.0046,-360.093,0,0
367425.95,49.0188,-359.622,0,0
367686.275,49.0011,-359.153,0,0
367946.6,48.9938,-358.703,0,0
368206.925,48.9998,-358.226,0,0
368467.25,48.9849,-357.753,0,0
368727.575,48.9903,-357.273,0,0
368987.9,49.0024,-356.823,0,0
369248.225,48.9963,-356.396,0,0
369508.55,48.981,-355.888,0,0
369768.875,48.9575,-355.41,0,0
370029.2,48.9638,-354.951,0,0
370289.525,48.9728,-354.462,0,0
370549.85,48.9516,-353.988,0,0
370810.175,48.9588,-353.51,0,0
371070.5,48.9854,-353.057,0,0
371330.825,48.9795,-352.567,0,0
371591.15,49.0291,-352.111,0,0
371851.475,49.044,-351.655,0,0
372111.8,49.0691,-351.197,0,0
372372.125,49.1058,-350.755,0,0
372632.45,49.1331,-350.311,0,0
372892.775,49.1729,-349.922,0,0
373153.1,49.1902,-349.489,0,0
373413.425,49.2536,-349.055,0,0
373673.75,49.2464,-348.67,0,0
373934.075,49.2534,-348.271,0,0
374194.4,49.2673,-347.94,0,0
374454.725,49.2493,-347.545,0,0
374715.05,49.1921,-347.163,0,0
374975.375,49.1369,-346.754,0,0
375235.7,49.0558,-346.367,0,0
375496.025,49.0039,-345.974,0,0
375756.35,48.9248,-345.575,0,0
376016.675,48.8384,-345.13,0,0
376277.0,48.7723,-344.73,0,0
376537.325,48.6848,-344.225,0,0
376797.65,48.6173,-343.799,0,0
377057.975,48.5207,-343.326,0,0
377318.3,48.4734,-342.859,0,0
377578.625,48.424,-342.378,0,0
377838.95,48.3522,-341.944,0,0
378099.275,48.2794,-341.431,0,0
378359.6,48.2283,-340.961,0,0
378619.925,48.1645,-340.512,0,0
378880,48.1122,-340.001,0,0
379141,48.0515,-339.522,0,0
379401,48.004,-339.04,0,0
379661,47.9588,-338.535,0,0
379922,47.897,-338.024,0,0
380182,47.8658,-337.543,0,0
380442,47.8154,-337.02,0,0
380703,47.7619,-336.531,0,0
380963,47.7147,-335.97,0,0
381223,47.6846,-335.463,0,0
381483,47.6954,-334.961,0,0
381744,47.6776,-334.402,0,0
382004,47.6777,-333.862,0,0
382264,47.7063,-333.335,0,0
382525,47.7399,-332.833,0,0
382785,47.7872,-332.278,0,0
383045,47.8569,-331.743,0,0
383306,47.9583,-331.294,0,0
383566,48.0062,-330.878,0,0
383826,48.0618,-330.448,0,0
384087,48.1035,-330.069,0,0
384347,48.0633,-329.668,0,0
384607,48.0352,-329.238,0,0
384868,48.0052,-328.762,0,0
385128,47.9487,-328.326,0,0
385388,47.903,-327.871,0,0
385649,47.9069,-327.422,0,0
385909,47.857,-326.884,0,0
386169,47.8367,-326.437,0,0
386430,47.8195,-325.944,0,0
386690,47.7759,-325.413,0,0
386950,47.7772,-324.923,0,0
387211,47.7459,-324.438,0,0
387471,47.7608,-323.979,0,0
387731,47.7335,-323.466,0,0
387992,47.7024,-322.974,0,0
388252,47.7062,-322.488,0,0
388512,47.701,-321.968,0,0
388773,47.6885,-321.459,0,0
389033,47.6869,-320.988,0,0
389293,47.6983,-320.465,0,0
389554,47.6873,-319.969,0,0
389814,47.6899,-319.47,0,0
390074,47.6844,-318.964,0,0
390335,47.6748,-318.434,0,0
390595,47.716,-317.925,0,0
390855,47.7163,-317.428,0,0
391116,47.7334,-316.91,0,0
391376,47.6986,-316.405,0,0
391636,47.7332,-315.89,0,0
391896,47.7443,-315.409,0,0
392157,47.7667,-314.874,0,0
392417,47.7665,-314.365,0,0
392677,47.804,-313.834,0,0
392938,47.8037,-313.327,0,0
393198,47.8353,-312.824,0,0
393458,47.8294,-312.298,0,0
393719,47.87,-311.773,0,0
393979,47.8833,-311.263,0,0
394239,47.9324,-310.723,0,0
394500,47.953,-310.2,0,0
394760.05,47.9628,-309.669,0,0
395020.375,47.9968,-309.157,0,0
395280.7,48.0285,-308.648,0,0
395541.025,48.0517,-308.108,0,0
395801.35,48.0993,-307.562,0,0
396061.675,48.1298,-307.04,0,0
396322.0,48.1541,-306.519,0,0
396582.325,48.1994,-305.988,0,0
396842.65,48.2487,-305.471,0,0
397102.975,48.2904,-304.909,0,0
397363.3,48.342,-304.411,0,0
397623.625,48.3782,-303.87,0,0
397883.95,48.4346,-303.323,0,0
398144.275,48.4599,-302.77,0,0
398404.6,48.5251,-302.241,0,0
398664.925,48.5851,-301.701,0,0
398925.25,48.6599,-301.152,0,0
399185.575,48.6973,-300.62,0,0
399445.9,48.7679,-300.105,0,0
399706.225,48.8335,-299.518,0,0
399966.55,48.8796,-299.014,0,0
400006.6,48.9155,-298.922,0,0