File: Accelerated corrosion test data/2025-09-30_06-00-03/sample_7.csv
Frequency (Hz),Impedance (ohms),Phase (Radians),Temperature (C),Humidity (%)
10000.0,278.466,-12069.2,0,0
10260.325,279.354,-11779.3,0,0
10520.65,262.319,-11480.7,0,0
10780.975,256.58,-11199.8,0,0
11041.3,253.254,-10932.5,0,0
11301.625,250.405,-10677.6,0,0
11561.95,252.622,-10429.4,0,0
11822.275,261.467,-10200.7,0,0
12082.6,266.248,-9975.48,0,0
12342.925,327.193,-9795.18,0,0
12603.25,266.683,-9632.04,0,0
12863.575,273.19,-9435.3,0,0
13123.9,241.804,-9258.08,0,0
13384.225,235.982,-9084.08,0,0
13644.55,226.711,-8900.16,0,0
13904.875,212.044,-8736.76,0,0
14165.2,209.729,-8566.28,0,0
14425.525,210.103,-8428.34,0,0
14685.8,207.959,-8275.17,0,0
14946.175,202.113,-8129.18,0,0
15206.5,201.911,-7998.44,0,0
15466.825,188.506,-7858.03,0,0
15727.15,188.332,-7730.65,0,0
15987.5,182.169,-7601.34,0,0
16247.8,182.827,-7481.38,0,0
16508.125,174.6,-7360.48,0,0
16768.45,174.016,-7242.16,0,0
17028.775,173.594,-7132.84,0,0
17289.1,169.689,-7023.84,0,0
17549.425,168.875,-6915.01,0,0
17809.75,171.354,-6806.1,0,0
18070.075,173.352,-6710.07,0,0
18330.4,182.148,-6603.24,0,0
18590.725,200.948,-6519.49,0,0
18851.05,196.088,-6453.45,0,0
19111.375,183.716,-6369.96,0,0
19371.7,206.852,-6293.87,0,0
19632.025,173.253,-6225.39,0,0
19892.35,159.466,-6127.96,0,0
20152.675,172.401,-6042.04,0,0
20413.0,175.59,-5972.05,0,0
20673.3,170.591,-5894.05,0,0
20933.65,179.931,-5831.77,0,0
21193.975,163.085,-5771.14,0,0
21454.3,154.73,-5696.48,0,0
21714.625,157.729,-5629.19,0,0
21974.9,149.588,-5566.5,0,0
22235.275,144.128,-5498.38,0,0
22495.6,142.372,-5435.28,0,0
22755.925,136.9,-5372.05,0,0
23016.25,132.95,-5309.01,0,0
23276.6,130.711,-5245.68,0,0
23536.9,131.418,-5185.39,0,0
23797.225,131.042,-5130.81,0,0
24057.55,127.168,-5073.85,0,0
24317.875,125.155,-5016.42,0,0
24578.2,126.584,-4961.79,0,0
24838.525,124.745,-4908.32,0,0
25098.85,123.926,-4856.62,0,0
25359.175,122.968,-4804.75,0,0
25619.5,121.612,-4753.29,0,0
25879.8,122.158,-4702.88,0,0
26140.1,122.067,-4651.53,0,0
26400.5,127.018,-4603.39,0,0
26660.8,124.904,-4558.84,0,0
26921.1,125.508,-4508.35,0,0
27181.4,132.155,-4460.42,0,0
27441.8,134.537,-4416.76,0,0
27702.1,146.542,-4368.59,0,0
27962.4,161.628,-4326.78,0,0
28222.7,182.174,-4303.09,0,0
28483.1,183.699,-4285.12,0,0
28743.4,176.612,-4267.07,0,0
29003.7,161.516,-4239.07,0,0
29264,146.164,-4203.27,0,0
29524.4,138.174,-4162.62,0,0
29784.7,133.709,-4125.34,0,0
30045,129.166,-4081.85,0,0
30305.3,133.651,-4044.58,0,0
30565.7,134.225,-4011.69,0,0
30826,137.296,-3978.97,0,0
31086.3,138.548,-3951.69,0,0
31346.6,134.646,-3923.96,0,0
31607,132.648,-3898.38,0,0
31867.3,123.39,-3867.57,0,0
32127.6,120.071,-3835.34,0,0
32387.9,116.367,-3805.06,0,0
32648.3,112.247,-3774.75,0,0
32908.6,109.579,-3743.7,0,0
33168.9,106.893,-3713.8,0,0
33429.2,103.96,-3684.31,0,0
33689.6,101.378,-3654.44,0,0
33949.9,99.9618,-3625.35,0,0
34210.2,98.0614,-3596.5,0,0
34470.5,95.9677,-3568.17,0,0
34730.9,94.9322,-3539.98,0,0
34991.2,93.9209,-3512.73,0,0
35251.5,92.7203,-3485.77,0,0
35511.8,91.6312,-3458.83,0,0
35772.2,91.0741,-3432.59,0,0
36032.5,90.9162,-3406.59,0,0
36292.8,90.2961,-3381.71,0,0
36553.1,89.4505,-3356.65,0,0
36813.5,88.421,-3331.58,0,0
37073.8,88.5129,-3306.84,0,0
37334.1,88.3009,-3283.4,0,0
37594.4,87.9612,-3259.79,0,0
37854.8,87.3825,-3236.4,0,0
38115.1,87.308,-3212.71,0,0
38375.4,87.5792,-3189.4,0,0
38635.7,88.5086,-3166.72,0,0
38896.1,90.0052,-3144.02,0,0
39156.4,91.5865,-3122.72,0,0
39416.7,94.4055,-3101.61,0,0
39677,97.9592,-3082.69,0,0
39937.4,99.1454,-3066.36,0,0
40197.7,98.9458,-3050.03,0,0
40458,97.0651,-3034.13,0,0
40718.3,94.4607,-3016.04,0,0
40978.7,91.8232,-2997.71,0,0
41239,88.9461,-2979.31,0,0
41499.3,86.904,-2959.56,0,0
41759.6,85.9387,-2940.8,0,0
42020,84.1412,-2922.12,0,0
42280.275,82.6541,-2902.73,0,0
42540.6,82.0075,-2883.41,0,0
42800.925,82.1678,-2865.03,0,0
43061.25,81.9469,-2846.64,0,0
43321.575,82.8974,-2830.06,0,0
43581.9,81.3911,-2812.78,0,0
43842.225,81.2108,-2794.47,0,0
44102.55,82.4295,-2776.9,0,0
44362.875,84.197,-2761.44,0,0
44623.2,84.5413,-2746.39,0,0
44883.525,83.9193,-2732.74,0,0
45143.85,82.1432,-2717.26,0,0
45404.175,80.8145,-2701.51,0,0
45664.5,81.3444,-2684.59,0,0
45924.825,82.4344,-2671.14,0,0
46185.15,81.7691,-2658,0,0
46445.475,79.3455,-2644.6,0,0
46705.8,76.9692,-2630,0,0
46966.125,74.4776,-2614.5,0,0
47226.45,73.5543,-2598.66,0,0
47486.775,73.263,-2583.46,0,0
47747.1,72.7858,-2568.49,0,0
48007.425,72.559,-2554.37,0,0
48267.75,72.0572,-2540.23,0,0
48528.075,71.2064,-2526.45,0,0
48788.4,70.7183,-2512.41,0,0
49048.725,70.1065,-2498.61,0,0
49309.05,69.588,-2484.87,0,0
49569.375,69.0343,-2471.39,0,0
49829.7,68.6796,-2457.79,0,0
50090.025,68.4557,-2444.69,0,0
50350.35,67.99,-2431.5,0,0
50610.675,67.8101,-2418.52,0,0
50871.0,67.4305,-2405.89,0,0
51131.325,67.015,-2393.12,0,0
51391.65,66.6443,-2380.64,0,0
51651.975,66.314,-2368.12,0,0
51912.3,66.0202,-2355.79,0,0
52172.625,65.8365,-2343.44,0,0
52432.95,65.8013,-2331.45,0,0
52693.275,65.4765,-2319.36,0,0
52953.6,65.312,-2307.61,0,0
53213.925,65.3917,-2296.02,0,0
53474.25,65.2919,-2284.78,0,0
53734.575,64.8999,-2273.49,0,0
53994.9,64.5382,-2262.27,0,0
54255.225,64.2558,-2250.84,0,0
54515.55,63.9179,-2239.72,0,0
54775.875,63.6363,-2228.63,0,0
55036.2,63.425,-2217.7,0,0
55296.525,63.199,-2206.78,0,0
55556.85,63.0106,-2196.13,0,0
55817.175,62.7359,-2185.48,0,0
56077.5,62.5356,-2174.84,0,0
56337.825,62.5149,-2164.24,0,0
56598.15,62.5091,-2154.04,0,0
56858.475,62.1787,-2143.8,0,0
57118.8,62.1204,-2133.69,0,0
57379.125,61.867,-2123.79,0,0
57639.45,61.6529,-2113.71,0,0
57899.775,61.411,-2103.52,0,0
58160.1,61.491,-2093.53,0,0
58420.4,61.8126,-2083.9,0,0
58680.7,61.8902,-2074.51,0,0
58941.1,61.7544,-2065.23,0,0
59201.4,61.5566,-2055.86,0,0
59461.7,61.6613,-2046.29,0,0
59722,61.8113,-2037.24,0,0
59982.4,61.7105,-2028.46,0,0
60242.7,61.8508,-2019.59,0,0
60503,61.6309,-2011.21,0,0
60763.3,61.1416,-2002.47,0,0
61023.7,60.7612,-1993.91,0,0
61284,60.3328,-1985.01,0,0
61544.3,60.0997,-1976.3,0,0
61804.6,59.633,-1967.88,0,0
62065,59.1494,-1959.2,0,0
62325.3,58.7346,-1950.55,0,0
62585.6,58.6085,-1942.06,0,0
62845.9,58.4305,-1933.51,0,0
63106.3,58.1721,-1925.06,0,0
63366.6,58.0372,-1916.8,0,0
63626.9,58.082,-1908.54,0,0
63887.2,57.5561,-1900.44,0,0
64147.6,57.1592,-1892.4,0,0
64407.9,57.109,-1884.17,0,0
64668.2,56.9,-1876.05,0,0
64928.5,56.8371,-1867.99,0,0
65188.9,57.0427,-1860.1,0,0
65449.2,57.1827,-1852.4,0,0
65709.5,57.2666,-1845.09,0,0
65969.8,57.0291,-1837.58,0,0
66230.2,56.7707,-1830.21,0,0
66490.5,56.6001,-1822.88,0,0
66750.8,56.3404,-1815.58,0,0
67011.1,55.8511,-1808.4,0,0
67271.5,55.3482,-1800.85,0,0
67531.8,54.868,-1793.48,0,0
67792.1,54.8773,-1786.04,0,0
68052.4,54.5952,-1778.71,0,0
68312.8,54.2921,-1771.39,0,0
68573.1,54.1334,-1764.09,0,0
68833.4,54.0025,-1757.01,0,0
69093.7,53.8338,-1749.88,0,0
69354.1,53.773,-1742.78,0,0
69614.4,53.6118,-1735.81,0,0
69874.7,53.5443,-1728.85,0,0
70135,53.6044,-1722.06,0,0
70395.4,53.4164,-1715.31,0,0
70655.7,53.409,-1708.52,0,0
70916,53.3868,-1701.88,0,0
71176.3,53.2354,-1695.46,0,0
71436.7,53.1576,-1688.96,0,0
71697,52.9182,-1682.53,0,0
71957.3,52.6946,-1675.96,0,0
72217.6,52.4375,-1669.57,0,0
72478,52.2944,-1663.05,0,0
72738.3,52.0949,-1656.64,0,0
72998.6,51.9045,-1650.3,0,0
73258.9,51.7499,-1643.94,0,0
73519.3,51.6353,-1637.55,0,0
73779.6,51.4568,-1631.32,0,0
74039.9,51.2713,-1625.06,0,0
74300.225,51.1822,-1618.83,0,0
74560.55,51.1411,-1612.75,0,0
74820.875,50.9878,-1606.64,0,0
75081.2,50.8601,-1600.53,0,0
75341.525,50.8348,-1594.58,0,0
75601.85,50.7749,-1588.58,0,0
75862.175,50.6571,-1582.61,0,0
76122.5,50.4732,-1576.73,0,0
76382.825,50.4487,-1570.82,0,0
76643.15,50.4349,-1564.97,0,0
76903.475,50.3109,-1559.18,0,0
77163.8,50.2089,-1553.42,0,0
77424.125,50.0995,-1547.67,0,0
77684.45,50.084,-1541.92,0,0
77944.775,50.0616,-1536.36,0,0
78205.1,49.9971,-1530.75,0,0
78465.425,49.9168,-1525.12,0,0
78725.75,49.8407,-1519.53,0,0
78986.075,49.8113,-1514.01,0,0
79246.4,49.7325,-1508.54,0,0
79506.725,49.7414,-1503.04,0,0
79767.05,49.7393,-1497.62,0,0
80027.375,49.7032,-1492.27,0,0
80287.7,49.6447,-1486.95,0,0
80548.025,49.6741,-1481.61,0,0
80808.35,49.5988,-1476.41,0,0
81068.675,49.4465,-1471.14,0,0
81329.0,49.4268,-1465.88,0,0
81589.325,49.3791,-1460.66,0,0
81849.65,49.3888,-1455.44,0,0
82109.975,49.3359,-1450.35,0,0
82370.3,49.2656,-1445.19,0,0
82630.625,49.3213,-1440.11,0,0
82890.95,49.336,-1435.15,0,0
83151.275,49.2768,-1430.11,0,0
83411.6,49.2407,-1424.98,0,0
83671.925,49.2338,-1419.97,0,0
83932.25,49.298,-1414.97,0,0
84192.575,49.2842,-1410.02,0,0
84452.9,49.3018,-1405.11,0,0
84713.225,49.38,-1400.34,0,0
84973.55,49.4313,-1395.49,0,0
85233.875,49.5212,-1390.64,0,0
85494.2,49.6095,-1386.03,0,0
85754.525,49.5577,-1381.25,0,0
86014.85,49.4885,-1376.55,0,0
86275.175,49.5577,-1371.82,0,0
86535.5,49.5711,-1367.21,0,0
86795.825,49.577,-1362.53,0,0
87056.15,49.5844,-1357.96,0,0
87316.475,49.6177,-1353.31,0,0
87576.8,49.6122,-1348.7,0,0
87837.125,49.6275,-1344.16,0,0
88097.45,49.8524,-1339.66,0,0
88357.775,49.9339,-1335.28,0,0
88618.1,49.9281,-1330.83,0,0
88878.425,50.0775,-1326.53,0,0
89138.75,49.8458,-1321.96,0,0
89399.075,49.7953,-1317.58,0,0
89659.4,49.7229,-1313.07,0,0
89919.725,49.8176,-1308.64,0,0
90180,49.8941,-1304.21,0,0
90440.4,50.0971,-1299.82,0,0
90700.7,50.2083,-1295.46,0,0
90961,50.3236,-1291.21,0,0
91221.3,50.3119,-1286.94,0,0
91481.7,50.5267,-1282.66,0,0
91742,50.6682,-1278.64,0,0
92002.3,50.7098,-1274.38,0,0
92262.6,51.0048,-1270.18,0,0
92523,51.0838,-1266.19,0,0
92783.3,51.0658,-1262.28,0,0
93043.6,50.9751,-1258.14,0,0
93303.9,50.9689,-1253.82,0,0
93564.3,51.1104,-1249.53,0,0
93824.6,51.3215,-1245.31,0,0
94084.9,51.9161,-1241.13,0,0
94345.2,52.5153,-1237.52,0,0
94605.6,52.679,-1233.91,0,0
94865.9,52.6819,-1230.4,0,0
95126.2,52.6208,-1226.55,0,0
95386.5,52.9065,-1222.75,0,0
95646.9,52.8132,-1219.44,0,0
95907.2,52.3947,-1215.73,0,0
96167.5,52.279,-1211.65,0,0
96427.8,52.295,-1207.93,0,0
96688.2,51.974,-1204.05,0,0
96948.5,51.9055,-1200.08,0,0
97208.8,51.9299,-1196.11,0,0
97469.1,51.8172,-1192.14,0,0
97729.5,51.9262,-1187.99,0,0
97989.8,52.33,-1184.11,0,0
98250.1,52.5044,-1180.42,0,0
98510.4,52.8665,-1176.63,0,0
98770.8,53.0175,-1173.27,0,0
99031.1,52.8977,-1169.7,0,0
99291.4,52.9311,-1165.99,0,0
99551.7,52.8521,-1162.32,0,0
99812.1,52.7128,-1158.34,0,0
100072,52.9999,-1154.44,0,0
100333,53.3042,-1150.82,0,0
100593,53.4032,-1147.25,0,0
100853,53.3361,-1143.44,0,0
101114,53.6282,-1139.45,0,0
101374,54.1773,-1135.83,0,0
101634,54.4661,-1132.43,0,0
101895,54.6869,-1128.86,0,0
102155,54.8728,-1125.25,0,0
102415,55.1455,-1121.58,0,0
102676,55.6294,-1118,0,0
102936,55.9616,-1114.38,0,0
103196,56.5556,-1110.76,0,0
103457,57.3843,-1107.41,0,0
103717,58.1452,-1104.35,0,0
103977,58.6335,-1101.81,0,0
104238,58.4041,-1098.85,0,0
104498,58.5998,-1095.35,0,0
104758,59.2172,-1092.3,0,0
105019,59.4087,-1089.58,0,0
105279,59.279,-1086.67,0,0
105539,59.2395,-1083.55,0,0
105800,59.2655,-1080.48,0,0
106060,59.0928,-1077.42,0,0
106320.175,58.8333,-1074.07,0,0
106580.5,58.7785,-1070.6,0,0
106840.825,59.0101,-1067.07,0,0
107101.15,59.4065,-1063.7,0,0
107361.475,59.6975,-1060.62,0,0
107621.8,59.8542,-1057.42,0,0
107882.125,60.1275,-1054.26,0,0
108142.45,60.3705,-1051.21,0,0
108402.775,60.5345,-1048.23,0,0
108663.1,60.6081,-1045.18,0,0
108923.425,60.5939,-1042.08,0,0
109183.75,60.4686,-1038.78,0,0
109444.075,60.7471,-1035.46,0,0
109704.4,60.761,-1032.32,0,0
109964.725,60.7135,-1029.05,0,0
110225.05,60.7206,-1025.5,0,0
110485.375,60.9657,-1021.78,0,0
110745.7,61.5767,-1018.22,0,0
111006.025,62.1139,-1014.62,0,0
111266.35,62.9166,-1011.24,0,0
111526.675,63.5676,-1008.28,0,0
111787.0,64.0373,-1005.04,0,0
112047.325,64.7607,-1001.74,0,0
112307.65,65.4832,-998.385,0,0
112567.975,66.4017,-995.223,0,0
112828.3,67.4445,-991.999,0,0
113088.625,68.6541,-989.112,0,0
113348.95,69.7408,-986.266,0,0
113609.275,70.8305,-983.816,0,0
113869.6,71.6273,-981.214,0,0
114129.925,72.4191,-978.53,0,0
114390.25,73.3288,-975.861,0,0
114650.575,74.3331,-973.244,0,0
114910.9,75.2332,-970.637,0,0
115171.225,76.3221,-968.067,0,0
115431.55,77.3151,-965.519,0,0
115691.875,78.4805,-962.854,0,0
115952.2,80.1189,-960.318,0,0
116212.525,81.7208,-958.244,0,0
116472.85,83.316,-956.401,0,0
116733.175,84.9611,-954.92,0,0
116993.5,86.4071,-953.728,0,0
117253.825,87.5827,-952.911,0,0
117514.15,88.2344,-952.092,0,0
117774.475,88.6451,-951.206,0,0
118034.8,88.7978,-950.11,0,0
118295.125,89.0688,-948.631,0,0
118555.45,89.8565,-947.149,0,0
118815.775,90.8133,-946.285,0,0
119076.1,91.2765,-945.739,0,0
119336.425,91.6838,-945.176,0,0
119596.75,92.0737,-945.098,0,0
119857.075,91.7617,-945.635,0,0
120117.4,90.3644,-945.914,0,0
120377.725,88.6164,-945.502,0,0
120638.05,86.8492,-944.905,0,0
120898.375,84.7472,-943.951,0,0
121158.7,82.3678,-942.672,0,0
121419.025,79.8465,-940.529,0,0
121679.35,77.9504,-937.813,0,0
121939.675,76.5881,-935.328,0,0
122200.0,75.0911,-932.978,0,0
122460,73.4924,-930.366,0,0
122721,72.2208,-927.524,0,0
122981,71.1099,-924.81,0,0
123241,70.0359,-922.195,0,0
123502,68.8237,-919.436,0,0
123762,67.7274,-916.459,0,0
124022,66.8558,-913.412,0,0
124283,66.2153,-910.466,0,0
124543,65.6247,-907.57,0,0
124803,65.2192,-904.818,0,0
125064,64.7347,-902.336,0,0
125324,63.9349,-899.881,0,0
125584,62.98,-897.233,0,0
125845,62.1155,-894.33,0,0
126105,61.474,-891.289,0,0
126365,60.935,-888.439,0,0
126626,60.3427,-885.652,0,0
126886,59.7215,-882.806,0,0
127146,59.0681,-879.876,0,0
127406,58.4605,-876.818,0,0
127667,58.0386,-873.742,0,0
127927,57.7739,-870.834,0,0
128187,57.3492,-867.864,0,0
128448,57.0381,-864.939,0,0
128708,56.729,-862.024,0,0
128968,56.3965,-859.095,0,0
129229,56.1119,-856.084,0,0
129489,55.9874,-853.149,0,0
129749,55.7318,-850.275,0,0
130010,55.4566,-847.375,0,0
130270,55.3009,-844.371,0,0
130530,55.2273,-841.366,0,0
130791,55.1749,-838.541,0,0
131051,55.0719,-835.8,0,0
131311,54.7739,-833.015,0,0
131572,54.4317,-829.972,0,0
131832,54.2742,-826.886,0,0
132092,54.2124,-823.743,0,0
132353,54.2529,-820.722,0,0
132613,54.2636,-817.685,0,0
132873,54.3356,-814.586,0,0
133134,54.4676,-811.452,0,0
133394,54.6248,-808.341,0,0
133654,54.9404,-805.228,0,0
133915,55.3339,-802.172,0,0
134175,55.7632,-799.121,0,0
134435,56.2389,-796.095,0,0
134696,56.8455,-793.094,0,0
134956,57.5746,-790.241,0,0
135216,58.3238,-787.353,0,0
135477,59.2495,-784.648,0,0
135737,60.1933,-782.073,0,0
135997,61.2572,-779.73,0,0
136258,62.2942,-777.746,0,0
136518,63.0537,-776.031,0,0
136778,63.5286,-774.345,0,0
137039,63.816,-772.812,0,0
137299,63.583,-771.075,0,0
137559,63.3988,-768.978,0,0
137819,63.3009,-766.876,0,0
138080,63.1198,-764.772,0,0
138340.125,62.7748,-762.601,0,0
138600.45,62.4344,-760.226,0,0
138860.775,62.0206,-757.727,0,0
139121.1,61.7452,-754.948,0,0
139381.425,61.7217,-752.156,0,0
139641.75,61.8157,-749.51,0,0
139902.075,61.7923,-746.887,0,0
140162.4,61.8795,-744.157,0,0
140422.725,62.0659,-741.513,0,0
140683.05,62.2084,-738.972,0,0
140943.375,62.2506,-736.381,0,0
141203.7,62.3465,-733.725,0,0
141464.025,62.4417,-731.106,0,0
141724.35,62.4339,-728.443,0,0
141984.675,62.5381,-725.569,0,0
142245.0,62.8401,-722.748,0,0
142505.325,63.118,-720.073,0,0
142765.65,63.3303,-717.342,0,0
143025.975,63.6383,-714.49,0,0
143286.3,64.0541,-711.681,0,0
143546.625,64.5815,-708.959,0,0
143806.95,65.0937,-706.363,0,0
144067.275,65.5716,-703.803,0,0
144327.6,66.0319,-701.298,0,0
144587.925,66.4842,-698.813,0,0
144848.25,66.8599,-696.379,0,0
145108.575,67.2042,-693.877,0,0
145368.9,67.6426,-691.472,0,0
145629.225,67.8659,-689.207,0,0
145889.55,67.8369,-686.749,0,0
146149.875,67.862,-684.007,0,0
146410.2,68.1296,-681.18,0,0
146670.525,68.4896,-678.472,0,0
146930.85,68.7586,-675.772,0,0
147191.175,69.1849,-672.969,0,0
147451.5,69.6237,-670.423,0,0
147711.825,69.8555,-667.808,0,0
147972.15,70.1227,-665.012,0,0
148232.475,70.5363,-662.282,0,0
148492.8,70.9407,-659.615,0,0
148753.125,71.3086,-657.034,0,0
149013.45,71.4916,-654.432,0,0
149273.775,71.5781,-651.747,0,0
149534.1,71.6143,-648.861,0,0
149794.425,71.7038,-645.836,0,0
150054.75,71.8731,-642.706,0,0
150315.075,72.1063,-639.515,0,0
150575.4,72.4404,-636.309,0,0
150835.725,72.768,-633.044,0,0
151096.05,73.1469,-629.686,0,0
151356.375,73.581,-626.23,0,0
151616.7,74.1216,-622.723,0,0
151877.025,74.7846,-619.174,0,0
152137.35,75.5634,-615.574,0,0
152397.675,76.4152,-611.993,0,0
152658.0,77.3924,-608.361,0,0
152918.325,78.4697,-604.691,0,0
153178.65,79.6918,-601.086,0,0
153438.975,81.0455,-597.563,0,0
153699.3,82.3309,-594.13,0,0
153959.625,83.5866,-590.599,0,0
154219.95,84.992,-586.935,0,0
154480,86.6153,-583.276,0,0
154741,88.2161,-579.669,0,0
155001,90.1373,-576.127,0,0
155261,92.0724,-572.671,0,0
155522,94.0233,-569.21,0,0
155782,96.1713,-565.767,0,0
156042,98.3858,-562.452,0,0
156303,100.846,-559.193,0,0
156563,103.222,-556.216,0,0
156823,105.745,-553.249,0,0
157084,108.187,-550.381,0,0
157344,110.701,-547.674,0,0
157604,113.375,-544.971,0,0
157864,115.952,-542.574,0,0
158125,118.479,-540.49,0,0
158385,120.758,-538.316,0,0
158645,123.045,-536.173,0,0
158906,125.265,-534.273,0,0
159166,127.312,-532.517,0,0
159426,129.038,-530.955,0,0
159687,130.245,-529.297,0,0
159947,130.91,-527.278,0,0
160207,131.453,-524.673,0,0
160468,132.084,-521.495,0,0
160728,132.894,-517.943,0,0
160988,134.088,-514.115,0,0
161249,135.204,-510.088,0,0
161509,136.577,-505.515,0,0
161769,138.568,-500.582,0,0
162030,141.194,-495.566,0,0
162290,144.223,-490.674,0,0
162550,147.764,-485.989,0,0
162811,151.37,-481.408,0,0
163071,155.123,-476.866,0,0
163331,159.282,-472.228,0,0
163592,163.898,-467.526,0,0
163852,169.091,-463.057,0,0
164112,174.586,-458.996,0,0
164373,180.361,-455.386,0,0
164633,185.988,-451.795,0,0
164893,192.192,-448.567,0,0
165154,198.293,-445.88,0,0
165414,204.149,-443.168,0,0
165674,209.954,-440.29,0,0
165935,215.932,-437.161,0,0
166195,222.467,-433.55,0,0
166455,229.999,-429.765,0,0
166716,238.813,-426.36,0,0
166976,248.514,-424.209,0,0
167236,258.374,-423.086,0,0
167497,268.468,-422.674,0,0
167757,278.578,-423.195,0,0
168017,288.614,-424.444,0,0
168277,298.69,-426.245,0,0
168538,309.035,-428.929,0,0
168798,319.256,-432.914,0,0
169058,328.782,-437.648,0,0
169319,338.029,-443.119,0,0
169579,346.591,-449.647,0,0
169839,353.828,-456.173,0,0
170100,361.067,-462.381,0,0
170360.075,368.614,-468.674,0,0
170620.4,376.951,-476.073,0,0
170880.725,384.783,-485.825,0,0
171141.05,390.482,-496.852,0,0
171401.375,394.268,-507.895,0,0
171661.7,396.632,-518.359,0,0
171922.025,398.308,-527.947,0,0
172182.35,400.233,-537.205,0,0
172442.675,402.191,-547.179,0,0
172703.0,403.291,-558.175,0,0
172963.325,402.882,-569.863,0,0
173223.65,400.395,-581.603,0,0
173483.975,395.957,-592.249,0,0
173744.3,390.45,-601.539,0,0
174004.625,384.351,-609.376,0,0
174264.95,378.106,-616.321,0,0
174525.275,371.201,-622.295,0,0
174785.6,364.269,-627.012,0,0
175045.925,357.179,-631.007,0,0
175306.25,349.677,-633.742,0,0
175566.575,342.352,-635.235,0,0
175826.9,334.818,-635.024,0,0
176087.225,328.689,-632.221,0,0
176347.55,325.657,-628.556,0,0
176607.875,324.934,-625.88,0,0
176868.2,325.266,-624.345,0,0
177128.525,326.243,-623.909,0,0
177388.85,327.694,-624.2,0,0
177649.175,329.835,-625.561,0,0
177909.5,332.028,-628.101,0,0
178169.825,334.695,-631.675,0,0
178430.15,337.493,-637.498,0,0
178690.475,338.779,-645.861,0,0
178950.8,337.01,-655.515,0,0
179211.125,332.262,-664.314,0,0
179471.45,326.062,-671.532,0,0
179731.775,319.181,-677.67,0,0
179992.1,311.169,-682.756,0,0
180252.425,302.74,-685.678,0,0
180512.75,295.443,-687.196,0,0
180773.075,289.199,-688.621,0,0
181033.4,283.475,-690.488,0,0
181293.725,277.55,-693.457,0,0
181554.05,269.669,-696.847,0,0
181814.375,260.189,-698.415,0,0
182074.7,250.763,-698.251,0,0
182335.025,241.921,-696.954,0,0
182595.35,233.346,-695.045,0,0
182855.675,224.917,-692.225,0,0
183116.0,217.093,-688.285,0,0
183376.325,210.423,-683.809,0,0
183636.65,204.634,-679.503,0,0
183896.975,199.001,-675.398,0,0
184157.3,193.283,-670.982,0,0
184417.625,187.826,-665.855,0,0
184677.95,183.213,-660.048,0,0
184938.275,179.924,-654.192,0,0
185198.6,177.59,-649.239,0,0
185458.925,175.11,-645.286,0,0
185719.25,172.027,-641.65,0,0
185979.575,168.387,-637.647,0,0
186239.9,164.688,-632.88,0,0
186500,161.664,-627.521,0,0
186761,159.286,-622.327,0,0
187021,156.929,-617.28,0,0
187281,154.669,-611.791,0,0
187542,153.152,-605.946,0,0
187802,152.505,-600.338,0,0
188062,152.323,-595.238,0,0
188322,152.58,-590.649,0,0
188583,153.017,-586.968,0,0
188843,152.896,-584.232,0,0
189103,151.745,-581.572,0,0
189364,150.016,-578.388,0,0
189624,148.203,-574.689,0,0
189884,146.475,-570.602,0,0
190145,144.869,-566.215,0,0
190405,143.494,-561.498,0,0
190665,142.461,-556.77,0,0
190926,141.353,-552.071,0,0
191186,140.269,-546.839,0,0
191446,139.872,-541.271,0,0
191707,140.033,-535.905,0,0
191967,140.507,-530.871,0,0
192227,140.984,-526.136,0,0
192488,141.333,-521.456,0,0
192748,141.737,-516.61,0,0
193008,142.343,-511.684,0,0
193269,143.136,-506.877,0,0
193529,144.019,-502.096,0,0
193789,144.971,-497.341,0,0
194050,145.982,-492.507,0,0
194310,147.192,-487.533,0,0
194570,148.662,-482.537,0,0
194831,150.428,-477.578,0,0
195091,152.468,-472.708,0,0
195351,154.771,-468.141,0,0
195612,157.076,-463.763,0,0
195872,159.273,-459.555,0,0
196132,161.717,-455.258,0,0
196393,164.249,-451.088,0,0
196653,166.848,-447.033,0,0
196913,169.625,-443.202,0,0
197174,172.282,-439.563,0,0
197434,174.838,-435.956,0,0
197694,177.396,-432.242,0,0
197955,180.011,-428.62,0,0
198215,182.61,-424.983,0,0
198475,185.238,-421.254,0,0
198735,187.977,-417.515,0,0
198996,190.836,-413.81,0,0
199256,193.719,-410.162,0,0
199516,196.513,-406.488,0,0
199777,199.386,-402.59,0,0
200037,202.412,-398.488,0,0
200297,205.674,-394.165,0,0
200558,209.375,-389.839,0,0
200818,213.472,-385.598,0,0
201078,217.786,-381.688,0,0
201339,221.985,-378.023,0,0
201599,226.142,-374.043,0,0
201859,230.733,-369.823,0,0
202120,235.842,-365.575,0,0
202380.025,241.55,-361.677,0,0
202640.35,247.543,-358.244,0,0
202900.675,253.45,-355.103,0,0
203161.0,259.521,-352.001,0,0
203421.325,266.009,-348.974,0,0
203681.65,272.784,-346.211,0,0
203941.975,279.892,-343.985,0,0
204202.3,287.161,-342.172,0,0
204462.625,294.467,-340.801,0,0
204722.95,301.814,-339.865,0,0
204983.275,309.067,-339.275,0,0
205243.6,316.227,-338.916,0,0
205503.925,323.46,-338.648,0,0
205764.25,331.127,-338.768,0,0
206024.575,338.776,-339.562,0,0
206284.9,346.255,-341.065,0,0
206545.225,353.289,-342.968,0,0
206805.55,360.092,-345.299,0,0
207065.875,366.282,-348.251,0,0
207326.2,371.533,-351.217,0,0
207586.525,376.088,-353.801,0,0
207846.85,380.204,-355.897,0,0
208107.175,383.989,-357.237,0,0
208367.5,387.778,-357.536,0,0
208627.825,392.168,-356.666,0,0
208888.15,398.248,-354.949,0,0
209148.475,406.19,-353.537,0,0
209408.8,415.75,-353.249,0,0
209669.125,426.256,-354.651,0,0
209929.45,437.056,-357.928,0,0
210189.775,447.242,-362.712,0,0
210450.1,456.908,-368.623,0,0
210710.425,466.174,-375.532,0,0
210970.75,474.705,-383.519,0,0
211231.075,482.421,-392.313,0,0
211491.4,489.1,-402.054,0,0
211751.725,494.28,-412.507,0,0
212012.05,497.722,-422.861,0,0
212272.375,499.97,-432.412,0,0
212532.7,501.71,-441.086,0,0
212793.025,503.577,-449.208,0,0
213053.35,505.553,-457.557,0,0
213313.675,507.145,-466.311,0,0
213574.0,507.992,-475.108,0,0
213834.325,508.32,-483.736,0,0
214094.65,508.298,-492.381,0,0
214354.975,507.663,-501.113,0,0
214615.3,506.068,-509.904,0,0
214875.625,503.367,-518.17,0,0
215135.95,499.977,-525.348,0,0
215396.275,496.512,-531.257,0,0
215656.6,493.64,-536.423,0,0
215916.925,491.411,-541.48,0,0
216177.25,489.415,-546.656,0,0
216437.575,487.453,-552.14,0,0
216697.9,485.354,-557.825,0,0
216958.225,482.943,-563.806,0,0
217218.55,480.059,-569.999,0,0
217478.875,476.499,-576.185,0,0
217739.2,472.125,-582.134,0,0
217999.525,467.08,-587.596,0,0
218259.85,461.568,-592.284,0,0
218520,455.994,-596.198,0,0
218780,450.591,-599.818,0,0
219041,444.809,-603.396,0,0
219301,438.31,-606.59,0,0
219561,431.171,-608.626,0,0
219822,423.971,-609.336,0,0
220082,417.352,-608.916,0,0
220342,411.363,-607.865,0,0
220603,405.951,-606.183,0,0
220863,401.196,-604.058,0,0
221123,397.095,-601.585,0,0
221384,393.659,-598.997,0,0
221644,390.682,-596.442,0,0
221904,388.047,-593.621,0,0
222165,386.059,-590.55,0,0
222425,384.775,-587.465,0,0
222685,384.17,-584.617,0,0
222946,384.098,-582.192,0,0
223206,384.117,-580.255,0,0
223466,384.131,-578.495,0,0
223727,384.213,-576.714,0,0
223987,384.556,-574.918,0,0
224247,385.188,-573.148,0,0
224508,386.057,-571.631,0,0
224768,386.991,-570.184,0,0
225028,388.117,-568.685,0,0
225289,389.629,-566.771,0,0
225549,391.824,-565.125,0,0
225809,394.489,-563.874,0,0
226070,397.582,-563.109,0,0
226330,401.037,-562.77,0,0
226590,404.866,-563.096,0,0
226851,408.737,-564.293,0,0
227111,412.193,-566.173,0,0
227371,415.253,-568.277,0,0
227632,418.21,-570.382,0,0
227892,421.174,-572.616,0,0
228152,424.485,-575.076,0,0
228413,428.041,-578.068,0,0
228673,431.648,-581.951,0,0
228933,434.873,-586.538,0,0
229193,437.713,-591.775,0,0
229454,439.917,-597.579,0,0
229714,441.375,-603.737,0,0
229974,441.965,-609.823,0,0
230235,442.325,-615.57,0,0
230495,442.759,-621.492,0,0
230755,443.034,-628.117,0,0
231016,442.278,-635.326,0,0
231276,440.372,-642.387,0,0
231536,437.87,-648.783,0,0
231797,435.201,-654.841,0,0
232057,432.297,-660.805,0,0
232317,429.101,-666.557,0,0
232578,425.766,-672.265,0,0
232838,422.259,-677.998,0,0
233098,418.394,-683.979,0,0
233359,414.049,-690.035,0,0
233619,409.104,-696.371,0,0
233879,403.018,-702.931,0,0
234140,395.468,-708.938,0,0
234400,387,-713.815,0,0
234660.3,377.888,-717.707,0,0
234920.625,368.208,-720.343,0,0
235180.95,358.317,-721.545,0,0
235441.275,348.59,-721.179,0,0
235701.6,339.7,-719.484,0,0
235961.925,331.941,-716.893,0,0
236222.25,325.179,-714.101,0,0
236482.575,319.085,-711.179,0,0
236742.9,313.665,-707.95,0,0
237003.225,309.327,-704.928,0,0
237263.55,305.455,-702.712,0,0
237523.875,301.199,-701.056,0,0
237784.2,296.577,-699.215,0,0
238044.525,291.787,-697.222,0,0
238304.85,286.643,-694.805,0,0
238565.175,281.481,-691.599,0,0
238825.5,276.626,-687.43,0,0
239085.825,272.818,-682.658,0,0
239346.15,270.082,-677.699,0,0
239606.475,268.385,-673.043,0,0
239866.8,267.131,-668.984,0,0
240127.125,266.368,-665.139,0,0
240387.45,266.153,-661.801,0,0
240647.775,266.413,-659.404,0,0
240908.1,266.371,-658.028,0,0
241168.425,265.52,-657.092,0,0
241428.75,264.01,-655.901,0,0
241689.075,262.52,-654.568,0,0
241949.4,261.128,-653.262,0,0
242209.725,259.396,-652.272,0,0
242470.05,256.963,-651.311,0,0
242730.375,254.005,-649.696,0,0
242990.7,250.911,-647.169,0,0
243251.025,248.436,-643.843,0,0
243511.35,246.643,-640.386,0,0
243771.675,245.168,-637.066,0,0
244032.0,243.714,-633.604,0,0
244292.325,242.67,-629.665,0,0
244552.65,242.335,-625.571,0,0
244812.975,242.667,-621.719,0,0
245073.3,243.587,-618.051,0,0
245333.625,245.06,-614.887,0,0
245593.95,246.893,-612.473,0,0
245854.275,248.713,-610.777,0,0
246114.6,250.242,-609.646,0,0
246374.925,251.296,-608.834,0,0
246635.25,252.075,-608.032,0,0
246895.575,252.81,-607.19,0,0
247155.9,253.379,-606.456,0,0
247416.225,253.76,-605.976,0,0
247676.55,253.766,-605.285,0,0
247936.875,253.817,-604.291,0,0
248197.2,254.055,-603.192,0,0
248457.525,254.418,-602.109,0,0
248717.85,254.849,-601.163,0,0
248978.175,255.333,-600.21,0,0
249238.5,255.914,-599.363,0,0
249498.825,256.444,-598.534,0,0
249759.15,257.148,-597.73,0,0
250019.475,258.014,-597.085,0,0
250279.8,258.841,-596.753,0,0
250540,259.508,-596.608,0,0
250800,259.995,-596.448,0,0
251061,260.457,-596.221,0,0
251321,260.939,-595.969,0,0
251581,261.594,-595.767,0,0
251842,262.286,-595.717,0,0
252102,263.045,-595.813,0,0
252362,263.778,-596.172,0,0
252623,264.38,-596.711,0,0
252883,264.84,-597.395,0,0
253143,265.094,-598.169,0,0
253404,265.213,-598.888,0,0
253664,265.375,-599.696,0,0
253924,265.486,-600.652,0,0
254185,265.388,-601.875,0,0
254445,264.988,-603.215,0,0
254705,264.238,-604.55,0,0
254966,263.172,-605.773,0,0
255226,261.89,-606.824,0,0
255486,260.432,-607.745,0,0
255747,258.722,-608.536,0,0
256007,256.793,-609.076,0,0
256267,254.786,-609.278,0,0
256528,252.78,-609.144,0,0
256788,250.881,-608.752,0,0
257048,249.152,-608.23,0,0
257309,247.456,-607.675,0,0
257569,245.705,-607.039,0,0
257829,243.916,-606.163,0,0
258090,242.233,-605.099,0,0
258350,240.658,-603.813,0,0
258610,239.211,-602.373,0,0
258871,237.991,-600.813,0,0
259131,236.95,-599.166,0,0
259391,236.098,-597.543,0,0
259651,235.295,-595.914,0,0
259912,234.591,-594.339,0,0
260172,233.966,-592.573,0,0
260432,233.404,-590.792,0,0
260693,232.95,-588.885,0,0
260953,232.672,-586.867,0,0
261213,232.615,-584.773,0,0
261474,232.712,-582.605,0,0
261734,233.041,-580.317,0,0
261994,233.773,-577.923,0,0
262255,234.949,-575.512,0,0
262515,236.638,-573.311,0,0
262775,238.792,-571.475,0,0
263036,241.184,-570.089,0,0
263296,243.794,-569.166,0,0
263556,246.466,-568.74,0,0
263817,249.209,-568.873,0,0
264077,251.731,-569.526,0,0
264337,253.983,-570.742,0,0
264598,255.725,-572.286,0,0
264858,256.902,-573.882,0,0
265118,257.741,-575.423,0,0
265379,258.291,-576.808,0,0
265639,258.602,-578.033,0,0
265899,258.833,-579.009,0,0
266160,259.115,-579.816,0,0
266420,259.496,-580.53,0,0
266680.25,260.018,-581.2,0,0
266940.575,260.625,-581.975,0,0
267200.9,261.391,-582.836,0,0
267461.225,262.198,-583.938,0,0
267721.55,262.955,-585.341,0,0
267981.875,263.503,-586.957,0,0
268242.2,263.702,-588.697,0,0
268502.525,263.671,-590.305,0,0
268762.85,263.464,-591.806,0,0
269023.175,263.21,-593.155,0,0
269283.5,262.881,-594.34,0,0
269543.825,262.675,-595.26,0,0
269804.15,262.699,-596.125,0,0
270064.475,262.958,-597.053,0,0
270324.8,263.468,-598.118,0,0
270585.125,264.193,-599.486,0,0
270845.45,264.928,-601.193,0,0
271105.775,265.602,-603.213,0,0
271366.1,266.18,-605.379,0,0
271626.425,266.805,-607.683,0,0
271886.75,267.691,-610.273,0,0
272147.075,268.686,-613.563,0,0
272407.4,269.558,-617.636,0,0
272667.725,269.905,-622.586,0,0
272928.05,269.326,-628.251,0,0
273188.375,267.59,-634.172,0,0
273448.7,264.926,-640.002,0,0
273709.025,261.347,-645.719,0,0
273969.35,256.851,-651.307,0,0
274229.675,251.324,-656.499,0,0
274490.0,244.871,-660.926,0,0
274750.325,237.614,-664.379,0,0
275010.65,230.091,-666.781,0,0
275270.975,222.445,-668.219,0,0
275531.3,214.845,-668.807,0,0
275791.625,207.249,-668.654,0,0
276051.95,199.742,-667.792,0,0
276312.275,192.439,-666.084,0,0
276572.6,185.468,-663.68,0,0
276832.925,178.98,-660.673,0,0
277093.25,172.946,-657.219,0,0
277353.575,167.346,-653.345,0,0
277613.9,162.219,-649.088,0,0
277874.225,157.627,-644.474,0,0
278134.55,153.638,-639.634,0,0
278394.875,150.237,-634.655,0,0
278655.2,147.426,-629.635,0,0
278915.525,145.18,-624.703,0,0
279175.85,143.442,-619.905,0,0
279436.175,142.034,-615.4,0,0
279696.5,140.91,-611.076,0,0
279956.825,140.062,-606.93,0,0
280217.15,139.458,-602.925,0,0
280477.475,139.02,-599.158,0,0
280737.8,138.787,-595.536,0,0
280998.125,138.766,-592.199,0,0
281258.45,138.849,-589.172,0,0
281518.775,138.87,-586.43,0,0
281779.1,138.798,-583.862,0,0
282039.425,138.628,-581.382,0,0
282299.75,138.371,-578.977,0,0
282560,138.041,-576.603,0,0
282820,137.592,-574.204,0,0
283081,137.088,-571.7,0,0
283341,136.601,-569.057,0,0
283601,136.192,-566.287,0,0
283862,135.854,-563.452,0,0
284122,135.653,-560.468,0,0
284382,135.682,-557.362,0,0
284643,135.972,-554.221,0,0
284903,136.547,-551.171,0,0
285163,137.314,-548.278,0,0
285424,138.289,-545.547,0,0
285684,139.426,-543.003,0,0
285944,140.616,-540.671,0,0
286205,141.829,-538.548,0,0
286465,143.073,-536.557,0,0
286725,144.316,-534.765,0,0
286986,145.512,-533.138,0,0
287246,146.636,-531.675,0,0
287506,147.619,-530.334,0,0
287767,148.458,-529.052,0,0
288027,149.151,-527.744,0,0
288287,149.729,-526.366,0,0
288548,150.233,-524.851,0,0
288808,150.741,-523.196,0,0
289068,151.329,-521.408,0,0
289329,152.104,-519.522,0,0
289589,153.036,-517.684,0,0
289849,154.117,-515.916,0,0
290109,155.255,-514.206,0,0
290370,156.429,-512.566,0,0
290630,157.62,-510.979,0,0
290890,158.878,-509.355,0,0
291151,160.312,-507.768,0,0
291411,161.828,-506.341,0,0
291671,163.383,-505.048,0,0
291932,164.919,-503.833,0,0
292192,166.427,-502.685,0,0
292452,167.953,-501.579,0,0
292713,169.509,-500.512,0,0
292973,171.072,-499.533,0,0
293233,172.639,-498.631,0,0
293494,174.153,-497.736,0,0
293754,175.701,-496.841,0,0
294014,177.266,-495.931,0,0
294275,178.855,-495.043,0,0
294535,180.546,-494.195,0,0
294795,182.228,-493.413,0,0
295056,183.929,-492.609,0,0
295316,185.668,-491.773,0,0
295576,187.544,-490.92,0,0
295837,189.566,-490.088,0,0
296097,191.736,-489.382,0,0
296357,193.985,-488.774,0,0
296618,196.317,-488.26,0,0
296878,198.763,-487.855,0,0
297138,201.313,-487.579,0,0
297399,203.951,-487.461,0,0
297659,206.654,-487.529,0,0
297919,209.395,-487.761,0,0
298180,212.168,-488.168,0,0
298440,214.964,-488.763,0,0
298700.2,217.767,-489.503,0,0
298960.525,220.45,-490.473,0,0
299220.85,223.224,-491.543,0,0
299481.175,225.902,-492.748,0,0
299741.5,228.64,-494.041,0,0
300001.825,231.399,-495.507,0,0
300262.15,234.179,-497.095,0,0
300522.475,236.952,-498.88,0,0
300782.8,239.954,-500.882,0,0
301043.125,242.986,-503.16,0,0
301303.45,245.966,-505.762,0,0
301563.775,249.095,-508.706,0,0
301824.1,252.098,-512.111,0,0
302084.425,255.003,-515.943,0,0
302344.75,257.837,-520.44,0,0
302605.075,260.31,-525.629,0,0
302865.4,262.199,-531.398,0,0
303125.725,263.178,-537.647,0,0
303386.05,263.201,-544.056,0,0
303646.375,262.277,-550.339,0,0
303906.7,260.58,-556.262,0,0
304167.025,258.332,-561.711,0,0
304427.35,255.681,-566.663,0,0
304687.675,252.804,-571.21,0,0
304948.0,249.7,-575.447,0,0
305208.325,246.42,-579.405,0,0
305468.65,242.893,-583.056,0,0
305728.975,239.173,-586.368,0,0
305989.3,235.352,-589.337,0,0
306249.625,231.436,-592.013,0,0
306509.95,227.414,-594.428,0,0
306770.275,223.266,-596.549,0,0
307030.6,219.037,-598.347,0,0
307290.925,214.777,-599.767,0,0
307551.25,210.572,-600.898,0,0
307811.575,206.421,-601.747,0,0
308071.9,202.325,-602.348,0,0
308332.225,198.284,-602.733,0,0
308592.55,194.308,-602.856,0,0
308852.875,190.403,-602.75,0,0
309113.2,186.617,-602.368,0,0
309373.525,182.988,-601.808,0,0
309633.85,179.534,-601.071,0,0
309894.175,176.263,-600.201,0,0
310154.5,173.159,-599.231,0,0
310414.825,170.199,-598.215,0,0
310675.15,167.394,-597.112,0,0
310935.475,164.704,-595.971,0,0
311195.8,162.11,-594.777,0,0
311456.125,159.634,-593.514,0,0
311716.45,157.258,-592.203,0,0
311976.775,155.043,-590.829,0,0
312237.1,152.966,-589.476,0,0
312497.425,150.993,-588.188,0,0
312757.75,149.083,-586.926,0,0
313018.075,147.186,-585.69,0,0
313278.4,145.294,-584.425,0,0
313538.725,143.464,-583.142,0,0
313799.05,141.646,-581.808,0,0
314059.375,139.879,-580.464,0,0
314319.7,138.113,-579.07,0,0
314580,136.406,-577.573,0,0
314840,134.792,-575.999,0,0
315101,133.282,-574.387,0,0
315361,131.853,-572.735,0,0
315621,130.56,-571.07,0,0
315882,129.398,-569.409,0,0
316142,128.345,-567.765,0,0
316402,127.386,-566.165,0,0
316663,126.499,-564.617,0,0
316923,125.681,-563.092,0,0
317183,124.912,-561.634,0,0
317444,124.187,-560.207,0,0
317704,123.528,-558.84,0,0
317964,122.869,-557.514,0,0
318225,122.225,-556.206,0,0
318485,121.6,-554.932,0,0
318745,120.993,-553.648,0,0
319006,120.414,-552.363,0,0
319266,119.922,-551.076,0,0
319526,119.492,-549.786,0,0
319787,119.141,-548.539,0,0
320047,118.86,-547.367,0,0
320307,118.632,-546.259,0,0
320567,118.448,-545.25,0,0
320828,118.272,-544.337,0,0
321088,118.061,-543.522,0,0
321348,117.8,-542.766,0,0
321609,117.533,-542.026,0,0
321869,117.233,-541.332,0,0
322129,116.917,-540.668,0,0
322390,116.56,-540.05,0,0
322650,116.177,-539.46,0,0
322910,115.74,-538.893,0,0
323171,115.26,-538.31,0,0
323431,114.748,-537.711,0,0
323691,114.211,-537.07,0,0
323952,113.704,-536.431,0,0
324212,113.183,-535.8,0,0
324472,112.669,-535.156,0,0
324733,112.149,-534.529,0,0
324993,111.616,-533.895,0,0
325253,111.092,-533.256,0,0
325514,110.556,-532.598,0,0
325774,110.057,-531.941,0,0
326034,109.564,-531.295,0,0
326295,109.082,-530.67,0,0
326555,108.624,-530.079,0,0
326815,108.131,-529.519,0,0
327076,107.612,-528.978,0,0
327336,107.071,-528.436,0,0
327596,106.526,-527.874,0,0
327857,105.984,-527.338,0,0
328117,105.424,-526.822,0,0
328377,104.838,-526.316,0,0
328638,104.205,-525.819,0,0
328898,103.523,-525.312,0,0
329158,102.837,-524.751,0,0
329419,102.139,-524.14,0,0
329679,101.484,-523.543,0,0
329939,100.809,-522.918,0,0
330200,100.15,-522.319,0,0
330460,99.4924,-521.714,0,0
330720.15,98.8021,-521.148,0,0
330980.475,98.1534,-520.446,0,0
331240.8,97.5481,-519.89,0,0
331501.125,96.9301,-519.353,0,0
331761.45,96.1712,-518.861,0,0
332021.775,95.4436,-518.326,0,0
332282.1,94.6568,-517.87,0,0
332542.425,93.7617,-517.346,0,0
332802.75,92.7987,-516.74,0,0
333063.075,91.863,-516.085,0,0
333323.4,90.8819,-515.456,0,0
333583.725,89.8423,-514.622,0,0
333844.05,88.8107,-513.796,0,0
334104.375,87.8869,-512.934,0,0
334364.7,86.8992,-512.059,0,0
334625.025,85.8945,-511.071,0,0
334885.35,84.9736,-510.044,0,0
335145.675,84.1429,-508.978,0,0
335406.0,83.2311,-507.907,0,0
335666.325,82.3731,-506.846,0,0
335926.65,81.5428,-505.69,0,0
336186.975,80.756,-504.578,0,0
336447.3,79.966,-503.414,0,0
336707.625,79.1627,-502.237,0,0
336967.95,78.4282,-500.939,0,0
337228.275,77.6888,-499.649,0,0
337488.6,77.0034,-498.345,0,0
337748.925,76.4641,-497.028,0,0
338009.25,75.8121,-495.633,0,0
338269.575,75.3271,-494.345,0,0
338529.9,74.8527,-492.979,0,0
338790.225,74.4035,-491.632,0,0
339050.55,74.0136,-490.288,0,0
339310.875,73.6838,-488.979,0,0
339571.2,73.3242,-487.692,0,0
339831.525,72.9647,-486.445,0,0
340091.85,72.6277,-485.067,0,0
340352.175,72.3361,-483.831,0,0
340612.5,72.0652,-482.53,0,0
340872.825,71.8826,-481.273,0,0
341133.15,71.6172,-480.001,0,0
341393.475,71.4051,-478.654,0,0
341653.8,71.1905,-477.32,0,0
341914.125,71.0416,-476.086,0,0
342174.45,70.9502,-474.696,0,0
342434.775,70.9009,-473.497,0,0
342695.1,70.8154,-472.26,0,0
342955.425,70.806,-470.984,0,0
343215.75,70.8245,-469.708,0,0
343476.075,70.902,-468.511,0,0
343736.4,70.9641,-467.329,0,0
343996.725,71.0715,-466.031,0,0
344257.05,71.2057,-464.954,0,0
344517.375,71.3868,-463.811,0,0
344777.7,71.5993,-462.674,0,0
345038.025,71.8397,-461.693,0,0
345298.35,72.075,-460.748,0,0
345558.675,72.2623,-459.752,0,0
345819.0,72.4824,-458.869,0,0
346079.325,72.6547,-458.002,0,0
346339.65,72.8449,-457.171,0,0
346599.975,73.0321,-456.373,0,0
346860,73.1316,-455.567,0,0
347121,73.2235,-454.814,0,0
347381,73.2957,-454.112,0,0
347641,73.3779,-453.39,0,0
347902,73.3562,-452.683,0,0
348162,73.313,-451.954,0,0
348422,73.2449,-451.228,0,0
348683,73.147,-450.456,0,0
348943,73.0323,-449.639,0,0
349203,72.8557,-448.862,0,0
349464,72.7273,-447.916,0,0
349724,72.6236,-447.01,0,0
349984,72.5444,-446.063,0,0
350245,72.5238,-445.107,0,0
350505,72.4105,-444.142,0,0
350765,72.3396,-443.148,0,0
351025,72.3202,-442.125,0,0
351286,72.2677,-441.043,0,0
351546,72.3686,-439.988,0,0
351806,72.4251,-438.88,0,0
352067,72.6068,-437.823,0,0
352327,72.7686,-436.747,0,0
352587,73.0279,-435.69,0,0
352848,73.2752,-434.656,0,0
353108,73.621,-433.652,0,0
353368,73.9215,-432.658,0,0
353629,74.3179,-431.731,0,0
353889,74.75,-430.841,0,0
354149,75.1524,-430.003,0,0
354410,75.6067,-429.198,0,0
354670,76.0303,-428.49,0,0
354930,76.5548,-427.822,0,0
355191,76.9838,-427.206,0,0
355451,77.371,-426.674,0,0
355711,77.7568,-426.185,0,0
355972,78.0652,-425.768,0,0
356232,78.2648,-425.313,0,0
356492,78.4839,-424.898,0,0
356753,78.5605,-424.487,0,0
357013,78.6321,-424.01,0,0
357273,78.6803,-423.615,0,0
357534,78.6168,-423.062,0,0
357794,78.5737,-422.599,0,0
358054,78.4866,-422.002,0,0
358315,78.3873,-421.43,0,0
358575,78.2325,-420.797,0,0
358835,78.0485,-420.13,0,0
359096,77.9036,-419.291,0,0
359356,77.7089,-418.419,0,0
359616,77.5965,-417.53,0,0
359877,77.4785,-416.533,0,0
360137,77.5325,-415.486,0,0
360397,77.5846,-414.459,0,0
360658,77.7503,-413.417,0,0
360918,77.9816,-412.319,0,0
361178,78.2628,-411.314,0,0
361438,78.5627,-410.323,0,0
361699,78.952,-409.391,0,0
361959,79.3233,-408.418,0,0
362219,79.733,-407.516,0,0
362480,80.2266,-406.648,0,0
362740.1,80.6791,-405.825,0,0
363000.425,81.1471,-405.01,0,0
363260.75,81.6382,-404.222,0,0
363521.075,82.1587,-403.531,0,0
363781.4,82.6566,-402.806,0,0
364041.725,83.1908,-402.073,0,0
364302.05,83.689,-401.441,0,0
364562.375,84.1653,-400.793,0,0
364822.7,84.7353,-400.181,0,0
365083.025,85.2752,-399.547,0,0
365343.35,85.8158,-398.921,0,0
365603.675,86.4211,-398.414,0,0
365864.0,86.9876,-397.955,0,0
366124.325,87.5081,-397.531,0,0
366384.65,88.0678,-397.141,0,0
366644.975,88.5747,-396.762,0,0
366905.3,89.0185,-396.413,0,0
367165.625,89.4034,-396.085,0,0
367425.95,89.8138,-395.713,0,0
367686.275,90.1923,-395.325,0,0
367946.6,90.6196,-394.977,0,0
368206.925,91.0182,-394.563,0,0
368467.25,91.4411,-394.256,0,0
368727.575,91.8916,-393.889,0,0
368987.9,92.3532,-393.664,0,0
369248.225,92.7625,-393.455,0,0
369508.55,93.2024,-393.266,0,0
369768.875,93.5414,-393.188,0,0
370029.2,93.8215,-393.097,0,0
370289.525,94.0945,-393.102,0,0
370549.85,94.208,-393.12,0,0
370810.175,94.2021,-393.081,0,0
371070.5,94.1775,-392.992,0,0
371330.825,93.9747,-392.871,0,0
371591.15,93.7532,-392.641,0,0
371851.475,93.4258,-392.336,0,0
372111.8,93.2074,-391.918,0,0
372372.125,92.9789,-391.391,0,0
372632.45,92.7394,-390.78,0,0
372892.775,92.5519,-390.116,0,0
373153.1,92.4574,-389.387,0,0
373413.425,92.4085,-388.605,0,0
373673.75,92.4656,-387.845,0,0
373934.075,92.5499,-387.06,0,0
374194.4,92.7224,-386.288,0,0
374454.725,92.8821,-385.547,0,0
374715.05,93.1058,-384.808,0,0
374975.375,93.3285,-384.072,0,0
375235.7,93.5968,-383.415,0,0
375496.025,93.8581,-382.751,0,0
375756.35,94.151,-382.073,0,0
376016.675,94.4188,-381.441,0,0
376277.0,94.6692,-380.751,0,0
376537.325,94.9826,-380.107,0,0
376797.65,95.3005,-379.45,0,0
377057.975,95.6057,-378.795,0,0
377318.3,95.9576,-378.194,0,0
377578.625,96.2563,-377.621,0,0
377838.95,96.5393,-376.98,0,0
378099.275,96.8533,-376.319,0,0
378359.6,97.1812,-375.638,0,0
378619.925,97.476,-375.01,0,0
378880,97.8721,-374.274,0,0
379141,98.3164,-373.568,0,0
379401,98.7233,-372.889,0,0
379661,99.1926,-372.22,0,0
379922,99.6991,-371.549,0,0
380182,100.189,-370.908,0,0
380442,100.756,-370.313,0,0
380703,101.286,-369.68,0,0
380963,101.87,-369.148,0,0
381223,102.419,-368.568,0,0
381483,102.967,-368.078,0,0
381744,103.566,-367.54,0,0
382004,104.138,-367.03,0,0
382264,104.756,-366.5,0,0
382525,105.361,-366.023,0,0
382785,106.02,-365.552,0,0
383045,106.661,-365.142,0,0
383306,107.308,-364.748,0,0
383566,107.967,-364.372,0,0
383826,108.548,-364.031,0,0
384087,109.164,-363.719,0,0
384347,109.74,-363.412,0,0
384607,110.31,-363.091,0,0
384868,110.873,-362.774,0,0
385128,111.416,-362.481,0,0
385388,111.995,-362.227,0,0
385649,112.523,-361.953,0,0
385909,113.017,-361.684,0,0
386169,113.486,-361.419,0,0
386430,113.902,-361.14,0,0
386690,114.334,-360.755,0,0
386950,114.789,-360.36,0,0
387211,115.3,-360.025,0,0
387471,115.82,-359.567,0,0
387731,116.388,-359.156,0,0
387992,116.954,-358.74,0,0
388252,117.494,-358.312,0,0
388512,118.098,-357.91,0,0
388773,118.705,-357.46,0,0
389033,119.324,-356.985,0,0
389293,120.045,-356.567,0,0
389554,120.8,-356.125,0,0
389814,121.592,-355.726,0,0
390074,122.424,-355.42,0,0
390335,123.248,-355.062,0,0
390595,124.049,-354.8,0,0
390855,124.908,-354.542,0,0
391116,125.756,-354.313,0,0
391376,126.606,-354.139,0,0
391636,127.484,-354.009,0,0
391896,128.271,-353.883,0,0
392157,129.084,-353.774,0,0
392417,129.823,-353.65,0,0
392677,130.587,-353.471,0,0
392938,131.312,-353.267,0,0
393198,132.159,-353.057,0,0
393458,133.039,-352.809,0,0
393719,133.983,-352.595,0,0
393979,134.96,-352.414,0,0
394239,136.033,-352.264,0,0
394500,137.044,-352.136,0,0
394760.05,138.147,-352.07,0,0
395020.375,139.297,-351.965,0,0
395280.7,140.53,-351.917,0,0
395541.025,141.791,-351.976,0,0
395801.35,143.12,-352.116,0,0
396061.675,144.443,-352.355,0,0
396322.0,145.752,-352.667,0,0
396582.325,147.03,-353.035,0,0
396842.65,148.359,-353.403,0,0
397102.975,149.755,-353.812,0,0
397363.3,151.182,-354.357,0,0
397623.625,152.654,-354.994,0,0
397883.95,154.121,-355.782,0,0
398144.275,155.601,-356.751,0,0
398404.6,157.075,-357.857,0,0
398664.925,158.459,-359.115,0,0
398925.25,159.82,-360.539,0,0
399185.575,161.094,-362.093,0,0
399445.9,162.182,-363.857,0,0
399706.225,163.068,-365.749,0,0
399966.55,163.827,-367.743,0,0
400006.6,163.893,-368.055,0,0