File: Accelerated corrosion test data/2025-09-30_06-00-03/sample_2.csv
Frequency (Hz),Impedance (ohms),Phase (Radians),Temperature (C),Humidity (%)
10000.0,227.067,-11378.4,0,0
10260.325,221.887,-11092.2,0,0
10520.65,216.01,-10819.9,0,0
10780.975,211.988,-10560.2,0,0
11041.3,206.291,-10313.6,0,0
11301.625,201.981,-10077,0,0
11561.95,198.697,-9850.98,0,0
11822.275,195.061,-9639.71,0,0
12082.6,193.367,-9435.13,0,0
12342.925,186.032,-9237.39,0,0
12603.25,181.89,-9047.02,0,0
12863.575,178.905,-8864.29,0,0
13123.9,177.109,-8692.16,0,0
13384.225,172.132,-8521.92,0,0
13644.55,170.118,-8357.57,0,0
13904.875,183.563,-8210.62,0,0
14165.2,164.065,-8058.92,0,0
14425.525,161.038,-7912.4,0,0
14685.8,163.306,-7766.36,0,0
14946.175,160.616,-7639.39,0,0
15206.5,161.779,-7518.21,0,0
15466.825,164.518,-7382.76,0,0
15727.15,150.52,-7270.47,0,0
15987.5,146.833,-7149.73,0,0
16247.8,146.979,-7034.68,0,0
16508.125,142.612,-6926.12,0,0
16768.45,139.925,-6818.52,0,0
17028.775,138.607,-6714.86,0,0
17289.1,136.756,-6614.47,0,0
17549.425,133.756,-6515.91,0,0
17809.75,132.461,-6420.49,0,0
18070.075,130.836,-6328.66,0,0
18330.4,129.008,-6237.86,0,0
18590.725,127.819,-6149.59,0,0
18851.05,126.793,-6064.11,0,0
19111.375,128.533,-5983.48,0,0
19371.7,127.83,-5905.77,0,0
19632.025,122.57,-5828.24,0,0
19892.35,120.151,-5750.84,0,0
20152.675,118.252,-5675.42,0,0
20413.0,117.695,-5601.87,0,0
20673.3,117.049,-5529.53,0,0
20933.65,117.573,-5458.06,0,0
21193.975,120.808,-5391.65,0,0
21454.3,129.095,-5329.32,0,0
21714.625,127.13,-5272.46,0,0
21974.9,123.282,-5209.12,0,0
22235.275,118.635,-5155.3,0,0
22495.6,114.451,-5095.02,0,0
22755.925,111.788,-5034.05,0,0
23016.25,111.349,-4979.23,0,0
23276.6,112.201,-4923.93,0,0
23536.9,108.039,-4870.54,0,0
23797.225,106.529,-4815.83,0,0
24057.55,106.115,-4765.17,0,0
24317.875,102.698,-4714.37,0,0
24578.2,100.869,-4664.03,0,0
24838.525,100.056,-4614.21,0,0
25098.85,98.7043,-4565.14,0,0
25359.175,98.021,-4518.01,0,0
25619.5,96.7503,-4471.61,0,0
25879.8,96.0634,-4426.49,0,0
26140.1,95.5917,-4381.53,0,0
26400.5,95.6227,-4338.19,0,0
26660.8,95.5394,-4296.85,0,0
26921.1,94.3952,-4254.37,0,0
27181.4,93.8703,-4214.75,0,0
27441.8,91.9188,-4175.02,0,0
27702.1,90.6776,-4134.99,0,0
27962.4,90.1902,-4094.59,0,0
28222.7,89.9429,-4056.4,0,0
28483.1,89.4242,-4018.62,0,0
28743.4,88.5597,-3981.47,0,0
29003.7,90.1835,-3944.05,0,0
29264,90.3858,-3908.19,0,0
29524.4,93.8419,-3873.66,0,0
29784.7,96.7376,-3846.08,0,0
30045,91.6188,-3813.17,0,0
30305.3,94.1814,-3779.85,0,0
30565.7,90.181,-3752.15,0,0
30826,88.4316,-3719.42,0,0
31086.3,86.9454,-3687.89,0,0
31346.6,85.1794,-3657.03,0,0
31607,85.0943,-3626.24,0,0
31867.3,82.9549,-3597.15,0,0
32127.6,81.6558,-3566.47,0,0
32387.9,82.2461,-3536.27,0,0
32648.3,83.8487,-3508.81,0,0
32908.6,82.7598,-3482.82,0,0
33168.9,81.6506,-3455.62,0,0
33429.2,79.7957,-3428.31,0,0
33689.6,79.4995,-3402.01,0,0
33949.9,78.5582,-3375.96,0,0
34210.2,76.9723,-3350.03,0,0
34470.5,76.1131,-3323.93,0,0
34730.9,75.539,-3298.55,0,0
34991.2,75.1848,-3273.47,0,0
35251.5,74.6023,-3249.02,0,0
35511.8,74.0844,-3224.94,0,0
35772.2,73.7321,-3200.96,0,0
36032.5,73.0192,-3177.67,0,0
36292.8,72.5983,-3154.31,0,0
36553.1,72.009,-3131.46,0,0
36813.5,71.6344,-3108.93,0,0
37073.8,71.2576,-3086.76,0,0
37334.1,70.8368,-3064.76,0,0
37594.4,70.8611,-3043.17,0,0
37854.8,70.3676,-3022.17,0,0
38115.1,69.8263,-3001.59,0,0
38375.4,69.3107,-2980.54,0,0
38635.7,68.9105,-2960.1,0,0
38896.1,68.4423,-2939.75,0,0
39156.4,68.1852,-2920.08,0,0
39416.7,67.7729,-2900.45,0,0
39677,67.4209,-2880.85,0,0
39937.4,67.1346,-2862,0,0
40197.7,66.7135,-2842.97,0,0
40458,66.3434,-2824.19,0,0
40718.3,66.1199,-2805.35,0,0
40978.7,65.9568,-2787.24,0,0
41239,65.6428,-2769.36,0,0
41499.3,65.6618,-2751.53,0,0
41759.6,65.331,-2734.16,0,0
42020,65.2109,-2716.91,0,0
42280.275,65.0122,-2699.99,0,0
42540.6,64.2837,-2683.05,0,0
42800.925,64.1965,-2666.38,0,0
43061.25,63.7851,-2649.7,0,0
43321.575,63.7539,-2633.54,0,0
43581.9,63.4726,-2617.37,0,0
43842.225,63.1514,-2601.41,0,0
44102.55,63.3103,-2585.88,0,0
44362.875,62.8596,-2570.41,0,0
44623.2,62.2541,-2555.16,0,0
44883.525,62.0477,-2539.58,0,0
45143.85,61.9962,-2524.23,0,0
45404.175,61.9147,-2509.57,0,0
45664.5,61.3929,-2494.92,0,0
45924.825,61.6029,-2479.9,0,0
46185.15,61.9599,-2466.02,0,0
46445.475,61.1649,-2452.11,0,0
46705.8,60.9664,-2437.78,0,0
46966.125,60.8583,-2423.67,0,0
47226.45,60.6763,-2409.72,0,0
47486.775,61.0601,-2396.18,0,0
47747.1,60.8297,-2383.13,0,0
48007.425,60.5105,-2369.49,0,0
48267.75,61.1286,-2356.03,0,0
48528.075,61.6153,-2343.88,0,0
48788.4,61.0706,-2331.8,0,0
49048.725,60.5885,-2319.39,0,0
49309.05,60.0638,-2307.25,0,0
49569.375,59.233,-2294.52,0,0
49829.7,58.8965,-2281.88,0,0
50090.025,58.443,-2269.89,0,0
50350.35,57.9884,-2257.39,0,0
50610.675,57.8456,-2245.18,0,0
50871.0,57.7326,-2233.25,0,0
51131.325,57.7683,-2221.64,0,0
51391.65,57.4196,-2210.33,0,0
51651.975,56.8712,-2198.82,0,0
51912.3,56.2247,-2187.38,0,0
52172.625,56.0322,-2175.71,0,0
52432.95,55.5932,-2164.32,0,0
52693.275,55.3785,-2153.03,0,0
52953.6,55.1941,-2141.78,0,0
53213.925,54.9906,-2130.78,0,0
53474.25,54.8097,-2119.65,0,0
53734.575,54.6909,-2108.78,0,0
53994.9,54.4494,-2098.05,0,0
54255.225,54.2763,-2087.27,0,0
54515.55,54.3984,-2076.81,0,0
54775.875,54.2162,-2066.46,0,0
55036.2,54.1524,-2056.02,0,0
55296.525,54.1025,-2045.65,0,0
55556.85,54.0834,-2035.56,0,0
55817.175,54.0135,-2025.49,0,0
56077.5,53.9284,-2015.56,0,0
56337.825,53.9617,-2005.61,0,0
56598.15,53.9146,-1995.74,0,0
56858.475,53.9171,-1985.93,0,0
57118.8,54.1072,-1976.27,0,0
57379.125,54.0472,-1966.91,0,0
57639.45,54.0117,-1957.32,0,0
57899.775,54.1956,-1948.03,0,0
58160.1,54.2286,-1938.9,0,0
58420.4,54.1217,-1929.59,0,0
58680.7,54.2099,-1920.31,0,0
58941.1,54.3688,-1911.25,0,0
59201.4,54.4464,-1902.26,0,0
59461.7,54.6931,-1893.17,0,0
59722,55.0234,-1884.23,0,0
59982.4,55.6566,-1875.57,0,0
60242.7,56.0797,-1867.4,0,0
60503,56.1736,-1859.37,0,0
60763.3,56.145,-1850.62,0,0
61023.7,56.4624,-1842.13,0,0
61284,57.3407,-1833.71,0,0
61544.3,58.4525,-1826.14,0,0
61804.6,59.1663,-1819.21,0,0
62065,59.0489,-1812.77,0,0
62325.3,57.9778,-1805.54,0,0
62585.6,57.6951,-1797.75,0,0
62845.9,57.7143,-1790.38,0,0
63106.3,56.9984,-1783.43,0,0
63366.6,56.3898,-1776.08,0,0
63626.9,55.2943,-1768.56,0,0
63887.2,55.0089,-1760.82,0,0
64147.6,54.4402,-1753.67,0,0
64407.9,53.5159,-1745.96,0,0
64668.2,53.1141,-1738.3,0,0
64928.5,52.3624,-1730.85,0,0
65188.9,51.5249,-1723.25,0,0
65449.2,50.8826,-1715.16,0,0
65709.5,50.9078,-1707.15,0,0
65969.8,50.8499,-1699.48,0,0
66230.2,50.8716,-1691.75,0,0
66490.5,50.9635,-1684.27,0,0
66750.8,51.0223,-1677.01,0,0
67011.1,50.9619,-1669.37,0,0
67271.5,51.5051,-1661.98,0,0
67531.8,51.9755,-1654.69,0,0
67792.1,52.8145,-1647.81,0,0
68052.4,53.3395,-1641.59,0,0
68312.8,53.2691,-1635.04,0,0
68573.1,53.7261,-1628.12,0,0
68833.4,54.204,-1621.83,0,0
69093.7,54.409,-1615.65,0,0
69354.1,54.7311,-1609.15,0,0
69614.4,55.5914,-1603.17,0,0
69874.7,56.0095,-1597.92,0,0
70135,55.7828,-1592.8,0,0
70395.4,55.1253,-1587.48,0,0
70655.7,54.2704,-1581.89,0,0
70916,53.417,-1575.75,0,0
71176.3,53.1688,-1569.76,0,0
71436.7,52.4756,-1564.36,0,0
71697,51.5314,-1558.74,0,0
71957.3,50.0972,-1552.8,0,0
72217.6,48.7872,-1546.38,0,0
72478,47.8523,-1539.58,0,0
72738.3,47.308,-1532.98,0,0
72998.6,46.7411,-1526.42,0,0
73258.9,46.2822,-1520.02,0,0
73519.3,45.6821,-1513.45,0,0
73779.6,45.366,-1506.82,0,0
74039.9,45.2315,-1500.28,0,0
74300.225,45.1907,-1493.76,0,0
74560.55,45.2163,-1487.38,0,0
74820.875,45.2878,-1481.06,0,0
75081.2,45.3544,-1474.87,0,0
75341.525,45.6317,-1468.57,0,0
75601.85,45.8684,-1462.39,0,0
75862.175,46.157,-1456.37,0,0
76122.5,46.6301,-1450.44,0,0
76382.825,47.0497,-1444.64,0,0
76643.15,47.3664,-1438.82,0,0
76903.475,47.8666,-1433.07,0,0
77163.8,48.4244,-1427.36,0,0
77424.125,49.0044,-1421.81,0,0
77684.45,49.7117,-1416.43,0,0
77944.775,50.4202,-1411.16,0,0
78205.1,51.2075,-1406.01,0,0
78465.425,51.9634,-1401.25,0,0
78725.75,52.5049,-1396.53,0,0
78986.075,53.1295,-1392.07,0,0
79246.4,53.2743,-1387.81,0,0
79506.725,53.4979,-1383.4,0,0
79767.05,53.5378,-1379.42,0,0
80027.375,52.8583,-1375.4,0,0
80287.7,52.0317,-1370.79,0,0
80548.025,51.3421,-1366.05,0,0
80808.35,50.6631,-1361.05,0,0
81068.675,50.2002,-1355.97,0,0
81329.0,49.751,-1350.93,0,0
81589.325,49.4075,-1345.94,0,0
81849.65,49.0679,-1340.93,0,0
82109.975,48.6586,-1335.82,0,0
82370.3,48.4504,-1330.67,0,0
82630.625,48.2855,-1325.54,0,0
82890.95,48.1563,-1320.44,0,0
83151.275,48.1646,-1315.3,0,0
83411.6,48.2822,-1310.23,0,0
83671.925,48.417,-1305.21,0,0
83932.25,48.6523,-1300.42,0,0
84192.575,48.9423,-1295.6,0,0
84452.9,49.087,-1291,0,0
84713.225,49.1238,-1286.38,0,0
84973.55,49.1816,-1281.65,0,0
85233.875,49.3706,-1276.92,0,0
85494.2,49.6613,-1272.3,0,0
85754.525,49.9205,-1267.75,0,0
86014.85,50.2297,-1263.41,0,0
86275.175,50.3125,-1259.13,0,0
86535.5,50.3053,-1254.71,0,0
86795.825,50.3929,-1250.21,0,0
87056.15,50.6665,-1245.65,0,0
87316.475,51.2102,-1241.39,0,0
87576.8,51.3926,-1237.58,0,0
87837.125,51.2113,-1233.54,0,0
88097.45,50.9914,-1229.13,0,0
88357.775,51.1431,-1224.77,0,0
88618.1,51.3875,-1220.8,0,0
88878.425,51.0234,-1216.75,0,0
89138.75,50.8164,-1212.11,0,0
89399.075,50.9955,-1207.61,0,0
89659.4,51.4079,-1203.31,0,0
89919.725,51.8108,-1199.19,0,0
90180,52.0994,-1195.34,0,0
90440.4,52.0283,-1191.62,0,0
90700.7,51.6945,-1187.33,0,0
90961,51.637,-1182.78,0,0
91221.3,52.3183,-1178.46,0,0
91481.7,52.6332,-1174.65,0,0
91742,52.6413,-1170.66,0,0
92002.3,52.9802,-1166.28,0,0
92262.6,53.6447,-1162.06,0,0
92523,54.4333,-1158.36,0,0
92783.3,54.9163,-1154.77,0,0
93043.6,55.4005,-1151.17,0,0
93303.9,55.9212,-1147.84,0,0
93564.3,56.341,-1144.55,0,0
93824.6,56.5419,-1141.57,0,0
94084.9,56.3412,-1138.66,0,0
94345.2,55.8245,-1135.25,0,0
94605.6,55.375,-1131.59,0,0
94865.9,55.1942,-1127.73,0,0
95126.2,55.0409,-1124.2,0,0
95386.5,54.6518,-1120.51,0,0
95646.9,54.2508,-1116.12,0,0
95907.2,54.8069,-1111.67,0,0
96167.5,55.7508,-1107.89,0,0
96427.8,56.542,-1104.65,0,0
96688.2,56.9327,-1101.56,0,0
96948.5,57.1306,-1098.41,0,0
97208.8,57.5885,-1095.06,0,0
97469.1,58.1155,-1092.26,0,0
97729.5,58.1393,-1089.6,0,0
97989.8,58.0843,-1086.69,0,0
98250.1,58.01,-1083.86,0,0
98510.4,57.9201,-1081.09,0,0
98770.8,57.8613,-1078.54,0,0
99031.1,57.1981,-1076.35,0,0
99291.4,55.9958,-1073.67,0,0
99551.7,54.7257,-1070.59,0,0
99812.1,53.4533,-1067.08,0,0
100072,52.4008,-1063.3,0,0
100333,51.7445,-1059.24,0,0
100593,51.528,-1055.63,0,0
100853,50.9784,-1052.36,0,0
101114,50.1326,-1048.94,0,0
101374,49.0774,-1045.23,0,0
101634,48.175,-1040.98,0,0
101895,47.8326,-1036.64,0,0
102155,47.8008,-1032.64,0,0
102415,47.5336,-1028.97,0,0
102676,47.0472,-1025.05,0,0
102936,46.7137,-1020.95,0,0
103196,46.3515,-1016.81,0,0
103457,46.3028,-1012.45,0,0
103717,46.3171,-1008.18,0,0
103977,46.5636,-1003.69,0,0
104238,47.2816,-999.399,0,0
104498,48.086,-995.445,0,0
104758,48.8571,-991.693,0,0
105019,49.5068,-987.999,0,0
105279,50.3675,-984.325,0,0
105539,51.2362,-980.831,0,0
105800,52.0833,-977.329,0,0
106060,53.2976,-973.917,0,0
106320.175,54.4893,-971.007,0,0
106580.5,55.5644,-968.362,0,0
106840.825,56.4775,-965.979,0,0
107101.15,56.9405,-963.803,0,0
107361.475,57.1964,-961.319,0,0
107621.8,57.65,-958.975,0,0
107882.125,57.8159,-956.846,0,0
108142.45,57.5893,-954.724,0,0
108402.775,57.1433,-952.267,0,0
108663.1,56.7704,-949.725,0,0
108923.425,56.2377,-947.192,0,0
109183.75,55.55,-944.496,0,0
109444.075,54.8134,-941.509,0,0
109704.4,54.2217,-938.479,0,0
109964.725,53.5269,-935.339,0,0
110225.05,52.9093,-931.973,0,0
110485.375,52.4634,-928.397,0,0
110745.7,52.1378,-924.799,0,0
111006.025,52.07,-921.349,0,0
111266.35,51.9809,-917.855,0,0
111526.675,51.8761,-914.423,0,0
111787.0,51.7654,-910.818,0,0
112047.325,51.8884,-907.361,0,0
112307.65,51.914,-903.953,0,0
112567.975,51.9956,-900.652,0,0
112828.3,52.0775,-897.126,0,0
113088.625,52.261,-893.568,0,0
113348.95,52.5448,-890.103,0,0
113609.275,52.8449,-886.67,0,0
113869.6,53.2842,-883.218,0,0
114129.925,53.7835,-879.849,0,0
114390.25,54.209,-876.635,0,0
114650.575,54.6543,-873.349,0,0
114910.9,55.088,-870.116,0,0
115171.225,55.5576,-866.846,0,0
115431.55,56.1926,-863.655,0,0
115691.875,56.748,-860.541,0,0
115952.2,57.2749,-857.453,0,0
116212.525,57.8376,-854.241,0,0
116472.85,58.517,-851.093,0,0
116733.175,59.316,-848.029,0,0
116993.5,60.0868,-845.163,0,0
117253.825,60.8078,-842.286,0,0
117514.15,61.5163,-839.426,0,0
117774.475,62.2485,-836.607,0,0
118034.8,63.0684,-833.799,0,0
118295.125,63.8739,-831.113,0,0
118555.45,64.6912,-828.46,0,0
118815.775,65.5352,-825.936,0,0
119076.1,66.3717,-823.534,0,0
119336.425,67.0469,-821.138,0,0
119596.75,67.9617,-818.773,0,0
119857.075,68.769,-816.836,0,0
120117.4,69.2034,-814.937,0,0
120377.725,69.5558,-812.947,0,0
120638.05,69.8565,-811.105,0,0
120898.375,69.6997,-809.265,0,0
121158.7,69.3889,-806.972,0,0
121419.025,69.2886,-804.524,0,0
121679.35,69.2036,-802.087,0,0
121939.675,69.1529,-799.662,0,0
122200.0,69.0628,-797.186,0,0
122460,68.9726,-794.622,0,0
122721,68.8679,-792.001,0,0
122981,68.867,-789.328,0,0
123241,68.9028,-786.706,0,0
123502,68.9362,-784.126,0,0
123762,68.9139,-781.529,0,0
124022,68.8344,-778.888,0,0
124283,68.7638,-776.193,0,0
124543,68.725,-773.479,0,0
124803,68.6527,-770.704,0,0
125064,68.5977,-767.85,0,0
125324,68.6104,-764.99,0,0
125584,68.602,-762.06,0,0
125845,68.65,-759.107,0,0
126105,68.7515,-756.086,0,0
126365,68.9252,-753.032,0,0
126626,69.181,-749.981,0,0
126886,69.5644,-746.886,0,0
127146,69.8527,-743.853,0,0
127406,70.2684,-740.727,0,0
127667,70.9468,-737.695,0,0
127927,71.6131,-734.819,0,0
128187,72.2366,-732.01,0,0
128448,72.8942,-729.189,0,0
128708,73.6123,-726.457,0,0
128968,74.273,-723.797,0,0
129229,74.9384,-721.174,0,0
129489,75.6132,-718.581,0,0
129749,76.2212,-716.025,0,0
130010,76.8443,-713.458,0,0
130270,77.5858,-710.966,0,0
130530,78.2226,-708.594,0,0
130791,78.7205,-706.276,0,0
131051,79.1894,-703.926,0,0
131311,79.6413,-701.587,0,0
131572,80.0287,-699.204,0,0
131832,80.439,-696.832,0,0
132092,80.7626,-694.503,0,0
132353,80.993,-692.172,0,0
132613,81.1962,-689.734,0,0
132873,81.3313,-687.267,0,0
133134,81.4524,-684.696,0,0
133394,81.5971,-682.033,0,0
133654,81.8466,-679.316,0,0
133915,82.0804,-676.648,0,0
134175,82.3345,-673.958,0,0
134435,82.4987,-671.216,0,0
134696,82.7336,-668.371,0,0
134956,83.081,-665.53,0,0
135216,83.4711,-662.715,0,0
135477,83.7773,-659.946,0,0
135737,84.0673,-657.116,0,0
135997,84.3992,-654.245,0,0
136258,84.7623,-651.279,0,0
136518,85.1678,-648.295,0,0
136778,85.6048,-645.295,0,0
137039,86.1191,-642.285,0,0
137299,86.7435,-639.303,0,0
137559,87.3325,-636.446,0,0
137819,87.8055,-633.547,0,0
138080,88.2493,-630.591,0,0
138340.125,88.7393,-627.561,0,0
138600.45,89.258,-624.477,0,0
138860.775,89.7646,-621.431,0,0
139121.1,90.2236,-618.259,0,0
139381.425,90.7804,-614.974,0,0
139641.75,91.4133,-611.672,0,0
139902.075,91.9915,-608.345,0,0
140162.4,92.6366,-604.889,0,0
140422.725,93.3732,-601.239,0,0
140683.05,94.3722,-597.55,0,0
140943.375,95.5033,-593.983,0,0
141203.7,96.5444,-590.402,0,0
141464.025,97.7452,-586.599,0,0
141724.35,99.296,-582.815,0,0
141984.675,100.981,-579.179,0,0
142245.0,102.801,-575.675,0,0
142505.325,104.627,-572.297,0,0
142765.65,106.54,-568.924,0,0
143025.975,108.573,-565.713,0,0
143286.3,110.498,-562.709,0,0
143546.625,112.327,-559.61,0,0
143806.95,114.173,-556.462,0,0
144067.275,116.093,-553.286,0,0
144327.6,118.117,-550.093,0,0
144587.925,120.196,-546.918,0,0
144848.25,122.409,-543.703,0,0
145108.575,124.745,-540.568,0,0
145368.9,127.201,-537.539,0,0
145629.225,129.638,-534.694,0,0
145889.55,132.003,-531.851,0,0
146149.875,134.34,-528.986,0,0
146410.2,136.708,-526.028,0,0
146670.525,139.163,-522.958,0,0
146930.85,141.769,-519.847,0,0
147191.175,144.592,-516.668,0,0
147451.5,147.592,-513.586,0,0
147711.825,150.775,-510.544,0,0
147972.15,154.098,-507.579,0,0
148232.475,157.565,-504.685,0,0
148492.8,161.147,-501.774,0,0
148753.125,164.954,-498.8,0,0
149013.45,169.211,-495.748,0,0
149273.775,174.126,-492.915,0,0
149534.1,179.493,-490.709,0,0
149794.425,185.073,-489.094,0,0
150054.75,190.729,-488.101,0,0
150315.075,196.262,-487.659,0,0
150575.4,201.776,-487.576,0,0
150835.725,207.379,-488.053,0,0
151096.05,212.828,-489.29,0,0
151356.375,217.752,-491.169,0,0
151616.7,222.15,-493.339,0,0
151877.025,226.258,-495.809,0,0
152137.35,229.796,-498.811,0,0
152397.675,232.55,-501.889,0,0
152658.0,234.849,-504.867,0,0
152918.325,236.663,-507.889,0,0
153178.65,238.033,-510.823,0,0
153438.975,238.904,-513.731,0,0
153699.3,239.231,-516.322,0,0
153959.625,239.323,-518.613,0,0
154219.95,239.082,-520.619,0,0
154480,238.589,-522.245,0,0
154741,238.206,-523.418,0,0
155001,237.727,-524.524,0,0
155261,237.305,-525.368,0,0
155522,236.864,-526.151,0,0
155782,236.248,-526.833,0,0
156042,235.616,-527.401,0,0
156303,235.023,-527.776,0,0
156563,234.295,-528.144,0,0
156823,233.422,-528.526,0,0
157084,232.254,-528.339,0,0
157344,231.557,-527.918,0,0
157604,230.74,-527.647,0,0
157864,229.891,-527.018,0,0
158125,229.253,-526.305,0,0
158385,228.701,-525.685,0,0
158645,227.854,-525.166,0,0
158906,226.797,-524.047,0,0
159166,226.085,-522.52,0,0
159426,225.536,-521.18,0,0
159687,224.962,-519.306,0,0
159947,225.186,-517.164,0,0
160207,225.79,-515.734,0,0
160468,226.156,-514.47,0,0
160728,226.36,-513.006,0,0
160988,226.858,-511.364,0,0
161249,227.704,-509.598,0,0
161509,229.208,-507.907,0,0
161769,231.39,-506.888,0,0
162030,233.602,-506.885,0,0
162290,235.427,-507.646,0,0
162550,236.691,-508.855,0,0
162811,237.731,-510.671,0,0
163071,237.832,-513.304,0,0
163331,236.253,-515.912,0,0
163592,233.778,-517.301,0,0
163852,231.145,-518.073,0,0
164112,228.447,-518.202,0,0
164373,225.751,-518.145,0,0
164633,222.61,-517.943,0,0
164893,219.149,-516.849,0,0
165154,215.976,-515.336,0,0
165414,212.777,-513.582,0,0
165674,209.182,-511.315,0,0
165935,205.832,-508.011,0,0
166195,203.087,-504.082,0,0
166455,201.134,-499.997,0,0
166716,199.695,-496.155,0,0
166976,198.302,-492.481,0,0
167236,196.951,-488.684,0,0
167497,195.713,-484.772,0,0
167757,194.681,-480.831,0,0
168017,193.618,-476.798,0,0
168277,192.656,-472.473,0,0
168538,191.808,-467.861,0,0
168798,191.511,-462.983,0,0
169058,191.669,-458.18,0,0
169319,192.174,-453.587,0,0
169579,192.766,-449.152,0,0
169839,193.414,-444.856,0,0
170100,194.177,-440.605,0,0
170360.075,195.032,-436.577,0,0
170620.4,195.778,-432.641,0,0
170880.725,196.041,-428.576,0,0
171141.05,196.392,-423.875,0,0
171401.375,197.282,-418.911,0,0
171661.7,198.585,-413.905,0,0
171922.025,200.191,-409.162,0,0
172182.35,201.878,-404.578,0,0
172442.675,203.455,-399.975,0,0
172703.0,205.066,-395.101,0,0
172963.325,207.275,-390.074,0,0
173223.65,209.652,-385.402,0,0
173483.975,212.026,-380.62,0,0
173744.3,214.623,-375.785,0,0
174004.625,217.481,-371.072,0,0
174264.95,220.439,-366.343,0,0
174525.275,223.544,-361.56,0,0
174785.6,227.081,-356.561,0,0
175045.925,231.138,-351.76,0,0
175306.25,235.688,-347.321,0,0
175566.575,240.331,-343.475,0,0
175826.9,244.831,-339.87,0,0
176087.225,249.375,-336.395,0,0
176347.55,253.907,-332.989,0,0
176607.875,258.561,-329.495,0,0
176868.2,263.711,-326.056,0,0
177128.525,269.498,-322.919,0,0
177388.85,275.714,-320.806,0,0
177649.175,281.595,-319.644,0,0
177909.5,287.027,-319.189,0,0
178169.825,291.747,-319.191,0,0
178430.15,294.884,-318.146,0,0
178690.475,298.848,-317.127,0,0
178950.8,302.993,-316.315,0,0
179211.125,307.02,-315.759,0,0
179471.45,311.097,-315.593,0,0
179731.775,314.724,-316.118,0,0
179992.1,317.197,-316.826,0,0
180252.425,318.877,-317.16,0,0
180512.75,319.791,-317.064,0,0
180773.075,320.129,-316.034,0,0
181033.4,320.301,-313.957,0,0
181293.725,320.879,-310.928,0,0
181554.05,321.84,-307.214,0,0
181814.375,323.553,-303.107,0,0
182074.7,325.686,-298.99,0,0
182335.025,328.006,-294.59,0,0
182595.35,330.85,-289.876,0,0
182855.675,334.302,-284.982,0,0
183116.0,338.404,-280.374,0,0
183376.325,342.595,-276.059,0,0
183636.65,346.721,-271.679,0,0
183896.975,351.089,-266.975,0,0
184157.3,355.957,-262,0,0
184417.625,361.435,-256.992,0,0
184677.95,367.434,-252.049,0,0
184938.275,374.035,-247.129,0,0
185198.6,381.305,-242.638,0,0
185458.925,388.966,-238.684,0,0
185719.25,396.888,-234.969,0,0
185979.575,405.426,-231.657,0,0
186239.9,414.432,-229.32,0,0
186500,423.153,-228.251,0,0
186761,430.828,-227.72,0,0
187021,437.847,-226.656,0,0
187281,444.605,-224.832,0,0
187542,452.486,-222.487,0,0
187802,461.19,-220.792,0,0
188062,469.841,-220.108,0,0
188322,478.072,-219.968,0,0
188583,485.607,-219.802,0,0
188843,492.964,-219.017,0,0
189103,500.775,-217.776,0,0
189364,509.3,-216.748,0,0
189624,517.919,-216.226,0,0
189884,526.213,-215.592,0,0
190145,534.715,-214.89,0,0
190405,543.541,-213.846,0,0
190665,553.03,-212.629,0,0
190926,563.043,-211.436,0,0
191186,574.009,-210.341,0,0
191446,585.987,-210.009,0,0
191707,598.31,-210.814,0,0
191967,610.495,-212.245,0,0
192227,622.811,-213.952,0,0
192488,635.498,-215.96,0,0
192748,648.811,-218.394,0,0
193008,662.929,-221.785,0,0
193269,677.369,-226.541,0,0
193529,691.702,-232.669,0,0
193789,705.497,-239.977,0,0
194050,718.653,-248.016,0,0
194310,731.546,-256.725,0,0
194570,743.763,-266.297,0,0
194831,755.148,-276.223,0,0
195091,766.32,-286.31,0,0
195351,777.36,-296.767,0,0
195612,788.166,-308.1,0,0
195872,798.348,-320.154,0,0
196132,807.604,-332.616,0,0
196393,816.298,-345.013,0,0
196653,824.873,-357.47,0,0
196913,833.444,-370.53,0,0
197174,841.651,-384.341,0,0
197434,849.103,-398.935,0,0
197694,855.581,-414.099,0,0
197955,860.903,-429.101,0,0
198215,865.819,-443.627,0,0
198475,870.964,-458.174,0,0
198735,876.2,-473.738,0,0
198996,880.556,-490.197,0,0
199256,883.765,-507.368,0,0
199516,885.676,-524.667,0,0
199777,886.221,-541.654,0,0
200037,886.356,-557.849,0,0
200297,886.545,-574.234,0,0
200558,886.138,-591.174,0,0
200818,884.525,-608.452,0,0
201078,882.141,-625.525,0,0
201339,879.232,-642.829,0,0
201599,874.919,-660.572,0,0
201859,868.774,-678.147,0,0
202120,861.507,-694.708,0,0
202380.025,853.274,-710.626,0,0
202640.35,844.022,-725.583,0,0
202900.675,833.646,-739.825,0,0
203161.0,822.327,-752.3,0,0
203421.325,811.065,-763.138,0,0
203681.65,800.417,-773.001,0,0
203941.975,789.735,-782.306,0,0
204202.3,778.947,-790.847,0,0
204462.625,768.473,-798.416,0,0
204722.95,758.74,-805.34,0,0
204983.275,749.652,-812.537,0,0
205243.6,740.296,-819.943,0,0
205503.925,730.41,-827.409,0,0
205764.25,719.792,-834.495,0,0
206024.575,708.562,-840.445,0,0
206284.9,697.648,-845.22,0,0
206545.225,686.986,-849.518,0,0
206805.55,676.663,-853.151,0,0
207065.875,666.719,-856.407,0,0
207326.2,657.03,-859.195,0,0
207586.525,647.677,-861.744,0,0
207846.85,638.565,-864.055,0,0
208107.175,629.527,-865.903,0,0
208367.5,621.062,-867.122,0,0
208627.825,613.593,-868.192,0,0
208888.15,606.668,-869.897,0,0
209148.475,599.865,-872.165,0,0
209408.8,592.849,-874.939,0,0
209669.125,585.434,-877.815,0,0
209929.45,577.473,-880.852,0,0
210189.775,569.119,-883.481,0,0
210450.1,560.395,-885.643,0,0
210710.425,551.48,-887.685,0,0
210970.75,542.378,-889.314,0,0
211231.075,532.818,-890.401,0,0
211491.4,523.106,-890.781,0,0
211751.725,513.509,-890.222,0,0
212012.05,504.141,-888.83,0,0
212272.375,495.641,-886.751,0,0
212532.7,487.76,-884.471,0,0
212793.025,480.417,-882.204,0,0
213053.35,473.328,-880.111,0,0
213313.675,466.201,-877.702,0,0
213574.0,459.494,-875.003,0,0
213834.325,453.226,-872.058,0,0
214094.65,447.468,-869.242,0,0
214354.975,441.889,-866.484,0,0
214615.3,436.512,-863.534,0,0
214875.625,431.358,-860.646,0,0
215135.95,426.646,-858.002,0,0
215396.275,421.847,-855.285,0,0
215656.6,417.113,-852.468,0,0
215916.925,412.572,-849.659,0,0
216177.25,408.213,-846.614,0,0
216437.575,404.093,-843.489,0,0
216697.9,400.26,-840.435,0,0
216958.225,396.612,-837.326,0,0
217218.55,393.147,-834.142,0,0
217478.875,389.962,-831.034,0,0
217739.2,387.118,-827.928,0,0
217999.525,384.405,-824.937,0,0
218259.85,381.818,-822.058,0,0
218520,379.431,-819.262,0,0
218780,377.14,-816.471,0,0
219041,375.103,-813.655,0,0
219301,373.262,-810.963,0,0
219561,371.61,-808.514,0,0
219822,370.017,-806.192,0,0
220082,368.548,-804.071,0,0
220342,367.042,-802.088,0,0
220603,365.536,-800.177,0,0
220863,363.882,-798.163,0,0
221123,362.373,-796.046,0,0
221384,361.071,-793.912,0,0
221644,359.959,-791.755,0,0
221904,359.077,-789.743,0,0
222165,358.357,-787.674,0,0
222425,357.958,-785.844,0,0
222685,357.719,-784.306,0,0
222946,357.678,-783.093,0,0
223206,357.537,-782.194,0,0
223466,357.343,-781.573,0,0
223727,356.975,-781.079,0,0
223987,356.501,-780.836,0,0
224247,355.937,-780.643,0,0
224508,355.115,-780.427,0,0
224768,354.38,-780.258,0,0
225028,353.487,-779.854,0,0
225289,352.644,-779.646,0,0
225549,351.714,-779.42,0,0
225809,350.843,-779.118,0,0
226070,350.177,-778.694,0,0
226330,349.719,-778.439,0,0
226590,349.388,-778.398,0,0
226851,348.992,-778.61,0,0
227111,348.578,-779.127,0,0
227371,348.007,-779.591,0,0
227632,347.351,-780.217,0,0
227892,346.781,-780.823,0,0
228152,346.143,-781.645,0,0
228413,345.539,-782.661,0,0
228673,344.742,-783.861,0,0
228933,343.825,-785.296,0,0
229193,342.786,-786.806,0,0
229454,341.582,-788.581,0,0
229714,339.873,-790.374,0,0
229974,338.088,-792.203,0,0
230235,335.949,-793.986,0,0
230495,333.607,-795.656,0,0
230755,331.098,-797.308,0,0
231016,328.434,-798.916,0,0
231276,325.477,-800.393,0,0
231536,322.283,-801.668,0,0
231797,318.965,-802.697,0,0
232057,315.657,-803.459,0,0
232317,312.425,-804.137,0,0
232578,309.146,-804.736,0,0
232838,305.839,-805.207,0,0
233098,302.526,-805.632,0,0
233359,299.122,-805.918,0,0
233619,295.589,-806.081,0,0
233879,292.147,-806.001,0,0
234140,288.827,-805.825,0,0
234400,285.524,-805.71,0,0
234660.3,282.225,-805.477,0,0
234920.625,278.972,-805.269,0,0
235180.95,275.595,-805.063,0,0
235441.275,272.14,-804.756,0,0
235701.6,268.59,-804.256,0,0
235961.925,265.039,-803.61,0,0
236222.25,261.571,-802.893,0,0
236482.575,258.131,-802.031,0,0
236742.9,254.753,-801.064,0,0
237003.225,251.416,-800.031,0,0
237263.55,248.12,-799.041,0,0
237523.875,244.73,-797.907,0,0
237784.2,241.306,-796.589,0,0
238044.525,237.989,-795.143,0,0
238304.85,234.839,-793.497,0,0
238565.175,231.802,-791.914,0,0
238825.5,228.892,-790.285,0,0
239085.825,225.856,-788.613,0,0
239346.15,222.954,-786.945,0,0
239606.475,220.089,-785.197,0,0
239866.8,217.245,-783.229,0,0
240127.125,214.536,-781.34,0,0
240387.45,211.982,-779.281,0,0
240647.775,209.4,-777.214,0,0
240908.1,206.927,-775.13,0,0
241168.425,204.54,-773.054,0,0
241428.75,202.342,-770.811,0,0
241689.075,200.284,-768.615,0,0
241949.4,198.29,-766.516,0,0
242209.725,196.405,-764.444,0,0
242470.05,194.544,-762.385,0,0
242730.375,192.813,-760.31,0,0
242990.7,191.206,-758.269,0,0
243251.025,189.685,-756.293,0,0
243511.35,188.315,-754.5,0,0
243771.675,186.937,-752.824,0,0
244032.0,185.542,-751.267,0,0
244292.325,184.109,-749.838,0,0
244552.65,182.698,-748.601,0,0
244812.975,180.977,-747.345,0,0
245073.3,179.349,-746.139,0,0
245333.625,177.553,-744.897,0,0
245593.95,175.783,-743.657,0,0
245854.275,173.895,-742.512,0,0
246114.6,171.94,-741.498,0,0
246374.925,169.728,-740.424,0,0
246635.25,167.282,-739.355,0,0
246895.575,164.634,-738.053,0,0
247155.9,161.872,-736.552,0,0
247416.225,159.009,-734.744,0,0
247676.55,156.234,-732.734,0,0
247936.875,153.573,-730.479,0,0
248197.2,151.038,-728.107,0,0
248457.525,148.527,-725.689,0,0
248717.85,146.076,-723.144,0,0
248978.175,143.668,-720.434,0,0
249238.5,141.381,-717.611,0,0
249498.825,139.173,-714.609,0,0
249759.15,137.128,-711.622,0,0
250019.475,135.201,-708.416,0,0
250279.8,133.486,-705.202,0,0
250540,131.829,-702.02,0,0
250800,130.302,-698.718,0,0
251061,128.955,-695.383,0,0
251321,127.731,-692.081,0,0
251581,126.612,-688.787,0,0
251842,125.608,-685.484,0,0
252102,124.689,-682.166,0,0
252362,123.872,-678.869,0,0
252623,123.196,-675.559,0,0
252883,122.667,-672.292,0,0
253143,122.23,-669.067,0,0
253404,121.828,-665.902,0,0
253664,121.54,-662.757,0,0
253924,121.302,-659.634,0,0
254185,121.106,-656.501,0,0
254445,120.971,-653.423,0,0
254705,120.922,-650.344,0,0
254966,120.969,-647.225,0,0
255226,121.102,-644.083,0,0
255486,121.369,-641.032,0,0
255747,121.71,-637.987,0,0
256007,122.194,-634.978,0,0
256267,122.749,-632.027,0,0
256528,123.382,-629.131,0,0
256788,124.106,-626.285,0,0
257048,124.905,-623.489,0,0
257309,125.783,-620.725,0,0
257569,126.814,-618.026,0,0
257829,127.954,-615.429,0,0
258090,129.165,-612.951,0,0
258350,130.409,-610.608,0,0
258610,131.69,-608.378,0,0
258871,132.946,-606.189,0,0
259131,134.235,-604.081,0,0
259391,135.585,-601.978,0,0
259651,136.98,-599.917,0,0
259912,138.449,-597.948,0,0
260172,140.017,-596.012,0,0
260432,141.647,-594.214,0,0
260693,143.358,-592.552,0,0
260953,145.072,-591.024,0,0
261213,146.806,-589.576,0,0
261474,148.569,-588.227,0,0
261734,150.35,-587.049,0,0
261994,152.152,-585.942,0,0
262255,153.968,-584.953,0,0
262515,155.768,-584.172,0,0
262775,157.472,-583.462,0,0
263036,159.126,-582.797,0,0
263296,160.771,-582.205,0,0
263556,162.486,-581.674,0,0
263817,164.248,-581.326,0,0
264077,165.917,-581.153,0,0
264337,167.535,-581.168,0,0
264598,169.046,-581.289,0,0
264858,170.393,-581.583,0,0
265118,171.526,-581.912,0,0
265379,172.501,-582.296,0,0
265639,173.304,-582.621,0,0
265899,174.027,-582.939,0,0
266160,174.536,-583.189,0,0
266420,175.046,-583.316,0,0
266680.25,175.54,-583.359,0,0
266940.575,176.066,-583.364,0,0
267200.9,176.629,-583.383,0,0
267461.225,177.231,-583.523,0,0
267721.55,177.8,-583.668,0,0
267981.875,178.227,-583.917,0,0
268242.2,178.565,-584.249,0,0
268502.525,178.754,-584.527,0,0
268762.85,178.764,-584.8,0,0
269023.175,178.622,-585,0,0
269283.5,178.302,-584.989,0,0
269543.825,177.899,-584.801,0,0
269804.15,177.458,-584.274,0,0
270064.475,177.102,-583.567,0,0
270324.8,176.993,-582.619,0,0
270585.125,177.024,-581.556,0,0
270845.45,177.317,-580.402,0,0
271105.775,177.81,-579.233,0,0
271366.1,178.523,-578.09,0,0
271626.425,179.403,-577.039,0,0
271886.75,180.456,-576.05,0,0
272147.075,181.61,-575.156,0,0
272407.4,182.857,-574.352,0,0
272667.725,184.199,-573.583,0,0
272928.05,185.661,-572.879,0,0
273188.375,187.28,-572.203,0,0
273448.7,189.109,-571.598,0,0
273709.025,191.174,-571.069,0,0
273969.35,193.548,-570.78,0,0
274229.675,196.188,-570.856,0,0
274490.0,199.035,-571.319,0,0
274750.325,201.922,-572.303,0,0
275010.65,204.842,-573.775,0,0
275270.975,207.459,-575.765,0,0
275531.3,209.948,-578.177,0,0
275791.625,212.095,-581.01,0,0
276051.95,213.886,-584.206,0,0
276312.275,215.195,-587.67,0,0
276572.6,216.045,-591.35,0,0
276832.925,216.362,-595.163,0,0
277093.25,216.053,-598.983,0,0
277353.575,215.284,-602.63,0,0
277613.9,214.087,-606.062,0,0
277874.225,212.569,-609.194,0,0
278134.55,210.797,-612.108,0,0
278394.875,208.814,-614.714,0,0
278655.2,206.69,-617.043,0,0
278915.525,204.508,-619.158,0,0
279175.85,202.233,-621.04,0,0
279436.175,199.94,-622.686,0,0
279696.5,197.61,-624.259,0,0
279956.825,195.281,-625.637,0,0
280217.15,192.962,-626.912,0,0
280477.475,190.616,-628.11,0,0
280737.8,188.203,-629.269,0,0
280998.125,185.689,-630.337,0,0
281258.45,183.094,-631.287,0,0
281518.775,180.387,-632.137,0,0
281779.1,177.623,-632.831,0,0
282039.425,174.803,-633.376,0,0
282299.75,171.887,-633.814,0,0
282560,168.854,-634.107,0,0
282820,165.674,-634.166,0,0
283081,162.412,-633.882,0,0
283341,159.164,-633.212,0,0
283601,156.114,-632.191,0,0
283862,153.348,-630.881,0,0
284122,151.008,-629.405,0,0
284382,149,-628.057,0,0
284643,147.235,-627.02,0,0
284903,145.422,-626.233,0,0
285163,143.331,-625.612,0,0
285424,140.93,-624.948,0,0
285684,138.342,-624.028,0,0
285944,135.697,-622.813,0,0
286205,133.049,-621.379,0,0
286465,130.374,-619.723,0,0
286725,127.748,-617.775,0,0
286986,125.173,-615.586,0,0
287246,122.731,-613.107,0,0
287506,120.416,-610.362,0,0
287767,118.303,-607.313,0,0
288027,116.474,-603.99,0,0
288287,114.972,-600.393,0,0
288548,113.843,-596.612,0,0
288808,113.168,-592.671,0,0
289068,112.958,-588.679,0,0
289329,113.272,-584.696,0,0
289589,114.051,-580.823,0,0
289849,115.336,-577.069,0,0
290109,117.106,-573.572,0,0
290370,119.336,-570.43,0,0
290630,122.037,-567.771,0,0
290890,124.961,-565.706,0,0
291151,128.016,-564.26,0,0
291411,131.035,-563.371,0,0
291671,133.892,-562.969,0,0
291932,136.598,-562.985,0,0
292192,139.088,-563.368,0,0
292452,141.375,-564.066,0,0
292713,143.425,-565.048,0,0
292973,145.218,-566.369,0,0
293233,146.671,-567.968,0,0
293494,147.637,-569.802,0,0
293754,148.069,-571.717,0,0
294014,147.93,-573.46,0,0
294275,147.367,-574.878,0,0
294535,146.505,-575.866,0,0
294795,145.573,-576.297,0,0
295056,144.863,-576.245,0,0
295316,144.578,-575.861,0,0
295576,144.873,-575.407,0,0
295837,145.719,-575.237,0,0
296097,146.863,-575.591,0,0
296357,148.081,-576.582,0,0
296618,149.065,-578.198,0,0
296878,149.605,-580.264,0,0
297138,149.571,-582.605,0,0
297399,148.911,-584.981,0,0
297659,147.675,-587.243,0,0
297919,145.976,-589.159,0,0
298180,143.985,-590.659,0,0
298440,141.884,-591.744,0,0
298700.2,139.783,-592.484,0,0
298960.525,137.727,-592.961,0,0
299220.85,135.775,-593.25,0,0
299481.175,133.923,-593.379,0,0
299741.5,132.132,-593.447,0,0
300001.825,130.372,-593.449,0,0
300262.15,128.6,-593.367,0,0
300522.475,126.834,-593.167,0,0
300782.8,125.087,-592.835,0,0
301043.125,123.399,-592.371,0,0
301303.45,121.802,-591.763,0,0
301563.775,120.328,-591.056,0,0
301824.1,118.986,-590.273,0,0
302084.425,117.856,-589.441,0,0
302344.75,116.901,-588.65,0,0
302605.075,116.146,-587.948,0,0
302865.4,115.466,-587.424,0,0
303125.725,114.836,-587.101,0,0
303386.05,114.149,-586.917,0,0
303646.375,113.401,-586.895,0,0
303906.7,112.488,-586.974,0,0
304167.025,111.452,-587.093,0,0
304427.35,110.246,-587.173,0,0
304687.675,108.983,-587.252,0,0
304948.0,107.593,-587.323,0,0
305208.325,106.041,-587.313,0,0
305468.65,104.363,-587.231,0,0
305728.975,102.605,-586.993,0,0
305989.3,100.808,-586.586,0,0
306249.625,99.0102,-586.068,0,0
306509.95,97.2293,-585.409,0,0
306770.275,95.4555,-584.646,0,0
307030.6,93.7147,-583.752,0,0
307290.925,92.0624,-582.744,0,0
307551.25,90.4962,-581.668,0,0
307811.575,89.0007,-580.541,0,0
308071.9,87.5954,-579.384,0,0
308332.225,86.2497,-578.213,0,0
308592.55,84.9591,-577.039,0,0
308852.875,83.704,-575.833,0,0
309113.2,82.4837,-574.616,0,0
309373.525,81.308,-573.379,0,0
309633.85,80.1683,-572.123,0,0
309894.175,79.0658,-570.867,0,0
310154.5,77.9824,-569.57,0,0
310414.825,76.9542,-568.276,0,0
310675.15,75.9473,-566.981,0,0
310935.475,74.9915,-565.636,0,0
311195.8,74.0513,-564.289,0,0
311456.125,73.1562,-562.908,0,0
311716.45,72.3456,-561.513,0,0
311976.775,71.5697,-560.108,0,0
312237.1,70.8641,-558.727,0,0
312497.425,70.2104,-557.356,0,0
312757.75,69.593,-556.019,0,0
313018.075,68.996,-554.719,0,0
313278.4,68.4223,-553.437,0,0
313538.725,67.851,-552.193,0,0
313799.05,67.3035,-550.926,0,0
314059.375,66.7496,-549.696,0,0
314319.7,66.2042,-548.454,0,0
314580,65.6901,-547.254,0,0
314840,65.1584,-546.037,0,0
315101,64.665,-544.771,0,0
315361,64.1353,-543.564,0,0
315621,63.6333,-542.338,0,0
315882,63.1369,-541.045,0,0
316142,62.6309,-539.874,0,0
316402,62.2476,-538.481,0,0
316663,61.811,-537.226,0,0
316923,61.4422,-535.975,0,0
317183,61.0705,-534.667,0,0
317444,60.7555,-533.414,0,0
317704,60.5134,-532.076,0,0
317964,60.2972,-530.907,0,0
318225,60.1132,-529.656,0,0
318485,59.9352,-528.459,0,0
318745,59.6915,-527.315,0,0
319006,59.5806,-526.167,0,0
319266,59.3735,-525.099,0,0
319526,59.1546,-524.007,0,0
319787,58.9724,-522.884,0,0
320047,58.806,-521.839,0,0
320307,58.5679,-520.775,0,0
320567,58.3901,-519.66,0,0
320828,58.2103,-518.603,0,0
321088,57.9477,-517.555,0,0
321348,57.7822,-516.496,0,0
321609,57.5948,-515.32,0,0
321869,57.4034,-514.261,0,0
322129,57.2808,-513.16,0,0
322390,57.0701,-512.103,0,0
322650,56.9203,-511.008,0,0
322910,56.739,-509.957,0,0
323171,56.5533,-508.827,0,0
323431,56.3633,-507.629,0,0
323691,56.1383,-506.436,0,0
323952,55.9787,-505.134,0,0
324212,55.9284,-503.873,0,0
324472,55.8878,-502.566,0,0
324733,55.9381,-501.167,0,0
324993,56.0593,-499.812,0,0
325253,56.3049,-498.408,0,0
325514,56.6076,-497.037,0,0
325774,57.04,-495.775,0,0
326034,57.5766,-494.602,0,0
326295,58.1911,-493.456,0,0
326555,58.8098,-492.462,0,0
326815,59.4868,-491.549,0,0
327076,60.1551,-490.765,0,0
327336,60.7804,-490.089,0,0
327596,61.3809,-489.535,0,0
327857,61.9203,-489.009,0,0
328117,62.3279,-488.551,0,0
328377,62.6809,-488.103,0,0
328638,63.0901,-487.63,0,0
328898,63.4057,-487.153,0,0
329158,63.7775,-486.733,0,0
329419,64.1059,-486.338,0,0
329679,64.4618,-485.987,0,0
329939,64.7021,-485.62,0,0
330200,65.0578,-485.369,0,0
330460,65.2375,-485.122,0,0
330720.15,65.4998,-484.907,0,0
330980.475,65.6365,-484.753,0,0
331240.8,65.818,-484.59,0,0
331501.125,65.8141,-484.479,0,0
331761.45,65.8646,-484.445,0,0
332021.775,65.8028,-484.306,0,0
332282.1,65.7064,-484.217,0,0
332542.425,65.5363,-484.149,0,0
332802.75,65.2269,-484.031,0,0
333063.075,64.9436,-483.88,0,0
333323.4,64.5477,-483.688,0,0
333583.725,64.0838,-483.491,0,0
333844.05,63.6192,-483.199,0,0
334104.375,63.1262,-482.807,0,0
334364.7,62.7474,-482.41,0,0
334625.025,62.1593,-481.921,0,0
334885.35,61.6862,-481.395,0,0
335145.675,61.2313,-480.829,0,0
335406.0,60.7781,-480.285,0,0
335666.325,60.2957,-479.692,0,0
335926.65,59.9304,-479.068,0,0
336186.975,59.5582,-478.352,0,0
336447.3,59.0976,-477.7,0,0
336707.625,58.7191,-476.992,0,0
336967.95,58.3013,-476.303,0,0
337228.275,57.9099,-475.537,0,0
337488.6,57.5459,-474.757,0,0
337748.925,57.1927,-473.922,0,0
338009.25,56.8305,-473.12,0,0
338269.575,56.5923,-472.295,0,0
338529.9,56.3842,-471.465,0,0
338790.225,56.1559,-470.632,0,0
339050.55,55.901,-469.837,0,0
339310.875,55.7158,-468.955,0,0
339571.2,55.5025,-468.132,0,0
339831.525,55.3408,-467.317,0,0
340091.85,55.1771,-466.487,0,0
340352.175,55.0514,-465.623,0,0
340612.5,54.8955,-464.811,0,0
340872.825,54.8056,-463.939,0,0
341133.15,54.6408,-463.123,0,0
341393.475,54.545,-462.304,0,0
341653.8,54.421,-461.415,0,0
341914.125,54.3469,-460.572,0,0
342174.45,54.3411,-459.676,0,0
342434.775,54.223,-458.776,0,0
342695.1,54.1937,-457.974,0,0
342955.425,54.1883,-457.043,0,0
343215.75,54.2153,-456.141,0,0
343476.075,54.2602,-455.319,0,0
343736.4,54.2779,-454.455,0,0
343996.725,54.3369,-453.544,0,0
344257.05,54.4107,-452.698,0,0
344517.375,54.5034,-451.824,0,0
344777.7,54.6169,-451.001,0,0
345038.025,54.7671,-450.162,0,0
345298.35,54.9029,-449.32,0,0
345558.675,55.0857,-448.479,0,0
345819.0,55.296,-447.691,0,0
346079.325,55.5454,-446.885,0,0
346339.65,55.7503,-446.106,0,0
346599.975,55.9998,-445.343,0,0
346860,56.2435,-444.568,0,0
347121,56.4686,-443.842,0,0
347381,56.7696,-443.102,0,0
347641,57.0423,-442.397,0,0
347902,57.3058,-441.704,0,0
348162,57.563,-441.044,0,0
348422,57.8722,-440.377,0,0
348683,58.2111,-439.705,0,0
348943,58.4908,-439.1,0,0
349203,58.8391,-438.431,0,0
349464,59.1952,-437.815,0,0
349724,59.594,-437.248,0,0
349984,59.9595,-436.684,0,0
350245,60.3814,-436.185,0,0
350505,60.7582,-435.708,0,0
350765,61.1147,-435.253,0,0
351025,61.4828,-434.84,0,0
351286,61.8016,-434.481,0,0
351546,62.1182,-434.117,0,0
351806,62.3417,-433.79,0,0
352067,62.5809,-433.418,0,0
352327,62.8164,-433.046,0,0
352587,62.993,-432.651,0,0
352848,63.1924,-432.283,0,0
353108,63.405,-431.879,0,0
353368,63.66,-431.452,0,0
353629,63.8739,-431.027,0,0
353889,64.0278,-430.633,0,0
354149,64.2828,-430.19,0,0
354410,64.5812,-429.832,0,0
354670,64.8037,-429.431,0,0
354930,65.0388,-429.051,0,0
355191,65.3195,-428.694,0,0
355451,65.5645,-428.339,0,0
355711,65.8139,-427.989,0,0
355972,66.0568,-427.683,0,0
356232,66.2968,-427.312,0,0
356492,66.5301,-426.975,0,0
356753,66.7795,-426.655,0,0
357013,67.0049,-426.299,0,0
357273,67.2773,-425.958,0,0
357534,67.5728,-425.631,0,0
357794,67.8763,-425.321,0,0
358054,68.205,-425.068,0,0
358315,68.5141,-424.802,0,0
358575,68.885,-424.559,0,0
358835,69.2731,-424.36,0,0
359096,69.6091,-424.203,0,0
359356,69.9524,-424.101,0,0
359616,70.2698,-424.04,0,0
359877,70.5799,-424.063,0,0
360137,70.8863,-424.057,0,0
360397,71.0967,-424.096,0,0
360658,71.2714,-424.198,0,0
360918,71.3717,-424.276,0,0
361178,71.5199,-424.329,0,0
361438,71.5719,-424.45,0,0
361699,71.5608,-424.505,0,0
361959,71.5425,-424.572,0,0
362219,71.4541,-424.665,0,0
362480,71.4298,-424.635,0,0
362740.1,71.3451,-424.675,0,0
363000.425,71.2673,-424.655,0,0
363260.75,71.1408,-424.62,0,0
363521.075,70.9914,-424.591,0,0
363781.4,70.8495,-424.607,0,0
364041.725,70.6741,-424.606,0,0
364302.05,70.4763,-424.55,0,0
364562.375,70.2753,-424.446,0,0
364822.7,70.0316,-424.354,0,0
365083.025,69.806,-424.195,0,0
365343.35,69.527,-424.05,0,0
365603.675,69.3442,-423.899,0,0
365864.0,69.0802,-423.695,0,0
366124.325,68.8547,-423.514,0,0
366384.65,68.6668,-423.263,0,0
366644.975,68.3901,-423.013,0,0
366905.3,68.2144,-422.714,0,0
367165.625,68.0779,-422.422,0,0
367425.95,67.9467,-422.071,0,0
367686.275,67.8471,-421.784,0,0
367946.6,67.6873,-421.527,0,0
368206.925,67.6721,-421.218,0,0
368467.25,67.683,-420.996,0,0
368727.575,67.6407,-420.757,0,0
368987.9,67.5676,-420.59,0,0
369248.225,67.5407,-420.467,0,0
369508.55,67.4732,-420.371,0,0
369768.875,67.3597,-420.273,0,0
370029.2,67.2807,-420.189,0,0
370289.525,67.0918,-420.12,0,0
370549.85,66.8926,-420.078,0,0
370810.175,66.5886,-419.983,0,0
371070.5,66.3302,-419.809,0,0
371330.825,66.1062,-419.611,0,0
371591.15,65.8147,-419.381,0,0
371851.475,65.5786,-419.204,0,0
372111.8,65.3666,-419.003,0,0
372372.125,65.1715,-418.769,0,0
372632.45,64.9482,-418.614,0,0
372892.775,64.7203,-418.384,0,0
373153.1,64.5011,-418.203,0,0
373413.425,64.242,-418.005,0,0
373673.75,64.077,-417.841,0,0
373934.075,63.7512,-417.693,0,0
374194.4,63.4665,-417.501,0,0
374454.725,63.1598,-417.346,0,0
374715.05,62.8836,-417.141,0,0
374975.375,62.5475,-416.969,0,0
375235.7,62.1793,-416.774,0,0
375496.025,61.8595,-416.557,0,0
375756.35,61.4993,-416.234,0,0
376016.675,61.1287,-415.935,0,0
376277.0,60.7457,-415.657,0,0
376537.325,60.4072,-415.294,0,0
376797.65,60.117,-414.951,0,0
377057.975,59.8587,-414.641,0,0
377318.3,59.5915,-414.32,0,0
377578.625,59.4203,-414.06,0,0
377838.95,59.198,-413.831,0,0
378099.275,58.8856,-413.699,0,0
378359.6,58.5866,-413.565,0,0
378619.925,58.1415,-413.448,0,0
378880,57.6328,-413.272,0,0
379141,57.0512,-413.038,0,0
379401,56.3648,-412.73,0,0
379661,55.6851,-412.336,0,0
379922,54.9946,-411.789,0,0
380182,54.3595,-411.109,0,0
380442,53.8514,-410.395,0,0
380703,53.4843,-409.541,0,0
380963,53.2216,-408.745,0,0
381223,53.1167,-407.957,0,0
381483,53.1002,-407.295,0,0
381744,53.1425,-406.77,0,0
382004,53.1189,-406.363,0,0
382264,53.0337,-405.951,0,0
382525,52.9479,-405.652,0,0
382785,52.7959,-405.362,0,0
383045,52.5279,-405.103,0,0
383306,52.3144,-404.823,0,0
383566,51.9213,-404.476,0,0
383826,51.5453,-404.129,0,0
384087,51.1678,-403.743,0,0
384347,50.7971,-403.356,0,0
384607,50.3657,-402.875,0,0
384868,49.9778,-402.409,0,0
385128,49.6023,-401.827,0,0
385388,49.2418,-401.313,0,0
385649,48.8991,-400.797,0,0
385909,48.5802,-400.252,0,0
386169,48.2236,-399.638,0,0
386430,47.8887,-399.062,0,0
386690,47.5758,-398.456,0,0
386950,47.2159,-397.845,0,0
387211,46.9291,-397.229,0,0
387471,46.6323,-396.594,0,0
387731,46.3391,-395.92,0,0
387992,46.1042,-395.213,0,0
388252,45.8373,-394.524,0,0
388512,45.6318,-393.799,0,0
388773,45.4748,-393.056,0,0
389033,45.2626,-392.335,0,0
389293,45.1736,-391.578,0,0
389554,45.0668,-390.815,0,0
389814,45.0363,-390.119,0,0
390074,45.0447,-389.41,0,0
390335,45.0863,-388.704,0,0
390595,45.2051,-388.136,0,0
390855,45.3046,-387.576,0,0
391116,45.3862,-387.074,0,0
391376,45.4704,-386.65,0,0
391636,45.4932,-386.262,0,0
391896,45.4792,-385.925,0,0
392157,45.3798,-385.611,0,0
392417,45.2734,-385.335,0,0
392677,45.0132,-384.964,0,0
392938,44.7389,-384.64,0,0
393198,44.4426,-384.217,0,0
393458,44.1342,-383.743,0,0
393719,43.7341,-383.287,0,0
393979,43.3534,-382.715,0,0
394239,43.0538,-382.087,0,0
394500,42.686,-381.416,0,0
394760.05,42.33,-380.758,0,0
395020.375,42.0152,-379.947,0,0
395280.7,41.7848,-379.184,0,0
395541.025,41.6037,-378.373,0,0
395801.35,41.4093,-377.556,0,0
396061.675,41.286,-376.764,0,0
396322.0,41.2034,-375.928,0,0
396582.325,41.0941,-375.148,0,0
396842.65,41.0907,-374.331,0,0
397102.975,41.0674,-373.491,0,0
397363.3,41.0684,-372.7,0,0
397623.625,41.0908,-371.937,0,0
397883.95,41.1514,-371.161,0,0
398144.275,41.2475,-370.428,0,0
398404.6,41.2894,-369.639,0,0
398664.925,41.397,-368.953,0,0
398925.25,41.5281,-368.238,0,0
399185.575,41.6385,-367.526,0,0
399445.9,41.8029,-366.852,0,0
399706.225,41.9278,-366.172,0,0
399966.55,42.0398,-365.512,0,0
400006.6,42.0741,-365.458,0,0