File: Accelerated corrosion test data/2025-09-30_06-00-03/sample_8.csv
Frequency (Hz),Impedance (ohms),Phase (Radians),Temperature (C),Humidity (%)
10000.0,320.119,-10921.1,0,0
10260.325,311.995,-10647.5,0,0
10520.65,304.058,-10387.1,0,0
10780.975,296.645,-10139.6,0,0
11041.3,289.627,-9903.25,0,0
11301.625,283.148,-9678.87,0,0
11561.95,277.081,-9462.83,0,0
11822.275,271.46,-9257.42,0,0
12082.6,267.939,-9058.17,0,0
12342.925,265.04,-8872.18,0,0
12603.25,259.663,-8692.11,0,0
12863.575,255.499,-8521,0,0
13123.9,248.212,-8357.95,0,0
13384.225,241.666,-8195.89,0,0
13644.55,237.733,-8041.17,0,0
13904.875,231.322,-7894.74,0,0
14165.2,226.526,-7750.11,0,0
14425.525,220.894,-7612.11,0,0
14685.8,218,-7478.62,0,0
14946.175,213.924,-7349.15,0,0
15206.5,210.443,-7224.23,0,0
15466.825,206.979,-7104.22,0,0
15727.15,203.514,-6988.1,0,0
15987.5,200.38,-6875.28,0,0
16247.8,197.005,-6766.29,0,0
16508.125,194.004,-6660.58,0,0
16768.45,190.733,-6558.13,0,0
17028.775,187.909,-6458.8,0,0
17289.1,185.022,-6362.09,0,0
17549.425,182.369,-6268.16,0,0
17809.75,180.077,-6176.86,0,0
18070.075,178.254,-6089.69,0,0
18330.4,174.994,-6002.61,0,0
18590.725,172.794,-5917.91,0,0
18851.05,172.385,-5835.05,0,0
19111.375,170.89,-5756.48,0,0
19371.7,173.367,-5679.11,0,0
19632.025,169.685,-5608.16,0,0
19892.35,167.458,-5538.18,0,0
20152.675,163.799,-5465.76,0,0
20413.0,162.941,-5395.62,0,0
20673.3,161.845,-5328.65,0,0
20933.65,160.805,-5264.94,0,0
21193.975,158.265,-5201.85,0,0
21454.3,155.563,-5137.94,0,0
21714.625,153.805,-5076.27,0,0
21974.9,153.64,-5016.61,0,0
22235.275,153.517,-4958.76,0,0
22495.6,151.316,-4903.44,0,0
22755.925,150.682,-4849.08,0,0
23016.25,147.206,-4794.46,0,0
23276.6,144.384,-4742.64,0,0
23536.9,142.753,-4690.42,0,0
23797.225,139.987,-4638.72,0,0
24057.55,138.487,-4588.52,0,0
24317.875,137.134,-4539.34,0,0
24578.2,135.019,-4491.39,0,0
24838.525,133.327,-4443.24,0,0
25098.85,132.212,-4397.68,0,0
25359.175,130.695,-4352.48,0,0
25619.5,129.76,-4308.17,0,0
25879.8,128.238,-4263.92,0,0
26140.1,127.95,-4222.02,0,0
26400.5,126.616,-4180.09,0,0
26660.8,125.062,-4139.13,0,0
26921.1,124.309,-4098.25,0,0
27181.4,124.031,-4059.05,0,0
27441.8,122.768,-4020.73,0,0
27702.1,122.6,-3983.29,0,0
27962.4,120.809,-3946.52,0,0
28222.7,120.624,-3908.11,0,0
28483.1,119.912,-3873.02,0,0
28743.4,119.941,-3837.46,0,0
29003.7,118.981,-3803.34,0,0
29264,118.819,-3768.75,0,0
29524.4,117.775,-3735.83,0,0
29784.7,117.665,-3702.98,0,0
30045,117.631,-3671.71,0,0
30305.3,117.451,-3640.17,0,0
30565.7,116.506,-3609.81,0,0
30826,115.545,-3579.65,0,0
31086.3,114.881,-3549.76,0,0
31346.6,114.02,-3519.86,0,0
31607,113.182,-3490.58,0,0
31867.3,112.75,-3462.12,0,0
32127.6,112.418,-3433.97,0,0
32387.9,111.738,-3406.26,0,0
32648.3,111.768,-3378.35,0,0
32908.6,111.846,-3350.89,0,0
33168.9,111.84,-3324.9,0,0
33429.2,112.662,-3298.91,0,0
33689.6,113.412,-3274.17,0,0
33949.9,113.564,-3250.81,0,0
34210.2,112.833,-3227,0,0
34470.5,112.142,-3203.54,0,0
34730.9,111.653,-3179.6,0,0
34991.2,111.553,-3156.66,0,0
35251.5,111.226,-3134.29,0,0
35511.8,110.654,-3112.51,0,0
35772.2,109.334,-3091.41,0,0
36032.5,108.376,-3069.52,0,0
36292.8,106.968,-3048.54,0,0
36553.1,105.585,-3027.45,0,0
36813.5,104.294,-3006.32,0,0
37073.8,103.009,-2985.49,0,0
37334.1,101.787,-2965.01,0,0
37594.4,100.591,-2944.73,0,0
37854.8,99.1643,-2924.63,0,0
38115.1,97.6354,-2904.89,0,0
38375.4,96.3609,-2885.17,0,0
38635.7,94.7999,-2865.33,0,0
38896.1,93.5149,-2845.72,0,0
39156.4,92.4105,-2826.56,0,0
39416.7,91.3022,-2807.39,0,0
39677,90.0573,-2788.3,0,0
39937.4,89.1977,-2769.57,0,0
40197.7,88.1285,-2750.59,0,0
40458,87.7934,-2731.81,0,0
40718.3,87.8069,-2714.19,0,0
40978.7,87.2092,-2696.65,0,0
41239,86.5509,-2679.23,0,0
41499.3,85.8784,-2661.86,0,0
41759.6,85.4461,-2644.81,0,0
42020,84.8775,-2628.22,0,0
42280.275,84.1411,-2611.34,0,0
42540.6,83.8174,-2594.62,0,0
42800.925,83.6703,-2578.4,0,0
43061.25,83.4415,-2562.31,0,0
43321.575,83.4638,-2546.53,0,0
43581.9,83.6681,-2531.19,0,0
43842.225,83.3079,-2516.67,0,0
44102.55,82.5749,-2501.61,0,0
44362.875,81.945,-2486.87,0,0
44623.2,81.1977,-2472.42,0,0
44883.525,80.2784,-2457.6,0,0
45143.85,79.734,-2443,0,0
45404.175,79.2754,-2428.46,0,0
45664.5,78.6818,-2414.07,0,0
45924.825,78.2026,-2400.4,0,0
46185.15,77.6901,-2386.33,0,0
46445.475,77.1457,-2372.37,0,0
46705.8,76.8523,-2358.41,0,0
46966.125,76.4968,-2345,0,0
47226.45,76.2222,-2331.49,0,0
47486.775,75.8651,-2318.35,0,0
47747.1,75.6828,-2305.16,0,0
48007.425,75.3902,-2292.57,0,0
48267.75,74.9606,-2279.8,0,0
48528.075,74.4323,-2266.98,0,0
48788.4,74.3236,-2254.7,0,0
49048.725,73.8955,-2242.66,0,0
49309.05,73.2836,-2230.13,0,0
49569.375,72.8411,-2217.79,0,0
49829.7,72.5285,-2205.72,0,0
50090.025,72.2094,-2193.79,0,0
50350.35,71.8853,-2181.94,0,0
50610.675,71.4903,-2170.14,0,0
50871.0,71.2672,-2158.46,0,0
51131.325,70.9644,-2146.85,0,0
51391.65,70.8706,-2135.44,0,0
51651.975,70.8003,-2124.06,0,0
51912.3,70.6956,-2112.89,0,0
52172.625,70.6073,-2102.04,0,0
52432.95,70.4982,-2091.31,0,0
52693.275,70.1902,-2080.46,0,0
52953.6,70.222,-2069.83,0,0
53213.925,70.3804,-2059.44,0,0
53474.25,70.1775,-2049.33,0,0
53734.575,70.1614,-2039.17,0,0
53994.9,69.8437,-2029.67,0,0
54255.225,69.2846,-2019.92,0,0
54515.55,68.3931,-2010.17,0,0
54775.875,67.7617,-1999.81,0,0
55036.2,67.4775,-1990.24,0,0
55296.525,66.8828,-1980.44,0,0
55556.85,66.1177,-1970.61,0,0
55817.175,65.6488,-1960.64,0,0
56077.5,65.1157,-1951.06,0,0
56337.825,64.6898,-1941.25,0,0
56598.15,64.3151,-1931.58,0,0
56858.475,63.8914,-1921.92,0,0
57118.8,63.6786,-1912.34,0,0
57379.125,63.44,-1902.93,0,0
57639.45,63.3539,-1893.62,0,0
57899.775,63.103,-1884.4,0,0
58160.1,62.94,-1875.23,0,0
58420.4,62.8707,-1866.07,0,0
58680.7,62.8762,-1857.15,0,0
58941.1,62.8168,-1848.31,0,0
59201.4,63.0685,-1839.69,0,0
59461.7,62.9725,-1831.3,0,0
59722,62.6799,-1823.01,0,0
59982.4,62.3493,-1814.6,0,0
60242.7,62.0451,-1806.21,0,0
60503,61.6595,-1797.76,0,0
60763.3,61.4008,-1789.21,0,0
61023.7,61.2447,-1780.71,0,0
61284,61.1763,-1772.37,0,0
61544.3,61.1822,-1764.07,0,0
61804.6,61.2145,-1756.04,0,0
62065,61.3198,-1748.13,0,0
62325.3,61.1594,-1740.23,0,0
62585.6,60.9503,-1732.22,0,0
62845.9,61.0023,-1724.22,0,0
63106.3,61.1802,-1716.39,0,0
63366.6,61.3023,-1708.57,0,0
63626.9,61.5819,-1700.95,0,0
63887.2,61.7307,-1693.5,0,0
64147.6,61.866,-1685.97,0,0
64407.9,62.3511,-1678.47,0,0
64668.2,62.8502,-1671.68,0,0
64928.5,62.9351,-1664.96,0,0
65188.9,62.8813,-1658.27,0,0
65449.2,62.7321,-1651.38,0,0
65709.5,62.7088,-1644.88,0,0
65969.8,62.3643,-1638.12,0,0
66230.2,62.1006,-1631.47,0,0
66490.5,61.4964,-1625.09,0,0
66750.8,60.7722,-1618.16,0,0
67011.1,60.2642,-1611.26,0,0
67271.5,59.8072,-1604.09,0,0
67531.8,59.5557,-1597.13,0,0
67792.1,59.4841,-1590.23,0,0
68052.4,59.3041,-1583.46,0,0
68312.8,59.1353,-1576.61,0,0
68573.1,58.9182,-1569.94,0,0
68833.4,58.8214,-1563.34,0,0
69093.7,58.6163,-1556.63,0,0
69354.1,58.4144,-1550.04,0,0
69614.4,58.3447,-1543.33,0,0
69874.7,58.4006,-1536.85,0,0
70135,58.4725,-1530.39,0,0
70395.4,58.5986,-1523.84,0,0
70655.7,58.771,-1517.52,0,0
70916,58.8455,-1511.33,0,0
71176.3,58.9532,-1505.22,0,0
71436.7,59.0396,-1499.09,0,0
71697,59.0924,-1492.99,0,0
71957.3,59.3595,-1487.12,0,0
72217.6,59.455,-1481.34,0,0
72478,59.4234,-1475.49,0,0
72738.3,59.4107,-1469.85,0,0
72998.6,59.2669,-1464.26,0,0
73258.9,58.928,-1458.51,0,0
73519.3,58.7292,-1452.72,0,0
73779.6,58.5736,-1446.78,0,0
74039.9,58.5261,-1440.97,0,0
74300.225,58.623,-1435.34,0,0
74560.55,58.5653,-1429.79,0,0
74820.875,58.3319,-1424.2,0,0
75081.2,58.1448,-1418.56,0,0
75341.525,58.0769,-1412.91,0,0
75601.85,57.898,-1407.25,0,0
75862.175,57.892,-1401.56,0,0
76122.5,58.0103,-1396.04,0,0
76382.825,57.9827,-1390.56,0,0
76643.15,58.0606,-1385.07,0,0
76903.475,58.1509,-1379.85,0,0
77163.8,58.0451,-1374.5,0,0
77424.125,57.9826,-1369.25,0,0
77684.45,57.9325,-1363.93,0,0
77944.775,57.9539,-1358.7,0,0
78205.1,57.8982,-1353.53,0,0
78465.425,57.7888,-1348.28,0,0
78725.75,57.7023,-1343.12,0,0
78986.075,57.5242,-1337.85,0,0
79246.4,57.5617,-1332.6,0,0
79506.725,57.4441,-1327.45,0,0
79767.05,57.3987,-1322.24,0,0
80027.375,57.4289,-1316.92,0,0
80287.7,57.4856,-1311.84,0,0
80548.025,57.5615,-1306.7,0,0
80808.35,57.7106,-1301.63,0,0
81068.675,57.7681,-1296.67,0,0
81329.0,57.7451,-1291.64,0,0
81589.325,57.8484,-1286.6,0,0
81849.65,57.9208,-1281.6,0,0
82109.975,58.0342,-1276.62,0,0
82370.3,58.1241,-1271.58,0,0
82630.625,58.3202,-1266.52,0,0
82890.95,58.6452,-1261.47,0,0
83151.275,59.1305,-1256.7,0,0
83411.6,59.3898,-1252.04,0,0
83671.925,59.6143,-1247.23,0,0
83932.25,60.0698,-1242.36,0,0
84192.575,60.5624,-1237.72,0,0
84452.9,61.0172,-1233.23,0,0
84713.225,61.495,-1228.87,0,0
84973.55,61.7188,-1224.41,0,0
85233.875,62.0262,-1220.07,0,0
85494.2,62.4381,-1215.75,0,0
85754.525,62.7573,-1211.76,0,0
86014.85,62.6819,-1207.66,0,0
86275.175,62.6484,-1203.27,0,0
86535.5,62.626,-1198.96,0,0
86795.825,62.5314,-1194.46,0,0
87056.15,62.7242,-1189.83,0,0
87316.475,62.9442,-1185.42,0,0
87576.8,63.0415,-1181.1,0,0
87837.125,63.2286,-1176.53,0,0
88097.45,63.47,-1172.09,0,0
88357.775,63.9357,-1167.54,0,0
88618.1,64.3683,-1163.15,0,0
88878.425,64.8597,-1158.94,0,0
89138.75,65.1755,-1154.72,0,0
89399.075,65.6382,-1150.49,0,0
89659.4,66.3012,-1146.29,0,0
89919.725,66.7219,-1142.18,0,0
90180,67.1461,-1138.01,0,0
90440.4,67.7708,-1133.91,0,0
90700.7,68.2861,-1129.84,0,0
90961,68.7805,-1125.89,0,0
91221.3,69.4495,-1121.64,0,0
91481.7,70.4182,-1117.47,0,0
91742,71.45,-1113.71,0,0
92002.3,72.4467,-1110.07,0,0
92262.6,73.5113,-1106.62,0,0
92523,74.4915,-1103.42,0,0
92783.3,75.3558,-1100.48,0,0
93043.6,75.8166,-1097.64,0,0
93303.9,76.3267,-1094.78,0,0
93564.3,76.3833,-1091.98,0,0
93824.6,76.4509,-1089.05,0,0
94084.9,76.3178,-1086.26,0,0
94345.2,75.7394,-1083.27,0,0
94605.6,75.0467,-1079.75,0,0
94865.9,74.694,-1075.64,0,0
95126.2,74.9293,-1071.63,0,0
95386.5,75.218,-1067.89,0,0
95646.9,75.7382,-1064.2,0,0
95907.2,76.2596,-1060.85,0,0
96167.5,76.5447,-1057.81,0,0
96427.8,76.5263,-1054.44,0,0
96688.2,76.5671,-1050.91,0,0
96948.5,76.9492,-1047.31,0,0
97208.8,77.3773,-1043.85,0,0
97469.1,77.7718,-1040.46,0,0
97729.5,78.3791,-1037.04,0,0
97989.8,79.1099,-1033.98,0,0
98250.1,79.6167,-1031.13,0,0
98510.4,79.8289,-1028.28,0,0
98770.8,80.1051,-1025.22,0,0
99031.1,80.5246,-1022.3,0,0
99291.4,80.855,-1019.68,0,0
99551.7,80.8301,-1017.08,0,0
99812.1,80.5995,-1014.29,0,0
100072,80.3332,-1011.14,0,0
100333,80.4071,-1007.9,0,0
100593,80.6361,-1004.82,0,0
100853,80.9379,-1001.9,0,0
101114,81.0858,-999.174,0,0
101374,81.0335,-996.445,0,0
101634,80.9103,-993.619,0,0
101895,80.7461,-990.728,0,0
102155,80.6106,-987.831,0,0
102415,80.4225,-984.842,0,0
102676,80.3253,-981.881,0,0
102936,80.184,-978.827,0,0
103196,80.1575,-975.8,0,0
103457,80.0231,-972.77,0,0
103717,80.0516,-969.789,0,0
103977,80.0457,-966.869,0,0
104238,79.8944,-963.997,0,0
104498,79.7298,-961.048,0,0
104758,79.4598,-957.978,0,0
105019,79.3886,-954.855,0,0
105279,79.2436,-951.78,0,0
105539,79.2308,-948.625,0,0
105800,79.2055,-945.458,0,0
106060,79.2512,-942.22,0,0
106320.175,79.4365,-939.12,0,0
106580.5,79.6329,-935.977,0,0
106840.825,79.9543,-933.006,0,0
107101.15,80.2355,-930.099,0,0
107361.475,80.5192,-927.27,0,0
107621.8,80.6888,-924.556,0,0
107882.125,80.8397,-921.821,0,0
108142.45,80.8295,-919.177,0,0
108402.775,80.7327,-916.293,0,0
108663.1,80.7839,-913.346,0,0
108923.425,80.9201,-910.459,0,0
109183.75,81.0895,-907.547,0,0
109444.075,81.3614,-904.706,0,0
109704.4,81.5513,-902.029,0,0
109964.725,81.8314,-899.318,0,0
110225.05,81.9721,-896.666,0,0
110485.375,82.1224,-894.127,0,0
110745.7,82.2546,-891.535,0,0
111006.025,82.3046,-888.976,0,0
111266.35,82.3731,-886.529,0,0
111526.675,82.2079,-883.916,0,0
111787.0,82.1293,-881.179,0,0
112047.325,82.176,-878.482,0,0
112307.65,82.1537,-875.861,0,0
112567.975,82.1953,-873.228,0,0
112828.3,82.2093,-870.607,0,0
113088.625,82.2067,-868.042,0,0
113348.95,82.1348,-865.448,0,0
113609.275,82.1063,-862.866,0,0
113869.6,82.0916,-860.332,0,0
114129.925,82.0582,-857.731,0,0
114390.25,81.9481,-855.157,0,0
114650.575,81.7985,-852.615,0,0
114910.9,81.6691,-849.955,0,0
115171.225,81.5727,-847.283,0,0
115431.55,81.5009,-844.627,0,0
115691.875,81.4559,-842.073,0,0
115952.2,81.3466,-839.44,0,0
116212.525,81.2419,-836.858,0,0
116472.85,81.1144,-834.25,0,0
116733.175,80.9669,-831.638,0,0
116993.5,80.8038,-829.03,0,0
117253.825,80.595,-826.368,0,0
117514.15,80.408,-823.683,0,0
117774.475,80.208,-820.886,0,0
118034.8,80.0898,-818.123,0,0
118295.125,79.927,-815.348,0,0
118555.45,79.7942,-812.454,0,0
118815.775,79.8276,-809.501,0,0
119076.1,80.0017,-806.696,0,0
119336.425,80.2518,-804.087,0,0
119596.75,80.2821,-801.584,0,0
119857.075,80.1925,-798.969,0,0
120117.4,80.1344,-796.355,0,0
120377.725,80.0901,-793.644,0,0
120638.05,80.0558,-791.027,0,0
120898.375,79.9156,-788.412,0,0
121158.7,79.7168,-785.608,0,0
121419.025,79.7346,-782.685,0,0
121679.35,79.8509,-779.901,0,0
121939.675,79.8804,-777.182,0,0
122200.0,79.933,-774.417,0,0
122460,80.0141,-771.684,0,0
122721,80.1462,-768.914,0,0
122981,80.2926,-766.218,0,0
123241,80.431,-763.595,0,0
123502,80.4879,-761.011,0,0
123762,80.4642,-758.341,0,0
124022,80.4136,-755.618,0,0
124283,80.3983,-752.781,0,0
124543,80.4985,-749.916,0,0
124803,80.6875,-747.031,0,0
125064,80.9302,-744.192,0,0
125324,81.2711,-741.499,0,0
125584,81.5566,-738.812,0,0
125845,81.8026,-736.183,0,0
126105,82.0435,-733.556,0,0
126365,82.2102,-730.899,0,0
126626,82.429,-728.185,0,0
126886,82.7315,-725.494,0,0
127146,83.0999,-722.875,0,0
127406,83.3562,-720.246,0,0
127667,83.686,-717.732,0,0
127927,84.0147,-715.227,0,0
128187,84.216,-712.686,0,0
128448,84.5192,-710.212,0,0
128708,84.7674,-707.813,0,0
128968,84.8754,-705.463,0,0
129229,84.8784,-703.019,0,0
129489,84.9383,-700.41,0,0
129749,85.0704,-697.898,0,0
130010,85.0455,-695.451,0,0
130270,84.9115,-692.892,0,0
130530,84.7689,-690.117,0,0
130791,84.6966,-687.283,0,0
131051,84.6476,-684.339,0,0
131311,84.5846,-681.185,0,0
131572,84.9096,-677.785,0,0
131832,85.7162,-674.61,0,0
132092,86.5546,-671.904,0,0
132353,87.1717,-669.373,0,0
132613,87.6581,-667.002,0,0
132873,87.8379,-664.531,0,0
133134,87.9736,-661.721,0,0
133394,88.377,-658.731,0,0
133654,89.0621,-655.892,0,0
133915,89.7708,-653.274,0,0
134175,90.3917,-650.845,0,0
134435,90.8107,-648.359,0,0
134696,91.2175,-645.796,0,0
134956,91.6308,-643.215,0,0
135216,92.0332,-640.584,0,0
135477,92.5064,-637.923,0,0
135737,93.0187,-635.301,0,0
135997,93.6852,-632.617,0,0
136258,94.435,-630.166,0,0
136518,95.0009,-627.958,0,0
136778,95.4075,-625.571,0,0
137039,95.9053,-623.113,0,0
137299,96.474,-620.826,0,0
137559,97.0227,-618.665,0,0
137819,97.3156,-616.736,0,0
138080,97.2803,-614.773,0,0
138340.125,96.9409,-612.587,0,0
138600.45,96.4607,-610.053,0,0
138860.775,96.1119,-607.161,0,0
139121.1,95.9603,-604.127,0,0
139381.425,95.9285,-601.081,0,0
139641.75,96.0297,-597.945,0,0
139902.075,96.2303,-594.814,0,0
140162.4,96.554,-591.677,0,0
140422.725,96.942,-588.622,0,0
140683.05,97.3064,-585.652,0,0
140943.375,97.5401,-582.664,0,0
141203.7,97.7656,-579.533,0,0
141464.025,98.0669,-576.316,0,0
141724.35,98.4004,-573.028,0,0
141984.675,98.8544,-569.69,0,0
142245.0,99.3748,-566.398,0,0
142505.325,99.875,-563.055,0,0
142765.65,100.442,-559.63,0,0
143025.975,101.173,-556.188,0,0
143286.3,101.923,-552.865,0,0
143546.625,102.595,-549.552,0,0
143806.95,103.186,-546.138,0,0
144067.275,103.829,-542.532,0,0
144327.6,104.556,-538.825,0,0
144587.925,105.412,-534.954,0,0
144848.25,106.464,-530.992,0,0
145108.575,107.774,-526.991,0,0
145368.9,109.218,-523.068,0,0
145629.225,110.841,-519.094,0,0
145889.55,112.778,-515.136,0,0
146149.875,114.972,-511.419,0,0
146410.2,117.275,-507.967,0,0
146670.525,119.527,-504.765,0,0
146930.85,121.778,-501.651,0,0
147191.175,124.027,-498.695,0,0
147451.5,126.256,-495.835,0,0
147711.825,128.568,-493.05,0,0
147972.15,130.864,-490.758,0,0
148232.475,132.549,-488.814,0,0
148492.8,133.515,-486.487,0,0
148753.125,134.333,-483.454,0,0
149013.45,135.371,-479.917,0,0
149273.775,136.658,-476.028,0,0
149534.1,138.392,-471.814,0,0
149794.425,140.743,-467.365,0,0
150054.75,143.707,-463.138,0,0
150315.075,146.915,-459.186,0,0
150575.4,150.542,-455.385,0,0
150835.725,154.436,-452.164,0,0
151096.05,158.14,-449.102,0,0
151356.375,162.156,-445.911,0,0
151616.7,166.764,-442.877,0,0
151877.025,172.004,-440.555,0,0
152137.35,177.378,-439.296,0,0
152397.675,182.335,-439.069,0,0
152658.0,186.608,-439.367,0,0
152918.325,190.178,-439.999,0,0
153178.65,192.979,-440.796,0,0
153438.975,195.052,-441.301,0,0
153699.3,196.958,-441.505,0,0
153959.625,198.699,-441.475,0,0
154219.95,200.083,-441.605,0,0
154480,200.96,-441.284,0,0
154741,201.525,-440.476,0,0
155001,202.252,-439.011,0,0
155261,203.323,-437.016,0,0
155522,204.872,-434.847,0,0
155782,206.979,-432.471,0,0
156042,209.708,-430.166,0,0
156303,213.332,-428.389,0,0
156563,217.453,-428.064,0,0
156823,220.721,-429.235,0,0
157084,222.719,-431.022,0,0
157344,223.106,-432.995,0,0
157604,221.497,-433.801,0,0
157864,219.722,-432.379,0,0
158125,218.661,-429.904,0,0
158385,218.377,-426.562,0,0
158645,219.015,-423.066,0,0
158906,219.821,-419.408,0,0
159166,221.524,-414.871,0,0
159426,225.104,-410.299,0,0
159687,229.985,-407.193,0,0
159947,235.204,-405.69,0,0
160207,239.945,-405.817,0,0
160468,243.446,-406.901,0,0
160728,245.777,-408.252,0,0
160988,246.672,-409.552,0,0
161249,246.194,-409.645,0,0
161509,245.8,-407.915,0,0
161769,246.306,-405.171,0,0
162030,247.948,-402.245,0,0
162290,250.401,-399.433,0,0
162550,253.421,-397.059,0,0
162811,256.936,-395.245,0,0
163071,260.468,-394.018,0,0
163331,263.929,-393.08,0,0
163592,267.617,-392.596,0,0
163852,271.326,-392.73,0,0
164112,274.715,-393.342,0,0
164373,277.73,-394.707,0,0
164633,279.938,-396.448,0,0
164893,281.183,-397.9,0,0
165154,282.132,-398.79,0,0
165414,283.211,-399.534,0,0
165674,284.082,-400.239,0,0
165935,285.177,-400.905,0,0
166195,286.222,-402.048,0,0
166455,286.869,-403.869,0,0
166716,286.213,-405.832,0,0
166976,284.415,-407.287,0,0
167236,281.969,-407.684,0,0
167497,279.501,-407.09,0,0
167757,277.183,-405.681,0,0
168017,275.155,-404.004,0,0
168277,273.078,-401.983,0,0
168538,271.057,-399.192,0,0
168798,269.398,-395.989,0,0
169058,267.893,-392.454,0,0
169319,266.853,-388.296,0,0
169579,266.347,-384.065,0,0
169839,266.219,-379.566,0,0
170100,266.734,-375.094,0,0
170360.075,267.459,-370.975,0,0
170620.4,268.156,-366.783,0,0
170880.725,269.058,-362.439,0,0
171141.05,270.093,-358.029,0,0
171401.375,271.303,-353.528,0,0
171661.7,272.655,-348.949,0,0
171922.025,274.162,-344.173,0,0
172182.35,275.946,-339.01,0,0
172442.675,278.3,-333.673,0,0
172703.0,281.228,-328.331,0,0
172963.325,284.777,-323.218,0,0
173223.65,288.772,-318.57,0,0
173483.975,292.848,-314.196,0,0
173744.3,297.1,-310.07,0,0
174004.625,301.574,-306.171,0,0
174264.95,306.188,-302.427,0,0
174525.275,311.03,-299.006,0,0
174785.6,316.086,-295.988,0,0
175045.925,320.908,-293.814,0,0
175306.25,325.128,-291.527,0,0
175566.575,329.425,-289.2,0,0
175826.9,333.372,-287.136,0,0
176087.225,336.961,-284.778,0,0
176347.55,340.334,-282.121,0,0
176607.875,343.677,-278.756,0,0
176868.2,347.619,-274.836,0,0
177128.525,352.38,-270.871,0,0
177388.85,357.926,-267.136,0,0
177649.175,363.815,-264.196,0,0
177909.5,369.537,-261.707,0,0
178169.825,374.89,-259.141,0,0
178430.15,380.546,-256.478,0,0
178690.475,386.338,-253.963,0,0
178950.8,392.427,-251.553,0,0
179211.125,398.726,-249.263,0,0
179471.45,405.152,-247.14,0,0
179731.775,411.879,-245.069,0,0
179992.1,419.095,-243.588,0,0
180252.425,426.251,-242.864,0,0
180512.75,432.852,-242.379,0,0
180773.075,439.396,-241.95,0,0
181033.4,445.684,-241.326,0,0
181293.725,452.439,-240.865,0,0
181554.05,458.988,-240.842,0,0
181814.375,465.435,-240.706,0,0
182074.7,472.082,-240.456,0,0
182335.025,479.078,-240.796,0,0
182595.35,485.519,-241.863,0,0
182855.675,491.389,-242.69,0,0
183116.0,497.526,-243.27,0,0
183376.325,503.85,-244.147,0,0
183636.65,509.511,-245.51,0,0
183896.975,514.825,-246.334,0,0
184157.3,520.019,-246.854,0,0
184417.625,525.588,-246.828,0,0
184677.95,531.575,-246.666,0,0
184938.275,538.196,-247.009,0,0
185198.6,544.345,-247.866,0,0
185458.925,550.183,-248.697,0,0
185719.25,555.569,-248.958,0,0
185979.575,561.484,-248.307,0,0
186239.9,568.256,-247.542,0,0
186500,575.564,-246.514,0,0
186761,583.956,-245.828,0,0
187021,593.068,-246.094,0,0
187281,602.05,-247.335,0,0
187542,610.607,-248.833,0,0
187802,619.088,-250.138,0,0
188062,628.088,-251.34,0,0
188322,637.714,-253.333,0,0
188583,648.086,-255.148,0,0
188843,659.24,-258.187,0,0
189103,670.163,-262.75,0,0
189364,680.577,-268.074,0,0
189624,690.519,-274.387,0,0
189884,699.2,-281.217,0,0
190145,706.898,-287.786,0,0
190405,714.349,-293.87,0,0
190665,721.497,-299.97,0,0
190926,728.35,-305.592,0,0
191186,735.237,-310.4,0,0
191446,743.125,-314.516,0,0
191707,752.235,-318.734,0,0
191967,762.533,-323.559,0,0
192227,773.666,-329.876,0,0
192488,785.034,-337.931,0,0
192748,795.654,-347.503,0,0
193008,804.917,-357.999,0,0
193269,812.848,-368.164,0,0
193529,820.677,-377.504,0,0
193789,829.224,-386.319,0,0
194050,839.065,-395.43,0,0
194310,849.715,-405.81,0,0
194570,861.136,-417.495,0,0
194831,873.281,-431.525,0,0
195091,884.695,-448.637,0,0
195351,893.583,-468.264,0,0
195612,899.332,-488.375,0,0
195872,903.294,-507.747,0,0
196132,906.447,-527.047,0,0
196393,909.234,-546.218,0,0
196653,911.178,-566.299,0,0
196913,911.925,-587.276,0,0
197174,910.791,-608.774,0,0
197434,907.581,-630.651,0,0
197694,901.942,-652.171,0,0
197955,894.2,-672.719,0,0
198215,884.899,-692.01,0,0
198475,874.145,-709.745,0,0
198735,862.667,-725.513,0,0
198996,850.904,-739.916,0,0
199256,839.368,-753.246,0,0
199516,827.705,-766.3,0,0
199777,815.489,-778.471,0,0
200037,802.832,-790.402,0,0
200297,789.374,-801.566,0,0
200558,774.957,-811.365,0,0
200818,759.818,-819.803,0,0
201078,744.823,-826.321,0,0
201339,730.342,-831.324,0,0
201599,716.815,-835.105,0,0
201859,704.468,-838.731,0,0
202120,692.216,-842.54,0,0
202380.025,679.95,-845.815,0,0
202640.35,667.873,-849.075,0,0
202900.675,655.197,-851.942,0,0
203161.0,642.164,-853.871,0,0
203421.325,629.192,-854.371,0,0
203681.65,617.102,-854.018,0,0
203941.975,605.295,-853.528,0,0
204202.3,593.495,-852.246,0,0
204462.625,582.115,-849.806,0,0
204722.95,571.323,-846.889,0,0
204983.275,561.382,-843.007,0,0
205243.6,552.583,-838.565,0,0
205503.925,544.904,-834.28,0,0
205764.25,537.785,-830.309,0,0
206024.575,530.975,-826.294,0,0
206284.9,524.434,-822.276,0,0
206545.225,518.147,-817.986,0,0
206805.55,512.188,-813.383,0,0
207065.875,506.97,-808.357,0,0
207326.2,502.504,-803.214,0,0
207586.525,498.881,-798.081,0,0
207846.85,495.982,-793.102,0,0
208107.175,493.738,-788.474,0,0
208367.5,492.2,-784.335,0,0
208627.825,491.036,-780.848,0,0
208888.15,489.822,-778.029,0,0
209148.475,488.509,-775.377,0,0
209408.8,487.01,-772.782,0,0
209669.125,485.776,-770.071,0,0
209929.45,484.796,-767.23,0,0
210189.775,484.509,-764.595,0,0
210450.1,484.692,-762.425,0,0
210710.425,484.951,-760.675,0,0
210970.75,485.448,-759.257,0,0
211231.075,486.059,-758.353,0,0
211491.4,486.657,-757.961,0,0
211751.725,487.043,-757.871,0,0
212012.05,487.255,-757.969,0,0
212272.375,487.563,-758.212,0,0
212532.7,487.773,-758.675,0,0
212793.025,488.143,-759.274,0,0
213053.35,488.595,-760.245,0,0
213313.675,489.041,-761.759,0,0
213574.0,489.214,-763.858,0,0
213834.325,488.935,-766.413,0,0
214094.65,488.064,-769.189,0,0
214354.975,486.574,-772.007,0,0
214615.3,484.663,-774.831,0,0
214875.625,482.319,-777.432,0,0
215135.95,479.414,-779.993,0,0
215396.275,476.041,-782.113,0,0
215656.6,472.378,-783.738,0,0
215916.925,468.438,-784.9,0,0
216177.25,464.464,-785.42,0,0
216437.575,460.637,-785.271,0,0
216697.9,457.172,-784.708,0,0
216958.225,454.001,-783.793,0,0
217218.55,451.164,-782.428,0,0
217478.875,448.956,-780.716,0,0
217739.2,447.457,-779.111,0,0
217999.525,446.451,-777.594,0,0
218259.85,445.885,-776.282,0,0
218520,445.767,-775.264,0,0
218780,446.107,-774.617,0,0
219041,446.728,-774.553,0,0
219301,447.475,-775.067,0,0
219561,448.075,-776.088,0,0
219822,448.476,-777.637,0,0
220082,448.611,-779.397,0,0
220342,448.599,-781.3,0,0
220603,448.414,-783.509,0,0
220863,447.967,-785.642,0,0
221123,447.498,-788.023,0,0
221384,446.945,-790.539,0,0
221644,446.285,-793.504,0,0
221904,445.225,-796.628,0,0
222165,443.875,-799.809,0,0
222425,442.45,-803.191,0,0
222685,440.641,-806.828,0,0
222946,438.339,-810.728,0,0
223206,435.404,-814.454,0,0
223466,432.064,-818.137,0,0
223727,428.129,-821.486,0,0
223987,423.837,-824.308,0,0
224247,419.596,-826.557,0,0
224508,415.376,-828.426,0,0
224768,411.315,-830.171,0,0
225028,407.454,-832.023,0,0
225289,403.492,-833.625,0,0
225549,399.468,-835.27,0,0
225809,395.377,-836.59,0,0
226070,391.679,-838.14,0,0
226330,387.682,-840.155,0,0
226590,383.362,-841.944,0,0
226851,378.454,-843.875,0,0
227111,373.009,-845.064,0,0
227371,367.753,-845.825,0,0
227632,362.633,-846.186,0,0
227892,357.498,-846.479,0,0
228152,352.448,-846.444,0,0
228413,347.487,-846.005,0,0
228673,342.906,-845.529,0,0
228933,338.385,-845.073,0,0
229193,333.662,-844.37,0,0
229454,329.353,-843.425,0,0
229714,325.392,-842.49,0,0
229974,321.428,-841.773,0,0
230235,317.54,-840.987,0,0
230495,313.505,-840.456,0,0
230755,309.447,-839.834,0,0
231016,305.181,-839.149,0,0
231276,300.861,-838.264,0,0
231536,296.578,-837.173,0,0
231797,292.397,-835.986,0,0
232057,288.207,-834.761,0,0
232317,284.039,-833.442,0,0
232578,279.908,-831.967,0,0
232838,275.761,-830.475,0,0
233098,271.549,-828.854,0,0
233359,267.378,-827.046,0,0
233619,263.209,-825,0,0
233879,259.146,-822.847,0,0
234140,255.223,-820.479,0,0
234400,251.266,-817.984,0,0
234660.3,247.565,-815.289,0,0
234920.625,243.952,-812.388,0,0
235180.95,240.531,-809.544,0,0
235441.275,237.331,-806.435,0,0
235701.6,234.296,-803.371,0,0
235961.925,231.57,-800.203,0,0
236222.25,228.944,-797.004,0,0
236482.575,226.532,-793.842,0,0
236742.9,224.26,-790.651,0,0
237003.225,222.233,-787.448,0,0
237263.55,220.416,-784.333,0,0
237523.875,218.778,-781.309,0,0
237784.2,217.273,-778.408,0,0
238044.525,215.957,-775.596,0,0
238304.85,214.672,-772.938,0,0
238565.175,213.55,-770.448,0,0
238825.5,212.319,-768.036,0,0
239085.825,211.066,-765.713,0,0
239346.15,209.976,-763.378,0,0
239606.475,208.992,-761.175,0,0
239866.8,208.009,-759.115,0,0
240127.125,207.079,-757.232,0,0
240387.45,206.159,-755.472,0,0
240647.775,205.113,-753.927,0,0
240908.1,203.958,-752.39,0,0
241168.425,202.793,-750.999,0,0
241428.75,201.439,-749.778,0,0
241689.075,199.831,-748.579,0,0
241949.4,197.987,-747.202,0,0
242209.725,195.971,-745.656,0,0
242470.05,193.951,-744.001,0,0
242730.375,191.848,-742.089,0,0
242990.7,189.812,-739.985,0,0
243251.025,187.86,-737.773,0,0
243511.35,186.097,-735.484,0,0
243771.675,184.309,-733.092,0,0
244032.0,182.682,-730.599,0,0
244292.325,181.194,-728.039,0,0
244552.65,179.8,-725.482,0,0
244812.975,178.526,-723.031,0,0
245073.3,177.427,-720.706,0,0
245333.625,176.09,-718.443,0,0
245593.95,174.768,-715.999,0,0
245854.275,173.313,-713.547,0,0
246114.6,171.99,-710.891,0,0
246374.925,170.751,-708.119,0,0
246635.25,169.629,-705.22,0,0
246895.575,168.738,-702.312,0,0
247155.9,168.025,-699.332,0,0
247416.225,167.497,-696.374,0,0
247676.55,167.167,-693.605,0,0
247936.875,166.911,-690.871,0,0
248197.2,166.725,-688.28,0,0
248457.525,166.571,-685.801,0,0
248717.85,166.379,-683.425,0,0
248978.175,166.07,-681.123,0,0
249238.5,165.791,-678.684,0,0
249498.825,165.593,-676.148,0,0
249759.15,165.422,-673.615,0,0
250019.475,165.385,-671.017,0,0
250279.8,165.546,-668.409,0,0
250540,165.802,-665.857,0,0
250800,166.124,-663.441,0,0
251061,166.544,-661.073,0,0
251321,166.946,-658.748,0,0
251581,167.394,-656.419,0,0
251842,168.008,-654.067,0,0
252102,168.76,-651.747,0,0
252362,169.657,-649.524,0,0
252623,170.819,-647.427,0,0
252883,172.034,-645.591,0,0
253143,173.365,-644.063,0,0
253404,174.594,-642.817,0,0
253664,175.646,-641.833,0,0
253924,176.44,-640.983,0,0
254185,177.005,-640.133,0,0
254445,177.36,-639.178,0,0
254705,177.5,-638.127,0,0
254966,177.684,-636.857,0,0
255226,177.809,-635.365,0,0
255486,178.118,-633.835,0,0
255747,178.573,-632.162,0,0
256007,179.181,-630.529,0,0
256267,179.882,-628.889,0,0
256528,180.715,-627.265,0,0
256788,181.76,-625.766,0,0
257048,182.853,-624.463,0,0
257309,183.952,-623.276,0,0
257569,185.015,-622.213,0,0
257829,185.98,-621.166,0,0
258090,187.01,-620.047,0,0
258350,188.1,-618.981,0,0
258610,189.278,-617.928,0,0
258871,190.554,-617.006,0,0
259131,191.884,-616.239,0,0
259391,193.243,-615.533,0,0
259651,194.589,-614.984,0,0
259912,195.934,-614.612,0,0
260172,197.223,-614.349,0,0
260432,198.4,-614.265,0,0
260693,199.391,-614.201,0,0
260953,200.33,-614.044,0,0
261213,201.305,-613.857,0,0
261474,202.339,-613.762,0,0
261734,203.365,-613.759,0,0
261994,204.335,-613.862,0,0
262255,205.301,-614.03,0,0
262515,206.154,-614.307,0,0
262775,206.819,-614.659,0,0
263036,207.31,-615.022,0,0
263296,207.593,-615.245,0,0
263556,207.91,-615.275,0,0
263817,208.295,-615.193,0,0
264077,208.754,-615.083,0,0
264337,209.244,-615.053,0,0
264598,209.66,-614.982,0,0
264858,210.04,-614.854,0,0
265118,210.381,-614.618,0,0
265379,210.826,-614.142,0,0
265639,211.462,-613.634,0,0
265899,212.286,-613.028,0,0
266160,213.299,-612.488,0,0
266420,214.623,-611.91,0,0
266680.25,216.139,-611.435,0,0
266940.575,217.907,-611.191,0,0
267200.9,219.876,-611.213,0,0
267461.225,221.913,-611.363,0,0
267721.55,224.145,-611.814,0,0
267981.875,226.416,-612.587,0,0
268242.2,228.751,-613.722,0,0
268502.525,231.132,-615.122,0,0
268762.85,233.373,-616.972,0,0
269023.175,235.548,-619.002,0,0
269283.5,237.746,-621.406,0,0
269543.825,239.651,-624.326,0,0
269804.15,241.344,-627.559,0,0
270064.475,242.664,-631.083,0,0
270324.8,243.559,-634.891,0,0
270585.125,243.934,-638.818,0,0
270845.45,244.031,-642.685,0,0
271105.775,243.924,-646.599,0,0
271366.1,243.476,-650.723,0,0
271626.425,242.671,-654.981,0,0
271886.75,241.322,-659.245,0,0
272147.075,239.677,-663.368,0,0
272407.4,237.625,-667.442,0,0
272667.725,235.227,-671.491,0,0
272928.05,232.303,-675.517,0,0
273188.375,228.992,-679.336,0,0
273448.7,225.024,-682.859,0,0
273709.025,220.77,-685.924,0,0
273969.35,216.143,-688.482,0,0
274229.675,211.291,-690.538,0,0
274490.0,206.369,-692.013,0,0
274750.325,201.469,-693.035,0,0
275010.65,196.622,-693.632,0,0
275270.975,191.858,-693.911,0,0
275531.3,187.157,-693.81,0,0
275791.625,182.542,-693.359,0,0
276051.95,178.078,-692.502,0,0
276312.275,173.821,-691.31,0,0
276572.6,169.825,-689.838,0,0
276832.925,166.192,-688.141,0,0
277093.25,162.939,-686.366,0,0
277353.575,159.93,-684.544,0,0
277613.9,157.11,-682.731,0,0
277874.225,154.503,-680.939,0,0
278134.55,152.03,-679.18,0,0
278394.875,149.622,-677.47,0,0
278655.2,147.247,-675.734,0,0
278915.525,144.922,-673.927,0,0
279175.85,142.733,-672.06,0,0
279436.175,140.57,-670.101,0,0
279696.5,138.6,-668.072,0,0
279956.825,136.761,-666.006,0,0
280217.15,134.965,-663.813,0,0
280477.475,133.358,-661.615,0,0
280737.8,131.98,-659.359,0,0
280998.125,130.881,-657.127,0,0
281258.45,130.002,-654.979,0,0
281518.775,129.278,-653.083,0,0
281779.1,128.612,-651.341,0,0
282039.425,127.843,-649.759,0,0
282299.75,127.031,-648.174,0,0
282560,126.253,-646.568,0,0
282820,125.54,-644.942,0,0
283081,124.871,-643.315,0,0
283341,124.304,-641.709,0,0
283601,123.777,-640.181,0,0
283862,123.292,-638.687,0,0
284122,122.842,-637.195,0,0
284382,122.44,-635.677,0,0
284643,122.185,-634.138,0,0
284903,122.106,-632.664,0,0
285163,122.074,-631.364,0,0
285424,122.129,-630.106,0,0
285684,122.23,-628.958,0,0
285944,122.423,-627.903,0,0
286205,122.743,-626.94,0,0
286465,123.148,-626.176,0,0
286725,123.59,-625.66,0,0
286986,123.933,-625.377,0,0
287246,124.331,-625.299,0,0
287506,124.621,-625.515,0,0
287767,124.695,-625.966,0,0
288027,124.455,-626.569,0,0
288287,123.931,-627.236,0,0
288548,123.13,-627.857,0,0
288808,122.088,-628.388,0,0
289068,120.894,-628.807,0,0
289329,119.515,-629.092,0,0
289589,118.074,-629.279,0,0
289849,116.505,-629.322,0,0
290109,114.917,-629.188,0,0
290370,113.271,-628.947,0,0
290630,111.62,-628.588,0,0
290890,109.988,-628.092,0,0
291151,108.366,-627.492,0,0
291411,106.846,-626.837,0,0
291671,105.359,-626.144,0,0
291932,103.898,-625.465,0,0
292192,102.441,-624.782,0,0
292452,100.941,-624.09,0,0
292713,99.3848,-623.342,0,0
292973,97.7462,-622.51,0,0
293233,96.1204,-621.618,0,0
293494,94.4839,-620.618,0,0
293754,92.8381,-619.511,0,0
294014,91.1826,-618.337,0,0
294275,89.5988,-616.992,0,0
294535,88.0623,-615.579,0,0
294795,86.6257,-614.064,0,0
295056,85.2892,-612.472,0,0
295316,84.0738,-610.898,0,0
295576,82.9579,-609.272,0,0
295837,81.9164,-607.68,0,0
296097,80.9278,-606.117,0,0
296357,79.9862,-604.557,0,0
296618,79.0532,-603.003,0,0
296878,78.1728,-601.417,0,0
297138,77.3273,-599.848,0,0
297399,76.492,-598.261,0,0
297659,75.7173,-596.66,0,0
297919,74.9951,-595.04,0,0
298180,74.3218,-593.415,0,0
298440,73.6922,-591.782,0,0
298700.2,73.1111,-590.169,0,0
298960.525,72.5885,-588.569,0,0
299220.85,72.0868,-586.947,0,0
299481.175,71.6417,-585.335,0,0
299741.5,71.2386,-583.736,0,0
300001.825,70.9172,-582.129,0,0
300262.15,70.6137,-580.576,0,0
300522.475,70.3742,-579.024,0,0
300782.8,70.1554,-577.524,0,0
301043.125,69.9677,-576.043,0,0
301303.45,69.7849,-574.574,0,0
301563.775,69.6301,-573.11,0,0
301824.1,69.5283,-571.638,0,0
302084.425,69.4699,-570.195,0,0
302344.75,69.4609,-568.749,0,0
302605.075,69.5223,-567.32,0,0
302865.4,69.6415,-565.942,0,0
303125.725,69.8252,-564.63,0,0
303386.05,70.0339,-563.374,0,0
303646.375,70.2826,-562.202,0,0
303906.7,70.5569,-561.118,0,0
304167.025,70.8161,-560.095,0,0
304427.35,71.0514,-559.145,0,0
304687.675,71.2678,-558.241,0,0
304948.0,71.4568,-557.401,0,0
305208.325,71.6281,-556.596,0,0
305468.65,71.7406,-555.796,0,0
305728.975,71.8209,-554.997,0,0
305989.3,71.8927,-554.203,0,0
306249.625,71.9537,-553.397,0,0
306509.95,72.0574,-552.585,0,0
306770.275,72.1919,-551.809,0,0
307030.6,72.3647,-551.074,0,0
307290.925,72.5534,-550.412,0,0
307551.25,72.7062,-549.827,0,0
307811.575,72.8229,-549.281,0,0
308071.9,72.865,-548.791,0,0
308332.225,72.9053,-548.303,0,0
308592.55,72.9108,-547.812,0,0
308852.875,72.9022,-547.354,0,0
309113.2,72.8632,-546.922,0,0
309373.525,72.7774,-546.544,0,0
309633.85,72.6265,-546.176,0,0
309894.175,72.4244,-545.813,0,0
310154.5,72.156,-545.418,0,0
310414.825,71.8429,-545.001,0,0
310675.15,71.5027,-544.561,0,0
310935.475,71.1507,-544.047,0,0
311195.8,70.7858,-543.535,0,0
311456.125,70.4255,-543.012,0,0
311716.45,70.0603,-542.45,0,0
311976.775,69.6974,-541.867,0,0
312237.1,69.3619,-541.293,0,0
312497.425,69.023,-540.717,0,0
312757.75,68.669,-540.142,0,0
313018.075,68.3124,-539.576,0,0
313278.4,67.9464,-538.994,0,0
313538.725,67.5672,-538.406,0,0
313799.05,67.1708,-537.839,0,0
314059.375,66.7652,-537.26,0,0
314319.7,66.3011,-536.685,0,0
314580,65.7572,-536.111,0,0
314840,65.2966,-535.424,0,0
315101,64.7528,-534.729,0,0
315361,64.1979,-533.994,0,0
315621,63.7524,-533.172,0,0
315882,63.3687,-532.363,0,0
316142,62.8844,-531.482,0,0
316402,62.4739,-530.568,0,0
316663,62.1115,-529.722,0,0
316923,61.7723,-528.834,0,0
317183,61.5318,-527.88,0,0
317444,61.3,-526.999,0,0
317704,61.1524,-526.082,0,0
317964,60.9656,-525.137,0,0
318225,60.8162,-524.305,0,0
318485,60.729,-523.456,0,0
318745,60.6808,-522.681,0,0
319006,60.494,-521.88,0,0
319266,60.5202,-521.201,0,0
319526,60.4004,-520.482,0,0
319787,60.4079,-519.771,0,0
320047,60.4355,-519.155,0,0
320307,60.2846,-518.52,0,0
320567,60.292,-517.971,0,0
320828,60.2537,-517.404,0,0
321088,60.1105,-516.876,0,0
321348,59.9862,-516.408,0,0
321609,59.8774,-515.958,0,0
321869,59.7158,-515.538,0,0
322129,59.4492,-515.095,0,0
322390,59.1689,-514.661,0,0
322650,58.9042,-514.16,0,0
322910,58.5364,-513.681,0,0
323171,58.2448,-513.208,0,0
323431,57.8658,-512.657,0,0
323691,57.5009,-512.147,0,0
323952,57.1858,-511.648,0,0
324212,56.8256,-511.097,0,0
324472,56.442,-510.604,0,0
324733,56.0565,-510.014,0,0
324993,55.6799,-509.46,0,0
325253,55.2065,-508.893,0,0
325514,54.7738,-508.339,0,0
325774,54.2601,-507.735,0,0
326034,53.7745,-507.048,0,0
326295,53.339,-506.4,0,0
326555,52.924,-505.644,0,0
326815,52.4321,-504.921,0,0
327076,52.047,-504.205,0,0
327336,51.6224,-503.425,0,0
327596,51.2019,-502.682,0,0
327857,50.869,-501.882,0,0
328117,50.4832,-501.124,0,0
328377,50.0653,-500.389,0,0
328638,49.7619,-499.609,0,0
328898,49.3426,-498.778,0,0
329158,48.9691,-497.965,0,0
329419,48.6357,-497.131,0,0
329679,48.3156,-496.332,0,0
329939,48.0013,-495.432,0,0
330200,47.7181,-494.6,0,0
330460,47.3951,-493.805,0,0
330720.15,47.146,-492.937,0,0
330980.475,46.869,-492.042,0,0
331240.8,46.6304,-491.246,0,0
331501.125,46.4009,-490.398,0,0
331761.45,46.1584,-489.505,0,0
332021.775,45.9608,-488.689,0,0
332282.1,45.7505,-487.798,0,0
332542.425,45.5472,-486.997,0,0
332802.75,45.3061,-486.158,0,0
333063.075,45.1139,-485.31,0,0
333323.4,44.9663,-484.399,0,0
333583.725,44.8419,-483.526,0,0
333844.05,44.6776,-482.671,0,0
334104.375,44.5614,-481.825,0,0
334364.7,44.4728,-480.944,0,0
334625.025,44.3936,-480.093,0,0
334885.35,44.3053,-479.22,0,0
335145.675,44.2746,-478.474,0,0
335406.0,44.3101,-477.616,0,0
335666.325,44.2276,-476.775,0,0
335926.65,44.1688,-476.011,0,0
336186.975,44.1866,-475.276,0,0
336447.3,44.2656,-474.525,0,0
336707.625,44.2404,-473.861,0,0
336967.95,44.2549,-473.108,0,0
337228.275,44.2488,-472.479,0,0
337488.6,44.2809,-471.774,0,0
337748.925,44.1996,-471.124,0,0
338009.25,44.1734,-470.483,0,0
338269.575,44.129,-469.809,0,0
338529.9,44.0828,-469.178,0,0
338790.225,44.0024,-468.555,0,0
339050.55,43.9832,-467.901,0,0
339310.875,43.9131,-467.314,0,0
339571.2,43.8429,-466.678,0,0
339831.525,43.8036,-466.073,0,0
340091.85,43.6894,-465.446,0,0
340352.175,43.619,-464.787,0,0
340612.5,43.5247,-464.229,0,0
340872.825,43.3642,-463.59,0,0
341133.15,43.2529,-462.987,0,0
341393.475,43.1432,-462.431,0,0
341653.8,42.9915,-461.779,0,0
341914.125,42.852,-461.178,0,0
342174.45,42.6878,-460.473,0,0
342434.775,42.5462,-459.824,0,0
342695.1,42.336,-459.17,0,0
342955.425,42.2106,-458.486,0,0
343215.75,42.0369,-457.781,0,0
343476.075,41.945,-457.097,0,0
343736.4,41.7771,-456.423,0,0
343996.725,41.6281,-455.706,0,0
344257.05,41.4642,-454.95,0,0
344517.375,41.3803,-454.239,0,0
344777.7,41.2595,-453.551,0,0
345038.025,41.1894,-452.697,0,0
345298.35,41.0984,-451.979,0,0
345558.675,41.0194,-451.271,0,0
345819.0,40.9777,-450.501,0,0
346079.325,40.9131,-449.764,0,0
346339.65,40.8217,-449.049,0,0
346599.975,40.8105,-448.316,0,0
346860,40.7831,-447.567,0,0
347121,40.7429,-446.839,0,0
347381,40.7379,-446.046,0,0
347641,40.7054,-445.297,0,0
347902,40.7477,-444.579,0,0
348162,40.7677,-443.852,0,0
348422,40.8142,-443.124,0,0
348683,40.8422,-442.393,0,0
348943,40.914,-441.728,0,0
349203,40.9601,-440.996,0,0
349464,41.0236,-440.314,0,0
349724,41.0745,-439.612,0,0
349984,41.1729,-438.939,0,0
350245,41.2276,-438.276,0,0
350505,41.3628,-437.595,0,0
350765,41.4748,-436.965,0,0
351025,41.5304,-436.308,0,0
351286,41.639,-435.659,0,0
351546,41.7551,-435.063,0,0
351806,41.8376,-434.479,0,0
352067,41.9674,-433.863,0,0
352327,42.0946,-433.3,0,0
352587,42.1375,-432.72,0,0
352848,42.2335,-432.174,0,0
353108,42.3069,-431.633,0,0
353368,42.3698,-431.084,0,0
353629,42.4467,-430.506,0,0
353889,42.4833,-429.928,0,0
354149,42.5625,-429.407,0,0
354410,42.6425,-428.841,0,0
354670,42.7278,-428.274,0,0
354930,42.7875,-427.719,0,0
355191,42.8817,-427.211,0,0
355451,42.9734,-426.71,0,0
355711,43.006,-426.154,0,0
355972,43.1267,-425.682,0,0
356232,43.2002,-425.181,0,0
356492,43.2808,-424.695,0,0
356753,43.2868,-424.2,0,0
357013,43.3363,-423.734,0,0
357273,43.399,-423.282,0,0
357534,43.3676,-422.843,0,0
357794,43.4164,-422.363,0,0
358054,43.381,-421.889,0,0
358315,43.3795,-421.421,0,0
358575,43.3095,-420.914,0,0
358835,43.2724,-420.45,0,0
359096,43.201,-419.908,0,0
359356,43.1518,-419.425,0,0
359616,43.1353,-418.846,0,0
359877,43.0661,-418.328,0,0
360137,43.0334,-417.775,0,0
360397,42.9952,-417.233,0,0
360658,42.9359,-416.694,0,0
360918,42.9058,-416.095,0,0
361178,42.9133,-415.495,0,0
361438,42.8933,-414.905,0,0
361699,42.8941,-414.327,0,0
361959,42.8843,-413.699,0,0
362219,42.8675,-413.122,0,0
362480,42.9328,-412.535,0,0
362740.1,42.8959,-411.917,0,0
363000.425,42.9048,-411.321,0,0
363260.75,42.9345,-410.756,0,0
363521.075,42.9893,-410.107,0,0
363781.4,43.0271,-409.466,0,0
364041.725,43.0933,-408.847,0,0
364302.05,43.195,-408.281,0,0
364562.375,43.3064,-407.647,0,0
364822.7,43.4006,-406.97,0,0
365083.025,43.5375,-406.421,0,0
365343.35,43.6513,-405.798,0,0
365603.675,43.7767,-405.226,0,0
365864.0,43.9465,-404.651,0,0
366124.325,44.051,-404.076,0,0
366384.65,44.2368,-403.511,0,0
366644.975,44.4161,-402.985,0,0
366905.3,44.6254,-402.47,0,0
367165.625,44.8262,-401.937,0,0
367425.95,44.9761,-401.472,0,0
367686.275,45.1301,-400.982,0,0
367946.6,45.2896,-400.549,0,0
368206.925,45.4262,-400.048,0,0
368467.25,45.6075,-399.595,0,0
368727.575,45.7321,-399.075,0,0
368987.9,45.8238,-398.617,0,0
369248.225,46.0046,-398.091,0,0
369508.55,46.1808,-397.616,0,0
369768.875,46.369,-397.069,0,0
370029.2,46.5285,-396.572,0,0
370289.525,46.7596,-396.095,0,0
370549.85,47.0408,-395.602,0,0
370810.175,47.2638,-395.216,0,0
371070.5,47.5398,-394.8,0,0
371330.825,47.8073,-394.427,0,0
371591.15,48.0654,-394.103,0,0
371851.475,48.3192,-393.806,0,0
372111.8,48.5011,-393.535,0,0
372372.125,48.7113,-393.285,0,0
372632.45,48.8849,-393.033,0,0
372892.775,49.0392,-392.764,0,0
373153.1,49.1579,-392.51,0,0
373413.425,49.2438,-392.267,0,0
373673.75,49.3342,-392.038,0,0
373934.075,49.3793,-391.838,0,0
374194.4,49.4128,-391.547,0,0
374454.725,49.4273,-391.266,0,0
374715.05,49.4428,-390.995,0,0
374975.375,49.4568,-390.637,0,0
375235.7,49.4634,-390.366,0,0
375496.025,49.4931,-390.04,0,0
375756.35,49.5264,-389.689,0,0
376016.675,49.5946,-389.362,0,0
376277.0,49.622,-389.016,0,0
376537.325,49.6814,-388.69,0,0
376797.65,49.7222,-388.412,0,0
377057.975,49.7836,-388.11,0,0
377318.3,49.8029,-387.817,0,0
377578.625,49.857,-387.525,0,0
377838.95,49.844,-387.258,0,0
378099.275,49.8365,-387.008,0,0
378359.6,49.8474,-386.746,0,0
378619.925,49.8006,-386.491,0,0
378880,49.6993,-386.226,0,0
379141,49.6048,-385.895,0,0
379401,49.4849,-385.52,0,0
379661,49.4127,-385.058,0,0
379922,49.368,-384.623,0,0
380182,49.3813,-384.122,0,0
380442,49.5145,-383.66,0,0
380703,49.6354,-383.222,0,0
380963,49.8189,-382.836,0,0
381223,50.0622,-382.543,0,0
381483,50.2924,-382.341,0,0
381744,50.5194,-382.228,0,0
382004,50.6466,-382.208,0,0
382264,50.664,-382.27,0,0
382525,50.5637,-382.314,0,0
382785,50.3908,-382.376,0,0
383045,50.1328,-382.315,0,0
383306,49.77,-382.227,0,0
383566,49.3673,-382.046,0,0
383826,49.012,-381.775,0,0
384087,48.6368,-381.462,0,0
384347,48.2423,-381.095,0,0
384607,47.9158,-380.727,0,0
384868,47.6032,-380.233,0,0
385128,47.2953,-379.809,0,0
385388,47.0073,-379.318,0,0
385649,46.7737,-378.845,0,0
385909,46.486,-378.303,0,0
386169,46.2543,-377.787,0,0
386430,46.0571,-377.265,0,0
386690,45.8353,-376.672,0,0
386950,45.6249,-376.098,0,0
387211,45.452,-375.521,0,0
387471,45.3152,-374.961,0,0
387731,45.1556,-374.348,0,0
387992,45.085,-373.766,0,0
388252,44.9779,-373.15,0,0
388512,44.8949,-372.544,0,0
388773,44.8206,-371.941,0,0
389033,44.7797,-371.336,0,0
389293,44.762,-370.736,0,0
389554,44.7567,-370.152,0,0
389814,44.7763,-369.542,0,0
390074,44.8114,-369.005,0,0
390335,44.8174,-368.424,0,0
390595,44.877,-367.907,0,0
390855,44.9116,-367.459,0,0
391116,44.9545,-366.945,0,0
391376,44.9782,-366.446,0,0
391636,44.984,-365.992,0,0
391896,44.9719,-365.53,0,0
392157,44.9572,-365.047,0,0
392417,44.945,-364.566,0,0
392677,44.9218,-364.08,0,0
392938,44.8852,-363.548,0,0
393198,44.8773,-363.072,0,0
393458,44.8472,-362.55,0,0
393719,44.8276,-362.001,0,0
393979,44.8111,-361.501,0,0
394239,44.8193,-360.965,0,0
394500,44.8569,-360.392,0,0
394760.05,44.8344,-359.859,0,0
395020.375,44.8541,-359.322,0,0
395280.7,44.874,-358.772,0,0
395541.025,44.9242,-358.223,0,0
395801.35,44.9779,-357.7,0,0
396061.675,45.031,-357.156,0,0
396322.0,45.1252,-356.626,0,0
396582.325,45.1804,-356.089,0,0
396842.65,45.2927,-355.542,0,0
397102.975,45.3979,-355.05,0,0
397363.3,45.4892,-354.591,0,0
397623.625,45.58,-354.079,0,0
397883.95,45.6812,-353.603,0,0
398144.275,45.7432,-353.162,0,0
398404.6,45.8427,-352.694,0,0
398664.925,45.897,-352.284,0,0
398925.25,45.9825,-351.809,0,0
399185.575,46.0403,-351.345,0,0
399445.9,46.1018,-350.921,0,0
399706.225,46.1399,-350.44,0,0
399966.55,46.1779,-350.012,0,0
400006.6,46.1723,-349.957,0,0