File: Accelerated corrosion test data/2025-09-30_06-00-03/sample_4.csv
Frequency (Hz),Impedance (ohms),Phase (Radians),Temperature (C),Humidity (%)
10000.0,266.003,-11843.3,0,0
10260.325,262.867,-11544.3,0,0
10520.65,253.145,-11262.1,0,0
10780.975,247.751,-10992.4,0,0
11041.3,242.369,-10734.9,0,0
11301.625,237.102,-10492.8,0,0
11561.95,231.638,-10257.4,0,0
11822.275,226.98,-10032.3,0,0
12082.6,222.139,-9818.31,0,0
12342.925,217.828,-9611.88,0,0
12603.25,214.445,-9413.75,0,0
12863.575,211.652,-9227.54,0,0
13123.9,212.112,-9048.3,0,0
13384.225,202.031,-8870.35,0,0
13644.55,198.719,-8700.15,0,0
13904.875,195.73,-8535.32,0,0
14165.2,197.189,-8373.24,0,0
14425.525,203.257,-8221.7,0,0
14685.8,207.426,-8113.31,0,0
14946.175,184.664,-7956.92,0,0
15206.5,183.109,-7812.55,0,0
15466.825,188.592,-7669.42,0,0
15727.15,192.513,-7568.58,0,0
15987.5,190.657,-7454,0,0
16247.8,173.332,-7327.16,0,0
16508.125,184.637,-7197.38,0,0
16768.45,180.62,-7100.38,0,0
17028.775,174.792,-7011.79,0,0
17289.1,162.714,-6898.9,0,0
17549.425,161.112,-6794.18,0,0
17809.75,157.766,-6692.56,0,0
18070.075,155.207,-6595.19,0,0
18330.4,156.091,-6498.57,0,0
18590.725,156.149,-6411.74,0,0
18851.05,152.047,-6326.59,0,0
19111.375,147.049,-6238.25,0,0
19371.7,144.737,-6152.81,0,0
19632.025,143.519,-6069.01,0,0
19892.35,145.339,-5987.48,0,0
20152.675,145.895,-5911.32,0,0
20413.0,142.993,-5839.52,0,0
20673.3,141.499,-5763.43,0,0
20933.65,139.299,-5691.14,0,0
21193.975,141.443,-5616.92,0,0
21454.3,152.898,-5549.59,0,0
21714.625,145.886,-5493.34,0,0
21974.9,151.841,-5423.95,0,0
22235.275,150.165,-5375.34,0,0
22495.6,138.506,-5321.85,0,0
22755.925,130.253,-5257.73,0,0
23016.25,126.93,-5195.11,0,0
23276.6,124.483,-5134.98,0,0
23536.9,123.303,-5077.91,0,0
23797.225,120.659,-5021.36,0,0
24057.55,119.065,-4965.65,0,0
24317.875,118.279,-4911.05,0,0
24578.2,116.612,-4858.15,0,0
24838.525,116.444,-4805.94,0,0
25098.85,116.394,-4756.05,0,0
25359.175,114.577,-4708.52,0,0
25619.5,114.237,-4658.07,0,0
25879.8,112.742,-4614.52,0,0
26140.1,110.026,-4566.07,0,0
26400.5,108.674,-4519.44,0,0
26660.8,108.718,-4473.55,0,0
26921.1,108.323,-4430.1,0,0
27181.4,107.085,-4385.05,0,0
27441.8,107.619,-4340.89,0,0
27702.1,109.771,-4297.52,0,0
27962.4,118.441,-4256.42,0,0
28222.7,120.876,-4222.82,0,0
28483.1,117.405,-4193.6,0,0
28743.4,111.572,-4153.51,0,0
29003.7,112.46,-4112.28,0,0
29264,116.845,-4078.24,0,0
29524.4,114.525,-4047.41,0,0
29784.7,109.275,-4016.13,0,0
30045,109.482,-3979.86,0,0
30305.3,103.389,-3946.89,0,0
30565.7,102.192,-3911.29,0,0
30826,100.549,-3876.92,0,0
31086.3,100.197,-3843.22,0,0
31346.6,101.086,-3810.39,0,0
31607,99.7683,-3780.26,0,0
31867.3,98.1855,-3748.95,0,0
32127.6,100.408,-3717.11,0,0
32387.9,99.6616,-3690.64,0,0
32648.3,98.5963,-3660.53,0,0
32908.6,96.4896,-3634.28,0,0
33168.9,93.9872,-3605.19,0,0
33429.2,91.4118,-3576.53,0,0
33689.6,90.595,-3547.96,0,0
33949.9,88.9662,-3519.24,0,0
34210.2,89.296,-3491.94,0,0
34470.5,87.6767,-3465.94,0,0
34730.9,86.5711,-3438.84,0,0
34991.2,86.0322,-3412.1,0,0
35251.5,85.5255,-3386.73,0,0
35511.8,84.8407,-3361.14,0,0
35772.2,84.0437,-3336.3,0,0
36032.5,83.0413,-3311.42,0,0
36292.8,82.2791,-3286.73,0,0
36553.1,82.1918,-3262.21,0,0
36813.5,82.0603,-3238.35,0,0
37073.8,82.0886,-3216.02,0,0
37334.1,80.9912,-3192.87,0,0
37594.4,80.484,-3170.15,0,0
37854.8,80.4755,-3147.62,0,0
38115.1,79.6309,-3125.82,0,0
38375.4,78.7551,-3103.59,0,0
38635.7,78.4342,-3081.42,0,0
38896.1,78.8977,-3060.01,0,0
39156.4,78.5509,-3039.28,0,0
39416.7,77.9512,-3018.49,0,0
39677,77.7062,-2997.19,0,0
39937.4,78.0497,-2976.13,0,0
40197.7,79.8027,-2955.28,0,0
40458,82.2577,-2937.39,0,0
40718.3,79.9091,-2920.06,0,0
40978.7,80.1475,-2899.78,0,0
41239,81.0201,-2880.77,0,0
41499.3,84.0637,-2864.18,0,0
41759.6,80.8965,-2849.49,0,0
42020,79.0003,-2830.54,0,0
42280.275,78.398,-2811.45,0,0
42540.6,79.8901,-2794.84,0,0
42800.925,78.2428,-2779.3,0,0
43061.25,77.1384,-2761.14,0,0
43321.575,77.2744,-2744.66,0,0
43581.9,75.8811,-2728.46,0,0
43842.225,75.0515,-2710.88,0,0
44102.55,75.0016,-2694.98,0,0
44362.875,73.6356,-2678.29,0,0
44623.2,73.4193,-2661.51,0,0
44883.525,73.0067,-2645.83,0,0
45143.85,72.3213,-2629.87,0,0
45404.175,71.7354,-2613.26,0,0
45664.5,72.9626,-2596.89,0,0
45924.825,73.4589,-2582.7,0,0
46185.15,72.7554,-2569.08,0,0
46445.475,71.6078,-2552.96,0,0
46705.8,72.6169,-2537.72,0,0
46966.125,72.786,-2524.04,0,0
47226.45,73.325,-2510.01,0,0
47486.775,72.5924,-2497.68,0,0
47747.1,70.9826,-2483.42,0,0
48007.425,70.2788,-2469.46,0,0
48267.75,69.4908,-2455.06,0,0
48528.075,69.2137,-2441.76,0,0
48788.4,68.3971,-2428.17,0,0
49048.725,67.1893,-2414.38,0,0
49309.05,67.3399,-2400.04,0,0
49569.375,66.7007,-2387.4,0,0
49829.7,66.08,-2373.69,0,0
50090.025,65.9108,-2360.29,0,0
50350.35,65.6318,-2346.95,0,0
50610.675,65.593,-2334.16,0,0
50871.0,65.1772,-2321.36,0,0
51131.325,64.8553,-2308.25,0,0
51391.65,64.9072,-2295.21,0,0
51651.975,65.1819,-2282.52,0,0
51912.3,65.0288,-2270.07,0,0
52172.625,65.2535,-2257.41,0,0
52432.95,65.3007,-2244.98,0,0
52693.275,65.7165,-2232.09,0,0
52953.6,67.1254,-2219.62,0,0
53213.925,67.8619,-2208.44,0,0
53474.25,68.4788,-2196.47,0,0
53734.575,69.8973,-2184.28,0,0
53994.9,72.593,-2173.06,0,0
54255.225,74.7614,-2163.48,0,0
54515.55,77.2799,-2154.64,0,0
54775.875,77.3923,-2148.04,0,0
55036.2,74.9511,-2139.29,0,0
55296.525,74.3305,-2129.55,0,0
55556.85,72.7513,-2120.1,0,0
55817.175,71.6221,-2110.19,0,0
56077.5,69.6577,-2100.32,0,0
56337.825,68.243,-2089.47,0,0
56598.15,67.1804,-2078.18,0,0
56858.475,66.6059,-2067.1,0,0
57118.8,66.6,-2056.1,0,0
57379.125,66.9455,-2045.5,0,0
57639.45,67.2053,-2035.19,0,0
57899.775,67.2213,-2024.92,0,0
58160.1,67.5048,-2014.55,0,0
58420.4,68.2661,-2004.45,0,0
58680.7,68.8856,-1995.3,0,0
58941.1,68.5478,-1984.96,0,0
59201.4,69.4795,-1974.06,0,0
59461.7,71.6767,-1963.96,0,0
59722,74.3709,-1954.96,0,0
59982.4,77.3016,-1947.41,0,0
60242.7,78.0668,-1941.04,0,0
60503,78.9956,-1933.2,0,0
60763.3,81.426,-1926.54,0,0
61023.7,81.7135,-1923,0,0
61284,79.1697,-1917.89,0,0
61544.3,75.6396,-1911.48,0,0
61804.6,72.375,-1902.02,0,0
62065,71.0265,-1893.46,0,0
62325.3,69.6011,-1885.13,0,0
62585.6,66.8771,-1876.6,0,0
62845.9,65.8003,-1866.38,0,0
63106.3,65.3252,-1856.83,0,0
63366.6,65.4468,-1847.63,0,0
63626.9,65.5988,-1839.21,0,0
63887.2,65.1635,-1831.01,0,0
64147.6,64.5054,-1822.18,0,0
64407.9,64.5142,-1813.09,0,0
64668.2,65.4287,-1804.51,0,0
64928.5,65.8315,-1796.74,0,0
65188.9,65.7365,-1788.62,0,0
65449.2,66.4221,-1780.41,0,0
65709.5,66.5138,-1772.75,0,0
65969.8,67.4105,-1764.3,0,0
66230.2,68.3875,-1757.1,0,0
66490.5,68.8549,-1749.86,0,0
66750.8,69.5375,-1742.64,0,0
67011.1,70.03,-1735.4,0,0
67271.5,71.0199,-1728.08,0,0
67531.8,72.0846,-1721.59,0,0
67792.1,73.1748,-1715.25,0,0
68052.4,74.3095,-1709.51,0,0
68312.8,74.6394,-1704.47,0,0
68573.1,74.4486,-1699.28,0,0
68833.4,73.7288,-1694.32,0,0
69093.7,72.3359,-1689.23,0,0
69354.1,70.5124,-1683.3,0,0
69614.4,68.5985,-1676.54,0,0
69874.7,67.1532,-1669.48,0,0
70135,66.1945,-1662.27,0,0
70395.4,65.2675,-1655.22,0,0
70655.7,64.8251,-1647.27,0,0
70916,65.9566,-1640.5,0,0
71176.3,66.1491,-1635.01,0,0
71436.7,65.3502,-1629.14,0,0
71697,64.9622,-1623.23,0,0
71957.3,63.7245,-1618.08,0,0
72217.6,61.4097,-1611.61,0,0
72478,59.8838,-1604.01,0,0
72738.3,59.3192,-1596.74,0,0
72998.6,58.3549,-1589.68,0,0
73258.9,57.8471,-1581.87,0,0
73519.3,58.1091,-1574.36,0,0
73779.6,58.4904,-1567.45,0,0
74039.9,58.8484,-1560.61,0,0
74300.225,59.2381,-1554.11,0,0
74560.55,59.6103,-1547.67,0,0
74820.875,60.0211,-1541.26,0,0
75081.2,60.5814,-1534.89,0,0
75341.525,61.2543,-1528.91,0,0
75601.85,61.7228,-1523.11,0,0
75862.175,62.0733,-1517.34,0,0
76122.5,62.6331,-1511.54,0,0
76382.825,62.9932,-1506.11,0,0
76643.15,62.9581,-1500.81,0,0
76903.475,62.6175,-1494.76,0,0
77163.8,63.2501,-1488.33,0,0
77424.125,64.6662,-1482.82,0,0
77684.45,65.6535,-1478.05,0,0
77944.775,66.334,-1473.73,0,0
78205.1,66.2977,-1469.47,0,0
78465.425,65.9261,-1465.05,0,0
78725.75,65.4909,-1460.5,0,0
78986.075,64.7038,-1455.76,0,0
79246.4,63.8547,-1450.83,0,0
79506.725,63.0361,-1445.52,0,0
79767.05,62.3926,-1440.05,0,0
80027.375,61.9332,-1434.6,0,0
80287.7,61.5787,-1429.11,0,0
80548.025,61.3895,-1423.66,0,0
80808.35,61.2833,-1418.4,0,0
81068.675,61.1985,-1413.2,0,0
81329.0,61.0771,-1408.08,0,0
81589.325,60.9633,-1403.04,0,0
81849.65,60.7142,-1398.15,0,0
82109.975,60.4885,-1393.09,0,0
82370.3,60.2023,-1388.12,0,0
82630.625,59.9266,-1383.05,0,0
82890.95,59.7502,-1378.06,0,0
83151.275,59.4699,-1373.21,0,0
83411.6,59.2363,-1368.16,0,0
83671.925,58.9389,-1363.19,0,0
83932.25,58.8224,-1358.2,0,0
84192.575,58.6047,-1353.3,0,0
84452.9,58.3605,-1348.46,0,0
84713.225,58.1585,-1343.55,0,0
84973.55,58.0382,-1338.67,0,0
85233.875,57.8647,-1333.84,0,0
85494.2,57.7848,-1329.09,0,0
85754.525,57.5189,-1324.25,0,0
86014.85,57.4114,-1319.52,0,0
86275.175,57.2094,-1314.8,0,0
86535.5,57.083,-1310.04,0,0
86795.825,57.1452,-1305.42,0,0
87056.15,57.0095,-1300.88,0,0
87316.475,56.7044,-1296.42,0,0
87576.8,56.4982,-1291.85,0,0
87837.125,56.1736,-1287.45,0,0
88097.45,55.7535,-1282.99,0,0
88357.775,55.1929,-1278.39,0,0
88618.1,54.684,-1273.43,0,0
88878.425,54.3672,-1268.5,0,0
89138.75,54.1186,-1263.62,0,0
89399.075,54.2328,-1258.7,0,0
89659.4,54.2012,-1253.97,0,0
89919.725,54.2044,-1249.28,0,0
90180,54.3304,-1244.83,0,0
90440.4,54.2062,-1240.13,0,0
90700.7,54.1823,-1235.74,0,0
90961,54.0509,-1231.17,0,0
91221.3,53.961,-1226.55,0,0
91481.7,54.0836,-1221.9,0,0
91742,54.1282,-1217.32,0,0
92002.3,54.3378,-1212.65,0,0
92262.6,54.6983,-1208.2,0,0
92523,55.0173,-1203.98,0,0
92783.3,55.363,-1199.76,0,0
93043.6,55.6882,-1195.93,0,0
93303.9,55.6848,-1191.9,0,0
93564.3,55.6536,-1187.99,0,0
93824.6,55.4905,-1184.09,0,0
94084.9,55.2027,-1180.14,0,0
94345.2,54.7727,-1175.96,0,0
94605.6,54.3286,-1171.63,0,0
94865.9,54.0078,-1167.28,0,0
95126.2,53.8576,-1162.83,0,0
95386.5,53.7177,-1158.36,0,0
95646.9,53.6655,-1153.85,0,0
95907.2,53.7108,-1149.31,0,0
96167.5,53.9072,-1144.93,0,0
96427.8,54.0957,-1140.62,0,0
96688.2,54.2269,-1136.36,0,0
96948.5,54.2866,-1132.04,0,0
97208.8,54.4817,-1127.76,0,0
97469.1,54.7251,-1123.49,0,0
97729.5,54.9474,-1119.32,0,0
97989.8,55.0711,-1115.07,0,0
98250.1,55.3389,-1110.75,0,0
98510.4,55.6549,-1106.51,0,0
98770.8,56.0021,-1102.21,0,0
99031.1,56.4087,-1097.99,0,0
99291.4,57.0249,-1093.72,0,0
99551.7,57.696,-1089.71,0,0
99812.1,58.1836,-1085.89,0,0
100072,58.6049,-1081.83,0,0
100333,59.2233,-1077.61,0,0
100593,60.3044,-1073.61,0,0
100853,61.4854,-1070.19,0,0
101114,62.2304,-1067.06,0,0
101374,62.8947,-1063.99,0,0
101634,63.4016,-1061.26,0,0
101895,63.3925,-1058.78,0,0
102155,62.5511,-1056.09,0,0
102415,61.4247,-1052.58,0,0
102676,60.7001,-1048.64,0,0
102936,59.9184,-1044.74,0,0
103196,59.0486,-1040.28,0,0
103457,58.4711,-1035.5,0,0
103717,58.3883,-1030.47,0,0
103977,58.6907,-1025.47,0,0
104238,59.3476,-1020.7,0,0
104498,59.9741,-1016.07,0,0
104758,60.8087,-1011.29,0,0
105019,61.9843,-1006.78,0,0
105279,63.2101,-1002.51,0,0
105539,64.4203,-998.406,0,0
105800,65.6988,-994.352,0,0
106060,66.9617,-990.511,0,0
106320.175,68.1347,-986.678,0,0
106580.5,69.4019,-982.871,0,0
106840.825,70.7515,-979.209,0,0
107101.15,72.0717,-975.692,0,0
107361.475,73.2866,-972.149,0,0
107621.8,74.4622,-968.565,0,0
107882.125,75.7396,-964.897,0,0
108142.45,77.2314,-961.329,0,0
108402.775,78.8116,-957.834,0,0
108663.1,80.5034,-954.513,0,0
108923.425,82.2802,-951.413,0,0
109183.75,84.0112,-948.474,0,0
109444.075,85.7048,-945.677,0,0
109704.4,87.3597,-943.166,0,0
109964.725,88.7497,-940.627,0,0
110225.05,90.1516,-938.127,0,0
110485.375,91.4912,-935.61,0,0
110745.7,92.8238,-933.212,0,0
111006.025,94.1782,-930.804,0,0
111266.35,95.4811,-928.553,0,0
111526.675,96.5644,-926.242,0,0
111787.0,97.6451,-924.065,0,0
112047.325,98.8925,-921.798,0,0
112307.65,100.12,-919.7,0,0
112567.975,101.23,-917.659,0,0
112828.3,102.381,-915.632,0,0
113088.625,103.373,-913.818,0,0
113348.95,104.421,-912.156,0,0
113609.275,105.299,-910.37,0,0
113869.6,106.04,-908.724,0,0
114129.925,106.695,-906.969,0,0
114390.25,107.341,-905.253,0,0
114650.575,107.983,-903.607,0,0
114910.9,108.531,-902.054,0,0
115171.225,109.007,-900.499,0,0
115431.55,109.361,-899.057,0,0
115691.875,109.49,-897.608,0,0
115952.2,109.549,-895.962,0,0
116212.525,109.502,-894.3,0,0
116472.85,109.601,-892.617,0,0
116733.175,109.472,-891.135,0,0
116993.5,109.117,-889.497,0,0
117253.825,108.612,-887.663,0,0
117514.15,108.098,-885.586,0,0
117774.475,107.627,-883.334,0,0
118034.8,107.273,-880.884,0,0
118295.125,107.036,-878.339,0,0
118555.45,106.911,-875.656,0,0
118815.775,107.026,-872.804,0,0
119076.1,107.578,-869.877,0,0
119336.425,108.696,-867.173,0,0
119596.75,110.148,-865.077,0,0
119857.075,111.51,-863.622,0,0
120117.4,112.614,-862.585,0,0
120377.725,113.554,-862.212,0,0
120638.05,113.728,-862.279,0,0
120898.375,112.834,-862.354,0,0
121158.7,111.285,-861.628,0,0
121419.025,109.626,-860.32,0,0
121679.35,108.031,-858.558,0,0
121939.675,106.684,-856.463,0,0
122200.0,105.464,-854.264,0,0
122460,104.277,-851.981,0,0
122721,103.22,-849.514,0,0
122981,102.298,-846.963,0,0
123241,101.5,-844.397,0,0
123502,100.805,-841.842,0,0
123762,100.185,-839.285,0,0
124022,99.6688,-836.779,0,0
124283,99.1521,-834.416,0,0
124543,98.5044,-832.028,0,0
124803,97.85,-829.59,0,0
125064,97.2559,-827.005,0,0
125324,96.7739,-824.455,0,0
125584,96.311,-822.026,0,0
125845,95.8598,-819.568,0,0
126105,95.5243,-817.178,0,0
126365,95.107,-814.965,0,0
126626,94.5901,-812.866,0,0
126886,93.7589,-810.775,0,0
127146,92.8456,-808.518,0,0
127406,91.8917,-806.269,0,0
127667,90.9602,-803.656,0,0
127927,90.0677,-801.209,0,0
128187,89.0873,-798.8,0,0
128448,87.9762,-796.284,0,0
128708,86.8252,-793.643,0,0
128968,85.6919,-790.886,0,0
129229,84.5296,-788.106,0,0
129489,83.165,-785.159,0,0
129749,81.8991,-781.989,0,0
130010,80.7172,-778.649,0,0
130270,79.7095,-775.169,0,0
130530,78.7788,-771.694,0,0
130791,77.8918,-768.148,0,0
131051,77.0746,-764.551,0,0
131311,76.3204,-760.846,0,0
131572,75.7422,-757.137,0,0
131832,75.3008,-753.394,0,0
132092,74.8712,-749.733,0,0
132353,74.4143,-746.051,0,0
132613,74.0578,-742.257,0,0
132873,73.8132,-738.484,0,0
133134,73.6436,-734.713,0,0
133394,73.5249,-730.956,0,0
133654,73.4401,-727.153,0,0
133915,73.4205,-723.362,0,0
134175,73.4371,-719.541,0,0
134435,73.6125,-715.74,0,0
134696,73.7697,-711.977,0,0
134956,73.9696,-708.176,0,0
135216,74.2921,-704.383,0,0
135477,74.7169,-700.588,0,0
135737,75.1702,-696.873,0,0
135997,75.756,-693.305,0,0
136258,76.1953,-689.727,0,0
136518,76.6391,-686.083,0,0
136778,77.216,-682.45,0,0
137039,77.8683,-678.894,0,0
137299,78.583,-675.452,0,0
137559,79.2487,-672.146,0,0
137819,79.7391,-668.882,0,0
138080,80.0779,-665.551,0,0
138340.125,80.381,-662.057,0,0
138600.45,80.7738,-658.426,0,0
138860.775,81.2485,-654.784,0,0
139121.1,81.7615,-651.135,0,0
139381.425,82.291,-647.395,0,0
139641.75,82.9158,-643.629,0,0
139902.075,83.6286,-639.847,0,0
140162.4,84.3768,-636.085,0,0
140422.725,85.1794,-632.264,0,0
140683.05,86.0881,-628.427,0,0
140943.375,87.0696,-624.573,0,0
141203.7,88.1964,-620.732,0,0
141464.025,89.4119,-616.999,0,0
141724.35,90.651,-613.368,0,0
141984.675,91.8367,-609.793,0,0
142245.0,92.979,-606.19,0,0
142505.325,94.1722,-602.567,0,0
142765.65,95.4452,-598.939,0,0
143025.975,96.7134,-595.358,0,0
143286.3,98.0022,-591.774,0,0
143546.625,99.3053,-588.184,0,0
143806.95,100.6,-584.59,0,0
144067.275,101.914,-580.903,0,0
144327.6,103.313,-577.205,0,0
144587.925,104.747,-573.478,0,0
144848.25,106.302,-569.71,0,0
145108.575,107.929,-565.99,0,0
145368.9,109.621,-562.293,0,0
145629.225,111.333,-558.598,0,0
145889.55,113.115,-554.886,0,0
146149.875,114.943,-551.195,0,0
146410.2,116.838,-547.48,0,0
146670.525,118.831,-543.73,0,0
146930.85,120.936,-540.066,0,0
147191.175,123.071,-536.48,0,0
147451.5,125.227,-532.889,0,0
147711.825,127.441,-529.293,0,0
147972.15,129.695,-525.734,0,0
148232.475,131.925,-522.202,0,0
148492.8,134.199,-518.528,0,0
148753.125,136.588,-514.81,0,0
149013.45,139.118,-511.057,0,0
149273.775,141.806,-507.306,0,0
149534.1,144.679,-503.609,0,0
149794.425,147.681,-499.929,0,0
150054.75,150.844,-496.336,0,0
150315.075,154.112,-492.88,0,0
150575.4,157.372,-489.503,0,0
150835.725,160.805,-486.068,0,0
151096.05,164.439,-482.721,0,0
151356.375,168.245,-479.487,0,0
151616.7,172.252,-476.497,0,0
151877.025,176.281,-473.725,0,0
152137.35,180.305,-471.041,0,0
152397.675,184.481,-468.453,0,0
152658.0,188.802,-466.025,0,0
152918.325,193.204,-463.876,0,0
153178.65,197.646,-461.906,0,0
153438.975,202.195,-460.207,0,0
153699.3,206.744,-458.919,0,0
153959.625,211.072,-457.987,0,0
154219.95,215.113,-457.208,0,0
154480,218.943,-456.506,0,0
154741,222.665,-456.001,0,0
155001,226.091,-455.467,0,0
155261,229.223,-454.757,0,0
155522,232.386,-453.892,0,0
155782,235.586,-452.953,0,0
156042,239.012,-452.047,0,0
156303,242.415,-451.223,0,0
156563,245.861,-450.647,0,0
156823,249.117,-450.394,0,0
157084,251.85,-449.96,0,0
157344,254.734,-449.108,0,0
157604,257.848,-448.335,0,0
157864,260.756,-447.735,0,0
158125,263.527,-446.714,0,0
158385,266.806,-445.462,0,0
158645,270.563,-444.483,0,0
158906,274.119,-443.757,0,0
159166,277.979,-442.948,0,0
159426,282.303,-442.465,0,0
159687,286.768,-442.804,0,0
159947,290.951,-443.452,0,0
160207,294.856,-444.666,0,0
160468,298.181,-446.154,0,0
160728,301.014,-447.546,0,0
160988,304.021,-448.683,0,0
161249,306.933,-450.493,0,0
161509,308.936,-452.611,0,0
161769,310.337,-454.294,0,0
162030,311.393,-455.718,0,0
162290,312.038,-456.662,0,0
162550,312.556,-456.96,0,0
162811,313.37,-456.919,0,0
163071,314.259,-456.842,0,0
163331,315.011,-456.378,0,0
163592,315.953,-455.565,0,0
163852,317.116,-454.501,0,0
164112,318.331,-453.116,0,0
164373,319.909,-451.291,0,0
164633,322.274,-449.398,0,0
164893,325.131,-447.647,0,0
165154,328.409,-446.144,0,0
165414,331.943,-445.101,0,0
165674,335.452,-444.293,0,0
165935,338.958,-443.552,0,0
166195,342.667,-442.839,0,0
166455,346.518,-442.115,0,0
166716,350.797,-441.286,0,0
166976,355.79,-440.751,0,0
167236,361.133,-440.848,0,0
167497,366.714,-441.474,0,0
167757,372.714,-442.573,0,0
168017,378.976,-444.582,0,0
168277,385.347,-447.769,0,0
168538,391.274,-451.978,0,0
168798,396.385,-457.069,0,0
169058,400.693,-462.623,0,0
169319,404.306,-468.402,0,0
169579,407.413,-474.52,0,0
169839,409.759,-480.98,0,0
170100,411.375,-487.369,0,0
170360.075,412.744,-493.851,0,0
170620.4,413.667,-500.808,0,0
170880.725,413.859,-508.307,0,0
171141.05,412.719,-516.303,0,0
171401.375,409.988,-523.969,0,0
171661.7,406.16,-530.77,0,0
171922.025,401.686,-536.832,0,0
172182.35,396.511,-542.146,0,0
172442.675,390.978,-546.53,0,0
172703.0,385.375,-550.431,0,0
172963.325,378.938,-554.032,0,0
173223.65,371.721,-556.337,0,0
173483.975,364.666,-557.322,0,0
173744.3,357.826,-557.522,0,0
174004.625,351.219,-556.828,0,0
174264.95,345.107,-555.425,0,0
174525.275,339.3,-553.678,0,0
174785.6,333.69,-551.383,0,0
175045.925,328.487,-548.514,0,0
175306.25,323.705,-545.264,0,0
175566.575,319.353,-541.739,0,0
175826.9,315.315,-537.871,0,0
176087.225,311.679,-533.677,0,0
176347.55,308.529,-529.227,0,0
176607.875,305.832,-524.597,0,0
176868.2,303.621,-519.88,0,0
177128.525,301.827,-515.143,0,0
177388.85,300.419,-510.366,0,0
177649.175,299.37,-505.61,0,0
177909.5,298.774,-500.847,0,0
178169.825,298.664,-496.306,0,0
178430.15,298.73,-492.151,0,0
178690.475,298.828,-488.159,0,0
178950.8,299.044,-484.24,0,0
179211.125,299.354,-480.448,0,0
179471.45,299.72,-476.749,0,0
179731.775,300.159,-473.114,0,0
179992.1,300.695,-469.516,0,0
180252.425,301.262,-465.969,0,0
180512.75,301.899,-462.5,0,0
180773.075,302.592,-459.119,0,0
181033.4,303.251,-455.753,0,0
181293.725,303.935,-452.377,0,0
181554.05,304.674,-449.031,0,0
181814.375,305.418,-445.676,0,0
182074.7,306.136,-442.355,0,0
182335.025,306.829,-439.003,0,0
182595.35,307.486,-435.561,0,0
182855.675,308.137,-432.02,0,0
183116.0,308.791,-428.372,0,0
183376.325,309.468,-424.6,0,0
183636.65,310.197,-420.6,0,0
183896.975,311.062,-416.454,0,0
184157.3,312.087,-412.157,0,0
184417.625,313.303,-407.763,0,0
184677.95,314.695,-403.307,0,0
184938.275,316.205,-398.828,0,0
185198.6,317.8,-394.301,0,0
185458.925,319.503,-389.619,0,0
185719.25,321.318,-384.756,0,0
185979.575,323.378,-379.725,0,0
186239.9,325.715,-374.599,0,0
186500,328.382,-369.417,0,0
186761,331.2,-364.242,0,0
187021,334.29,-359.062,0,0
187281,337.573,-353.836,0,0
187542,341.055,-348.591,0,0
187802,344.883,-343.291,0,0
188062,348.86,-337.985,0,0
188322,353.183,-332.647,0,0
188583,357.746,-327.32,0,0
188843,362.5,-322.035,0,0
189103,367.63,-316.741,0,0
189364,373.035,-311.429,0,0
189624,378.803,-306.265,0,0
189884,384.867,-301.116,0,0
190145,391.109,-295.984,0,0
190405,397.837,-290.944,0,0
190665,404.922,-285.926,0,0
190926,412.477,-281.197,0,0
191186,420.365,-276.556,0,0
191446,428.673,-272.227,0,0
191707,437.393,-268.169,0,0
191967,446.38,-264.423,0,0
192227,455.762,-261.011,0,0
192488,465.304,-258.097,0,0
192748,475.05,-255.563,0,0
193008,485.006,-253.247,0,0
193269,495.192,-251.4,0,0
193529,505.49,-249.996,0,0
193789,515.858,-248.896,0,0
194050,526.263,-248.225,0,0
194310,536.726,-247.685,0,0
194570,547.366,-247.218,0,0
194831,558.265,-247.18,0,0
195091,569.357,-247.468,0,0
195351,580.604,-248.075,0,0
195612,592.014,-249.091,0,0
195872,603.591,-250.379,0,0
196132,615.369,-252.023,0,0
196393,627.4,-254.075,0,0
196653,639.657,-256.621,0,0
196913,652.055,-259.541,0,0
197174,664.731,-262.859,0,0
197434,677.83,-266.795,0,0
197694,691.142,-271.451,0,0
197955,704.7,-276.844,0,0
198215,718.46,-283.092,0,0
198475,732.205,-290.422,0,0
198735,745.791,-298.635,0,0
198996,759.25,-307.677,0,0
199256,772.681,-317.726,0,0
199516,785.841,-329.019,0,0
199777,798.272,-341.56,0,0
200037,809.944,-355.052,0,0
200297,820.641,-369.315,0,0
200558,830.41,-384.337,0,0
200818,839.11,-399.833,0,0
201078,846.999,-415.861,0,0
201339,853.893,-432.45,0,0
201599,859.447,-449.598,0,0
201859,863.869,-466.683,0,0
202120,867.132,-483.578,0,0
202380.025,869.57,-500.38,0,0
202640.35,870.963,-517.436,0,0
202900.675,871.035,-534.18,0,0
203161.0,869.897,-550.361,0,0
203421.325,868.077,-565.405,0,0
203681.65,866.143,-579.756,0,0
203941.975,864.085,-593.73,0,0
204202.3,862.042,-607.667,0,0
204462.625,859.622,-621.866,0,0
204722.95,856.214,-636.06,0,0
204983.275,851.937,-649.544,0,0
205243.6,847.403,-662.403,0,0
205503.925,842.845,-674.773,0,0
205764.25,838.099,-687.031,0,0
206024.575,833.233,-699.174,0,0
206284.9,828.023,-711.348,0,0
206545.225,822.213,-723.353,0,0
206805.55,815.903,-735.086,0,0
207065.875,809.288,-746.491,0,0
207326.2,802.487,-757.875,0,0
207586.525,794.976,-769.355,0,0
207846.85,786.656,-780.412,0,0
208107.175,777.709,-790.885,0,0
208367.5,768.24,-801.073,0,0
208627.825,757.836,-810.635,0,0
208888.15,746.836,-819.355,0,0
209148.475,735.443,-826.811,0,0
209408.8,724.001,-833.305,0,0
209669.125,712.448,-838.884,0,0
209929.45,700.91,-843.613,0,0
210189.775,689.572,-847.264,0,0
210450.1,678.628,-849.973,0,0
210710.425,668.277,-851.953,0,0
210970.75,658.53,-853.588,0,0
211231.075,649.276,-855.033,0,0
211491.4,640.296,-856.268,0,0
211751.725,631.388,-857.12,0,0
212012.05,622.708,-857.525,0,0
212272.375,614.421,-857.453,0,0
212532.7,606.424,-856.958,0,0
212793.025,599.141,-856.007,0,0
213053.35,592.294,-854.779,0,0
213313.675,586.196,-853.427,0,0
213574.0,580.536,-852.266,0,0
213834.325,575.219,-850.911,0,0
214094.65,570.449,-849.439,0,0
214354.975,566.471,-848.085,0,0
214615.3,562.998,-846.953,0,0
214875.625,559.968,-846.322,0,0
215135.95,557.27,-846.312,0,0
215396.275,554.747,-846.715,0,0
215656.6,552.087,-847.599,0,0
215916.925,549.274,-848.827,0,0
216177.25,546.393,-850.296,0,0
216437.575,543.349,-852.101,0,0
216697.9,539.932,-854.123,0,0
216958.225,536.223,-856.128,0,0
217218.55,532.276,-858.028,0,0
217478.875,528.328,-859.826,0,0
217739.2,524.171,-861.667,0,0
217999.525,519.885,-863.499,0,0
218259.85,515.292,-865.272,0,0
218520,510.596,-866.893,0,0
218780,505.746,-868.209,0,0
219041,500.911,-869.227,0,0
219301,496.353,-869.884,0,0
219561,492.016,-870.423,0,0
219822,487.954,-871.188,0,0
220082,484.045,-872.117,0,0
220342,479.97,-873.166,0,0
220603,475.758,-874.451,0,0
220863,471.368,-875.669,0,0
221123,466.962,-876.648,0,0
221384,462.541,-877.791,0,0
221644,457.992,-878.84,0,0
221904,453.235,-879.923,0,0
222165,448.368,-880.89,0,0
222425,443.352,-881.699,0,0
222685,438.267,-882.087,0,0
222946,433.279,-882.382,0,0
223206,428.474,-882.523,0,0
223466,423.849,-882.57,0,0
223727,419.187,-882.828,0,0
223987,414.58,-883.011,0,0
224247,409.902,-883.271,0,0
224508,405.18,-883.459,0,0
224768,400.425,-883.597,0,0
225028,395.531,-883.836,0,0
225289,390.604,-883.954,0,0
225549,385.56,-884.158,0,0
225809,380.392,-884.265,0,0
226070,374.919,-884.223,0,0
226330,369.262,-884.031,0,0
226590,363.423,-883.415,0,0
226851,357.701,-882.402,0,0
227111,351.963,-881.169,0,0
227371,346.429,-879.694,0,0
227632,341.024,-878.108,0,0
227892,335.619,-876.564,0,0
228152,330.18,-874.826,0,0
228413,324.743,-872.747,0,0
228673,319.218,-870.546,0,0
228933,313.835,-867.978,0,0
229193,308.635,-865.014,0,0
229454,303.724,-861.928,0,0
229714,299.012,-858.658,0,0
229974,294.441,-855.34,0,0
230235,290.101,-851.821,0,0
230495,285.928,-848.239,0,0
230755,282.06,-844.473,0,0
231016,278.474,-840.494,0,0
231276,275.179,-836.633,0,0
231536,272.162,-832.77,0,0
231797,269.5,-828.989,0,0
232057,266.93,-825.381,0,0
232317,264.402,-821.86,0,0
232578,262.084,-818.384,0,0
232838,259.77,-814.937,0,0
233098,257.597,-811.537,0,0
233359,255.546,-808.155,0,0
233619,253.505,-804.763,0,0
233879,251.632,-801.353,0,0
234140,249.945,-798.032,0,0
234400,248.433,-794.741,0,0
234660.3,246.936,-791.593,0,0
234920.625,245.5,-788.573,0,0
235180.95,244.161,-785.507,0,0
235441.275,242.962,-782.485,0,0
235701.6,241.778,-779.598,0,0
235961.925,240.759,-776.763,0,0
236222.25,239.669,-774.035,0,0
236482.575,238.561,-771.334,0,0
236742.9,237.449,-768.703,0,0
237003.225,236.42,-766.052,0,0
237263.55,235.377,-763.284,0,0
237523.875,234.535,-760.58,0,0
237784.2,233.814,-757.865,0,0
238044.525,233.173,-755.229,0,0
238304.85,232.608,-752.61,0,0
238565.175,232.184,-750.045,0,0
238825.5,231.944,-747.688,0,0
239085.825,231.678,-745.484,0,0
239346.15,231.528,-743.376,0,0
239606.475,231.318,-741.428,0,0
239866.8,231.037,-739.6,0,0
240127.125,230.886,-737.782,0,0
240387.45,230.644,-736.194,0,0
240647.775,230.361,-734.649,0,0
240908.1,230.12,-733.116,0,0
241168.425,229.807,-731.877,0,0
241428.75,229.412,-730.643,0,0
241689.075,228.848,-729.424,0,0
241949.4,228.231,-728.294,0,0
242209.725,227.541,-727.085,0,0
242470.05,226.845,-725.99,0,0
242730.375,226.071,-724.86,0,0
242990.7,225.143,-723.755,0,0
243251.025,224.169,-722.622,0,0
243511.35,223.124,-721.38,0,0
243771.675,222.121,-720.15,0,0
244032.0,221.034,-718.914,0,0
244292.325,219.932,-717.689,0,0
244552.65,218.831,-716.397,0,0
244812.975,217.572,-715.115,0,0
245073.3,216.312,-713.669,0,0
245333.625,214.975,-712.261,0,0
245593.95,213.58,-710.579,0,0
245854.275,212.228,-708.877,0,0
246114.6,210.958,-707.055,0,0
246374.925,209.74,-705.016,0,0
246635.25,208.662,-702.993,0,0
246895.575,207.73,-700.873,0,0
247155.9,206.9,-698.821,0,0
247416.225,206.123,-696.784,0,0
247676.55,205.515,-694.709,0,0
247936.875,205.041,-692.713,0,0
248197.2,204.591,-690.861,0,0
248457.525,204.239,-689.135,0,0
248717.85,203.767,-687.464,0,0
248978.175,203.268,-685.865,0,0
249238.5,202.758,-684.356,0,0
249498.825,202.229,-682.787,0,0
249759.15,201.608,-681.31,0,0
250019.475,200.909,-679.814,0,0
250279.8,200.196,-678.204,0,0
250540,199.432,-676.528,0,0
250800,198.796,-674.871,0,0
251061,198.263,-673.25,0,0
251321,197.639,-671.746,0,0
251581,196.959,-670.301,0,0
251842,196.183,-668.881,0,0
252102,195.245,-667.419,0,0
252362,194.173,-665.929,0,0
252623,193.014,-664.352,0,0
252883,191.704,-662.616,0,0
253143,190.264,-660.715,0,0
253404,188.768,-658.546,0,0
253664,187.351,-656.011,0,0
253924,186.106,-653.256,0,0
254185,185.048,-650.393,0,0
254445,184.086,-647.42,0,0
254705,183.332,-644.333,0,0
254966,182.775,-641.147,0,0
255226,182.365,-637.825,0,0
255486,182.11,-634.6,0,0
255747,182.006,-631.314,0,0
256007,181.956,-627.954,0,0
256267,182.042,-624.539,0,0
256528,182.298,-620.947,0,0
256788,182.82,-617.294,0,0
257048,183.626,-613.633,0,0
257309,184.666,-610.014,0,0
257569,185.918,-606.45,0,0
257829,187.389,-602.966,0,0
258090,189.041,-599.557,0,0
258350,190.826,-596.28,0,0
258610,192.759,-593.034,0,0
258871,194.852,-589.783,0,0
259131,197.173,-586.604,0,0
259391,199.7,-583.493,0,0
259651,202.461,-580.438,0,0
259912,205.609,-577.551,0,0
260172,208.926,-574.861,0,0
260432,212.468,-572.37,0,0
260693,216.26,-570.12,0,0
260953,220.23,-568.133,0,0
261213,224.529,-566.481,0,0
261474,228.901,-565.31,0,0
261734,233.346,-564.48,0,0
261994,237.755,-564.117,0,0
262255,241.989,-564.11,0,0
262515,246.107,-564.28,0,0
262775,250.216,-564.582,0,0
263036,254.323,-565.227,0,0
263296,258.353,-566.159,0,0
263556,262.301,-567.283,0,0
263817,266.353,-568.882,0,0
264077,269.96,-570.699,0,0
264337,273.327,-572.625,0,0
264598,276.588,-574.525,0,0
264858,279.898,-576.574,0,0
265118,283.21,-578.843,0,0
265379,286.609,-581.405,0,0
265639,289.921,-584.371,0,0
265899,293.113,-587.789,0,0
266160,295.965,-591.614,0,0
266420,298.492,-595.767,0,0
266680.25,300.556,-600.305,0,0
266940.575,302.13,-605.109,0,0
267200.9,303.043,-610.071,0,0
267461.225,303.333,-615.004,0,0
267721.55,303.031,-619.717,0,0
267981.875,302.319,-624.191,0,0
268242.2,301.311,-628.306,0,0
268502.525,300.111,-632.165,0,0
268762.85,298.759,-635.797,0,0
269023.175,297.402,-639.317,0,0
269283.5,295.933,-642.787,0,0
269543.825,294.261,-646.38,0,0
269804.15,292.158,-649.919,0,0
270064.475,289.533,-653.248,0,0
270324.8,286.421,-656.082,0,0
270585.125,283.226,-658.242,0,0
270845.45,280.144,-659.883,0,0
271105.775,277.394,-661.085,0,0
271366.1,274.93,-662.129,0,0
271626.425,272.703,-663.095,0,0
271886.75,270.744,-664.126,0,0
272147.075,268.84,-665.098,0,0
272407.4,267.075,-666.193,0,0
272667.725,265.465,-667.416,0,0
272928.05,263.762,-668.909,0,0
273188.375,261.929,-670.465,0,0
273448.7,259.898,-672.119,0,0
273709.025,257.766,-673.717,0,0
273969.35,255.453,-675.4,0,0
274229.675,252.91,-677.051,0,0
274490.0,250.212,-678.642,0,0
274750.325,247.345,-680.196,0,0
275010.65,244.202,-681.701,0,0
275270.975,240.828,-683.04,0,0
275531.3,237.155,-684.179,0,0
275791.625,233.274,-685.037,0,0
276051.95,229.145,-685.616,0,0
276312.275,224.904,-685.761,0,0
276572.6,220.651,-685.456,0,0
276832.925,216.424,-684.836,0,0
277093.25,212.196,-683.836,0,0
277353.575,208.086,-682.396,0,0
277613.9,204.223,-680.537,0,0
277874.225,200.628,-678.356,0,0
278134.55,197.394,-675.933,0,0
278394.875,194.515,-673.382,0,0
278655.2,191.893,-670.755,0,0
278915.525,189.459,-668.029,0,0
279175.85,187.317,-665.172,0,0
279436.175,185.542,-662.248,0,0
279696.5,184.087,-659.243,0,0
279956.825,182.945,-656.36,0,0
280217.15,182.195,-653.532,0,0
280477.475,181.795,-650.938,0,0
280737.8,181.473,-648.595,0,0
280998.125,181.318,-646.486,0,0
281258.45,181.209,-644.576,0,0
281518.775,181.109,-642.837,0,0
281779.1,181.063,-641.271,0,0
282039.425,180.918,-639.884,0,0
282299.75,180.748,-638.579,0,0
282560,180.517,-637.296,0,0
282820,180.194,-636.031,0,0
283081,179.867,-634.674,0,0
283341,179.65,-633.228,0,0
283601,179.637,-631.772,0,0
283862,179.89,-630.475,0,0
284122,180.245,-629.449,0,0
284382,180.528,-628.752,0,0
284643,180.68,-628.254,0,0
284903,180.669,-627.854,0,0
285163,180.472,-627.624,0,0
285424,180.086,-627.318,0,0
285684,179.552,-626.962,0,0
285944,178.943,-626.578,0,0
286205,178.267,-626.126,0,0
286465,177.487,-625.704,0,0
286725,176.574,-625.253,0,0
286986,175.509,-624.686,0,0
287246,174.266,-623.966,0,0
287506,172.938,-623.103,0,0
287767,171.48,-622.013,0,0
288027,169.945,-620.56,0,0
288287,168.486,-618.652,0,0
288548,167.315,-616.368,0,0
288808,166.497,-613.851,0,0
289068,166.082,-611.173,0,0
289329,166.053,-608.404,0,0
289589,166.434,-605.643,0,0
289849,167.236,-602.953,0,0
290109,168.403,-600.415,0,0
290370,169.995,-598.056,0,0
290630,171.916,-596.1,0,0
290890,174.041,-594.531,0,0
291151,176.242,-593.257,0,0
291411,178.58,-592.301,0,0
291671,181.028,-591.663,0,0
291932,183.55,-591.417,0,0
292192,186.084,-591.615,0,0
292452,188.503,-592.233,0,0
292713,190.816,-593.179,0,0
292973,192.895,-594.467,0,0
293233,194.769,-596.061,0,0
293494,196.392,-597.921,0,0
293754,197.815,-600.013,0,0
294014,198.843,-602.388,0,0
294275,199.493,-604.921,0,0
294535,199.776,-607.542,0,0
294795,199.675,-610.184,0,0
295056,199.206,-612.883,0,0
295316,198.343,-615.496,0,0
295576,197.042,-617.952,0,0
295837,195.441,-620.174,0,0
296097,193.606,-622.144,0,0
296357,191.603,-623.87,0,0
296618,189.47,-625.359,0,0
296878,187.215,-626.607,0,0
297138,184.859,-627.603,0,0
297399,182.451,-628.34,0,0
297659,180.067,-628.844,0,0
297919,177.715,-629.106,0,0
298180,175.402,-629.178,0,0
298440,173.173,-629.055,0,0
298700.2,171.086,-628.749,0,0
298960.525,169.149,-628.371,0,0
299220.85,167.368,-627.937,0,0
299481.175,165.655,-627.551,0,0
299741.5,163.997,-627.174,0,0
300001.825,162.325,-626.783,0,0
300262.15,160.714,-626.347,0,0
300522.475,159.078,-625.903,0,0
300782.8,157.459,-625.42,0,0
301043.125,155.852,-624.906,0,0
301303.45,154.25,-624.339,0,0
301563.775,152.655,-623.737,0,0
301824.1,151.061,-623.104,0,0
302084.425,149.458,-622.432,0,0
302344.75,147.844,-621.652,0,0
302605.075,146.248,-620.805,0,0
302865.4,144.733,-619.867,0,0
303125.725,143.279,-618.872,0,0
303386.05,141.88,-617.846,0,0
303646.375,140.533,-616.782,0,0
303906.7,139.225,-615.664,0,0
304167.025,138.004,-614.571,0,0
304427.35,136.845,-613.379,0,0
304687.675,135.77,-612.208,0,0
304948.0,134.729,-611.034,0,0
305208.325,133.739,-609.899,0,0
305468.65,132.758,-608.753,0,0
305728.975,131.806,-607.565,0,0
305989.3,130.923,-606.334,0,0
306249.625,130.125,-605.088,0,0
306509.95,129.395,-603.843,0,0
306770.275,128.756,-602.583,0,0
307030.6,128.223,-601.376,0,0
307290.925,127.775,-600.24,0,0
307551.25,127.378,-599.209,0,0
307811.575,126.981,-598.256,0,0
308071.9,126.561,-597.375,0,0
308332.225,126.134,-596.526,0,0
308592.55,125.688,-595.689,0,0
308852.875,125.264,-594.897,0,0
309113.2,124.818,-594.177,0,0
309373.525,124.351,-593.493,0,0
309633.85,123.831,-592.826,0,0
309894.175,123.288,-592.14,0,0
310154.5,122.741,-591.481,0,0
310414.825,122.132,-590.832,0,0
310675.15,121.512,-590.164,0,0
310935.475,120.862,-589.489,0,0
311195.8,120.203,-588.79,0,0
311456.125,119.532,-588.057,0,0
311716.45,118.852,-587.286,0,0
311976.775,118.181,-586.528,0,0
312237.1,117.483,-585.758,0,0
312497.425,116.783,-584.948,0,0
312757.75,116.096,-584.096,0,0
313018.075,115.409,-583.187,0,0
313278.4,114.768,-582.242,0,0
313538.725,114.208,-581.271,0,0
313799.05,113.681,-580.286,0,0
314059.375,113.213,-579.308,0,0
314319.7,112.786,-578.359,0,0
314580,112.415,-577.428,0,0
314840,111.989,-576.493,0,0
315101,111.657,-575.569,0,0
315361,111.425,-574.663,0,0
315621,111.199,-573.904,0,0
315882,110.999,-573.032,0,0
316142,110.791,-572.297,0,0
316402,110.577,-571.647,0,0
316663,110.585,-570.915,0,0
316923,110.32,-570.387,0,0
317183,110.227,-569.909,0,0
317444,109.984,-569.376,0,0
317704,109.718,-568.866,0,0
317964,109.519,-568.527,0,0
318225,109.22,-568.08,0,0
318485,109.073,-567.813,0,0
318745,108.725,-567.58,0,0
319006,108.28,-567.425,0,0
319266,107.915,-567.294,0,0
319526,107.31,-567.149,0,0
319787,106.647,-567.019,0,0
320047,105.885,-566.857,0,0
320307,105.156,-566.704,0,0
320567,104.293,-566.399,0,0
320828,103.492,-566.173,0,0
321088,102.487,-565.925,0,0
321348,101.563,-565.716,0,0
321609,100.467,-565.486,0,0
321869,99.2111,-565.159,0,0
322129,98.0258,-564.792,0,0
322390,96.6334,-564.163,0,0
322650,95.2039,-563.48,0,0
322910,93.8085,-562.686,0,0
323171,92.3812,-561.681,0,0
323431,90.9794,-560.645,0,0
323691,89.6898,-559.381,0,0
323952,88.5107,-558.056,0,0
324212,87.462,-556.659,0,0
324472,86.5334,-555.254,0,0
324733,85.6236,-553.726,0,0
324993,84.9015,-552.301,0,0
325253,84.2347,-550.792,0,0
325514,83.7077,-549.503,0,0
325774,83.1034,-548.114,0,0
326034,82.5566,-546.753,0,0
326295,81.9993,-545.522,0,0
326555,81.5675,-544.164,0,0
326815,80.9705,-542.898,0,0
327076,80.4701,-541.592,0,0
327336,80.0028,-540.215,0,0
327596,79.5226,-538.882,0,0
327857,79.1231,-537.476,0,0
328117,78.7369,-536.037,0,0
328377,78.3603,-534.624,0,0
328638,78.0827,-533.22,0,0
328898,77.8809,-531.761,0,0
329158,77.7424,-530.237,0,0
329419,77.6649,-528.82,0,0
329679,77.6409,-527.372,0,0
329939,77.7165,-526.023,0,0
330200,77.8579,-524.709,0,0
330460,78.0212,-523.357,0,0
330720.15,78.2399,-522.119,0,0
330980.475,78.5094,-520.995,0,0
331240.8,78.8994,-520.002,0,0
331501.125,79.1405,-519.028,0,0
331761.45,79.4915,-518.138,0,0
332021.775,79.7943,-517.311,0,0
332282.1,79.9714,-516.612,0,0
332542.425,80.1419,-515.971,0,0
332802.75,80.2022,-515.308,0,0
333063.075,80.2948,-514.724,0,0
333323.4,80.2508,-514.057,0,0
333583.725,80.2304,-513.462,0,0
333844.05,80.1457,-512.859,0,0
334104.375,79.9698,-512.209,0,0
334364.7,79.8199,-511.564,0,0
334625.025,79.6413,-510.919,0,0
334885.35,79.3729,-510.338,0,0
335145.675,79.1418,-509.6,0,0
335406.0,78.8269,-508.838,0,0
335666.325,78.5247,-508.106,0,0
335926.65,78.1656,-507.313,0,0
336186.975,77.8546,-506.466,0,0
336447.3,77.5319,-505.583,0,0
336707.625,77.2295,-504.677,0,0
336967.95,76.7795,-503.715,0,0
337228.275,76.4944,-502.764,0,0
337488.6,76.1369,-501.704,0,0
337748.925,75.8547,-500.535,0,0
338009.25,75.5795,-499.349,0,0
338269.575,75.3668,-498.12,0,0
338529.9,75.126,-496.85,0,0
338790.225,75.0737,-495.566,0,0
339050.55,75.0439,-494.244,0,0
339310.875,75.125,-492.836,0,0
339571.2,75.2559,-491.536,0,0
339831.525,75.4853,-490.237,0,0
340091.85,75.8206,-489.016,0,0
340352.175,76.2202,-487.774,0,0
340612.5,76.5619,-486.571,0,0
340872.825,76.9657,-485.382,0,0
341133.15,77.5258,-484.178,0,0
341393.475,78.0439,-483.04,0,0
341653.8,78.7227,-481.951,0,0
341914.125,79.4014,-480.979,0,0
342174.45,80.1799,-480.017,0,0
342434.775,80.9458,-479.182,0,0
342695.1,81.84,-478.394,0,0
342955.425,82.7039,-477.715,0,0
343215.75,83.6082,-477.185,0,0
343476.075,84.5453,-476.729,0,0
343736.4,85.4297,-476.402,0,0
343996.725,86.2149,-476.236,0,0
344257.05,86.9641,-476.14,0,0
344517.375,87.5907,-476.175,0,0
344777.7,88.1619,-476.136,0,0
345038.025,88.634,-476.179,0,0
345298.35,89.0887,-476.311,0,0
345558.675,89.3493,-476.443,0,0
345819.0,89.5891,-476.63,0,0
346079.325,89.7591,-476.752,0,0
346339.65,89.8188,-476.889,0,0
346599.975,89.8073,-476.974,0,0
346860,89.7266,-477.062,0,0
347121,89.6051,-477.078,0,0
347381,89.4095,-477.121,0,0
347641,89.3004,-477.186,0,0
347902,89.0048,-477.17,0,0
348162,88.7008,-477.061,0,0
348422,88.4339,-476.965,0,0
348683,88.0671,-476.809,0,0
348943,87.7019,-476.628,0,0
349203,87.3475,-476.418,0,0
349464,86.9007,-476.165,0,0
349724,86.4788,-475.87,0,0
349984,86.0917,-475.53,0,0
350245,85.6505,-475.143,0,0
350505,85.1764,-474.775,0,0
350765,84.7215,-474.258,0,0
351025,84.2292,-473.758,0,0
351286,83.824,-473.167,0,0
351546,83.3939,-472.56,0,0
351806,83.0259,-471.972,0,0
352067,82.6783,-471.348,0,0
352327,82.306,-470.628,0,0
352587,81.9831,-469.951,0,0
352848,81.7142,-469.179,0,0
353108,81.4773,-468.399,0,0
353368,81.2355,-467.639,0,0
353629,81.0835,-466.791,0,0
353889,80.9807,-466.048,0,0
354149,80.901,-465.2,0,0
354410,80.9203,-464.335,0,0
354670,80.999,-463.594,0,0
354930,81.1831,-462.861,0,0
355191,81.3009,-462.25,0,0
355451,81.4356,-461.668,0,0
355711,81.5558,-461.189,0,0
355972,81.6483,-460.698,0,0
356232,81.7416,-460.261,0,0
356492,81.6811,-459.843,0,0
356753,81.7309,-459.427,0,0
357013,81.657,-459.039,0,0
357273,81.6007,-458.627,0,0
357534,81.543,-458.2,0,0
357794,81.4546,-457.778,0,0
358054,81.226,-457.41,0,0
358315,80.9956,-457.086,0,0
358575,80.8173,-456.594,0,0
358835,80.4577,-456.13,0,0
359096,80.1532,-455.67,0,0
359356,79.7512,-454.986,0,0
359616,79.4223,-454.372,0,0
359877,79.0764,-453.612,0,0
360137,78.8063,-452.807,0,0
360397,78.5245,-452.005,0,0
360658,78.4013,-451.118,0,0
360918,78.2513,-450.188,0,0
361178,78.2011,-449.317,0,0
361438,78.234,-448.366,0,0
361699,78.239,-447.526,0,0
361959,78.3268,-446.683,0,0
362219,78.4128,-445.856,0,0
362480,78.5712,-445.057,0,0
362740.1,78.7405,-444.251,0,0
363000.425,78.96,-443.472,0,0
363260.75,79.1739,-442.783,0,0
363521.075,79.3714,-442.153,0,0
363781.4,79.632,-441.483,0,0
364041.725,79.8139,-440.849,0,0
364302.05,80.0566,-440.267,0,0
364562.375,80.18,-439.713,0,0
364822.7,80.3277,-439.199,0,0
365083.025,80.4331,-438.611,0,0
365343.35,80.4635,-438.105,0,0
365603.675,80.4531,-437.493,0,0
365864.0,80.417,-436.86,0,0
366124.325,80.3312,-436.153,0,0
366384.65,80.3042,-435.384,0,0
366644.975,80.2914,-434.515,0,0
366905.3,80.4305,-433.535,0,0
367165.625,80.5562,-432.714,0,0
367425.95,80.752,-431.716,0,0
367686.275,81.0405,-430.804,0,0
367946.6,81.3402,-429.777,0,0
368206.925,81.7001,-428.827,0,0
368467.25,82.1152,-427.864,0,0
368727.575,82.7074,-426.818,0,0
368987.9,83.3329,-425.866,0,0
369248.225,84.0982,-424.929,0,0
369508.55,84.9396,-424.005,0,0
369768.875,85.8415,-423.241,0,0
370029.2,86.845,-422.523,0,0
370289.525,87.875,-421.955,0,0
370549.85,88.9576,-421.527,0,0
370810.175,90.0514,-421.155,0,0
371070.5,91.0671,-420.876,0,0
371330.825,92.1722,-420.674,0,0
371591.15,93.1947,-420.566,0,0
371851.475,94.2569,-420.551,0,0
372111.8,95.3529,-420.63,0,0
372372.125,96.3475,-420.824,0,0
372632.45,97.3626,-421.131,0,0
372892.775,98.2843,-421.569,0,0
373153.1,99.1255,-422.124,0,0
373413.425,99.8698,-422.804,0,0
373673.75,100.477,-423.505,0,0
373934.075,100.944,-424.329,0,0
374194.4,101.194,-425.128,0,0
374454.725,101.267,-425.925,0,0
374715.05,101.229,-426.628,0,0
374975.375,101.073,-427.218,0,0
375235.7,100.858,-427.723,0,0
375496.025,100.614,-428.143,0,0
375756.35,100.37,-428.407,0,0
376016.675,100.082,-428.63,0,0
376277.0,99.8826,-428.784,0,0
376537.325,99.7374,-428.916,0,0
376797.65,99.5946,-429.059,0,0
377057.975,99.4698,-429.201,0,0
377318.3,99.3673,-429.331,0,0
377578.625,99.2067,-429.496,0,0
377838.95,99.0935,-429.738,0,0
378099.275,98.9215,-429.88,0,0
378359.6,98.6967,-430.064,0,0
378619.925,98.4508,-430.255,0,0
378880,98.1672,-430.352,0,0
379141,97.8479,-430.459,0,0
379401,97.5579,-430.463,0,0
379661,97.2468,-430.493,0,0
379922,96.9766,-430.51,0,0
380182,96.7057,-430.45,0,0
380442,96.4821,-430.391,0,0
380703,96.2434,-430.398,0,0
380963,96.0898,-430.292,0,0
381223,95.8663,-430.265,0,0
381483,95.6769,-430.24,0,0
381744,95.5433,-430.231,0,0
382004,95.3641,-430.235,0,0
382264,95.2175,-430.226,0,0
382525,95.0951,-430.188,0,0
382785,94.9421,-430.263,0,0
383045,94.8957,-430.293,0,0
383306,94.8761,-430.504,0,0
383566,94.7307,-430.684,0,0
383826,94.5758,-430.993,0,0
384087,94.355,-431.313,0,0
384347,94.0547,-431.751,0,0
384607,93.6591,-432.242,0,0
384868,93.0345,-432.645,0,0
385128,92.379,-433.078,0,0
385388,91.6285,-433.39,0,0
385649,90.7451,-433.672,0,0
385909,89.823,-433.845,0,0
386169,88.7599,-433.874,0,0
386430,87.7964,-433.862,0,0
386690,86.7325,-433.637,0,0
386950,85.7341,-433.377,0,0
387211,84.729,-432.964,0,0
387471,83.8482,-432.597,0,0
387731,82.8828,-431.997,0,0
387992,82.0192,-431.44,0,0
388252,81.1459,-430.748,0,0
388512,80.3839,-429.953,0,0
388773,79.772,-429.08,0,0
389033,79.2176,-428.217,0,0
389293,78.8319,-427.364,0,0
389554,78.4626,-426.463,0,0
389814,78.2631,-425.534,0,0
390074,78.1593,-424.794,0,0
390335,78.2377,-424.094,0,0
390595,78.3555,-423.518,0,0
390855,78.3994,-423.011,0,0
391116,78.4947,-422.706,0,0
391376,78.6309,-422.484,0,0
391636,78.6432,-422.345,0,0
391896,78.6197,-422.343,0,0
392157,78.4805,-422.458,0,0
392417,78.1977,-422.534,0,0
392677,77.7772,-422.694,0,0
392938,77.2682,-422.749,0,0
393198,76.6282,-422.8,0,0
393458,75.9614,-422.754,0,0
393719,75.162,-422.705,0,0
393979,74.3266,-422.617,0,0
394239,73.4071,-422.313,0,0
394500,72.4688,-421.972,0,0
394760.05,71.5029,-421.55,0,0
395020.375,70.6144,-420.992,0,0
395280.7,69.6858,-420.309,0,0
395541.025,68.841,-419.589,0,0
395801.35,68.0374,-418.838,0,0
396061.675,67.3174,-418.02,0,0
396322.0,66.5929,-417.152,0,0
396582.325,65.9406,-416.259,0,0
396842.65,65.3273,-415.371,0,0
397102.975,64.7743,-414.421,0,0
397363.3,64.2538,-413.436,0,0
397623.625,63.7586,-412.476,0,0
397883.95,63.3268,-411.51,0,0
398144.275,62.9407,-410.515,0,0
398404.6,62.5785,-409.567,0,0
398664.925,62.2591,-408.584,0,0
398925.25,61.96,-407.613,0,0
399185.575,61.699,-406.674,0,0
399445.9,61.4072,-405.682,0,0
399706.225,61.1662,-404.732,0,0
399966.55,60.9203,-403.743,0,0
400006.6,60.9065,-403.625,0,0