File: Accelerated corrosion test data/2025-09-30_06-00-03/sample_3.csv
Frequency (Hz),Impedance (ohms),Phase (Radians),Temperature (C),Humidity (%)
10000.0,254.989,-11742.3,0,0
10260.325,248.931,-11446.7,0,0
10520.65,243.462,-11165.6,0,0
10780.975,238.894,-10897,0,0
11041.3,233.171,-10646,0,0
11301.625,227.581,-10401.5,0,0
11561.95,222.741,-10169,0,0
11822.275,218.424,-9946.55,0,0
12082.6,215.02,-9733.42,0,0
12342.925,211.811,-9528.79,0,0
12603.25,206.428,-9335.24,0,0
12863.575,202.738,-9146.54,0,0
13123.9,202.83,-8964.02,0,0
13384.225,195.5,-8796.28,0,0
13644.55,192.426,-8628.75,0,0
13904.875,188.56,-8466.24,0,0
14165.2,187.579,-8310.38,0,0
14425.525,184.12,-8163.01,0,0
14685.8,180.359,-8018.29,0,0
14946.175,179.507,-7879.7,0,0
15206.5,175.392,-7740.62,0,0
15466.825,178.454,-7604.24,0,0
15727.15,199.872,-7491.18,0,0
15987.5,177.937,-7388.16,0,0
16247.8,170.336,-7259.08,0,0
16508.125,165.008,-7147.64,0,0
16768.45,165.088,-7027.26,0,0
17028.775,161.02,-6929.63,0,0
17289.1,162.76,-6816.41,0,0
17549.425,159.343,-6724.65,0,0
17809.75,159.844,-6620.57,0,0
18070.075,165.289,-6530.56,0,0
18330.4,153.218,-6442.61,0,0
18590.725,150.711,-6349.52,0,0
18851.05,147.377,-6260.08,0,0
19111.375,147.875,-6170.33,0,0
19371.7,147.993,-6088.34,0,0
19632.025,148.815,-6006.54,0,0
19892.35,149.016,-5923.95,0,0
20152.675,151.698,-5851.53,0,0
20413.0,158.556,-5770.46,0,0
20673.3,164.137,-5702.86,0,0
20933.65,167.031,-5653.48,0,0
21193.975,164.885,-5589.22,0,0
21454.3,147.495,-5527.52,0,0
21714.625,140.404,-5452.77,0,0
21974.9,145.082,-5387.25,0,0
22235.275,140.265,-5328.42,0,0
22495.6,139.282,-5266.14,0,0
22755.925,131.305,-5207.34,0,0
23016.25,129.724,-5147.96,0,0
23276.6,129.176,-5085.52,0,0
23536.9,131.694,-5040.04,0,0
23797.225,123.428,-4982.27,0,0
24057.55,120.579,-4924.79,0,0
24317.875,120.495,-4870.23,0,0
24578.2,119.044,-4819.91,0,0
24838.525,120.048,-4766.55,0,0
25098.85,118.686,-4721.57,0,0
25359.175,116.537,-4671.7,0,0
25619.5,115.717,-4623.96,0,0
25879.8,112.294,-4578.17,0,0
26140.1,110.424,-4530.28,0,0
26400.5,109.139,-4483.75,0,0
26660.8,109.888,-4438.8,0,0
26921.1,109.721,-4394.57,0,0
27181.4,109.613,-4354.04,0,0
27441.8,108.597,-4310.49,0,0
27702.1,110.146,-4271.11,0,0
27962.4,106.798,-4231.84,0,0
28222.7,104.775,-4188.98,0,0
28483.1,111.656,-4146.74,0,0
28743.4,114.751,-4112.77,0,0
29003.7,115.018,-4080.74,0,0
29264,108.39,-4048.02,0,0
29524.4,111.075,-4010.69,0,0
29784.7,106.353,-3977.95,0,0
30045,104.434,-3943.96,0,0
30305.3,101.962,-3907.13,0,0
30565.7,104.052,-3873.52,0,0
30826,101.884,-3840.2,0,0
31086.3,103.833,-3808.59,0,0
31346.6,99.6734,-3778.18,0,0
31607,98.4689,-3744,0,0
31867.3,99.0451,-3710.41,0,0
32127.6,102.79,-3677.52,0,0
32387.9,109.029,-3648.71,0,0
32648.3,113.721,-3630.93,0,0
32908.6,104.325,-3606.45,0,0
33168.9,102.807,-3577.62,0,0
33429.2,101.367,-3551.97,0,0
33689.6,96.1546,-3525.24,0,0
33949.9,92.8191,-3496.13,0,0
34210.2,92.0757,-3467.97,0,0
34470.5,91.2498,-3441.81,0,0
34730.9,89.1185,-3415.32,0,0
34991.2,88.2405,-3388.87,0,0
35251.5,87.4962,-3363.24,0,0
35511.8,86.0649,-3338.1,0,0
35772.2,85.4673,-3312.94,0,0
36032.5,84.6062,-3288.18,0,0
36292.8,84.0269,-3263.87,0,0
36553.1,83.7873,-3239.92,0,0
36813.5,83.0063,-3216.87,0,0
37073.8,82.3621,-3194.11,0,0
37334.1,81.7793,-3170.82,0,0
37594.4,81.2729,-3148.35,0,0
37854.8,80.8046,-3126.36,0,0
38115.1,80.0046,-3104.51,0,0
38375.4,79.6844,-3082.87,0,0
38635.7,79.2824,-3061.31,0,0
38896.1,79.1299,-3040.48,0,0
39156.4,78.4082,-3019.63,0,0
39416.7,78.1339,-2999.55,0,0
39677,77.7212,-2979.41,0,0
39937.4,77.0064,-2959.3,0,0
40197.7,76.6031,-2939.21,0,0
40458,76.3805,-2920.06,0,0
40718.3,76.1279,-2900.81,0,0
40978.7,75.5031,-2881.84,0,0
41239,75.7401,-2862.96,0,0
41499.3,75.2762,-2844.6,0,0
41759.6,75.4215,-2826.13,0,0
42020,74.939,-2808.51,0,0
42280.275,74.8478,-2790.81,0,0
42540.6,74.7773,-2773.43,0,0
42800.925,74.2844,-2756.21,0,0
43061.25,73.6493,-2739.08,0,0
43321.575,73.2885,-2722.37,0,0
43581.9,72.6938,-2705.1,0,0
43842.225,73.1333,-2688.12,0,0
44102.55,72.8564,-2671.99,0,0
44362.875,73.0394,-2656.09,0,0
44623.2,72.4867,-2640.35,0,0
44883.525,72.1034,-2624.63,0,0
45143.85,71.8481,-2608.99,0,0
45404.175,71.5841,-2593.29,0,0
45664.5,71.3881,-2577.51,0,0
45924.825,72.1898,-2562.5,0,0
46185.15,71.6257,-2548.35,0,0
46445.475,71.1002,-2533.27,0,0
46705.8,71.1228,-2518.42,0,0
46966.125,71.1853,-2504.24,0,0
47226.45,70.8784,-2490.01,0,0
47486.775,70.687,-2475.38,0,0
47747.1,71.2235,-2460.97,0,0
48007.425,71.6931,-2448.2,0,0
48267.75,71.8141,-2435.54,0,0
48528.075,70.6116,-2421.9,0,0
48788.4,70.5462,-2409.05,0,0
49048.725,69.6154,-2395.92,0,0
49309.05,69.0397,-2382.51,0,0
49569.375,69.0017,-2369.25,0,0
49829.7,68.711,-2356.5,0,0
50090.025,68.1836,-2343.79,0,0
50350.35,67.8233,-2330.93,0,0
50610.675,67.5717,-2318.03,0,0
50871.0,67.5497,-2305.43,0,0
51131.325,67.4733,-2293.06,0,0
51391.65,67.4084,-2280.82,0,0
51651.975,67.5123,-2268.64,0,0
51912.3,67.3937,-2256.67,0,0
52172.625,67.1165,-2244.74,0,0
52432.95,67.1106,-2232.68,0,0
52693.275,67.425,-2220.85,0,0
52953.6,67.7453,-2209.06,0,0
53213.925,68.5781,-2197.47,0,0
53474.25,69.1647,-2187,0,0
53734.575,69.2402,-2176,0,0
53994.9,69.5264,-2165.1,0,0
54255.225,70.3684,-2154.63,0,0
54515.55,71.3753,-2145.2,0,0
54775.875,70.6117,-2136.33,0,0
55036.2,69.7867,-2126.19,0,0
55296.525,69.2346,-2116.79,0,0
55556.85,67.9832,-2107.46,0,0
55817.175,66.3199,-2096.75,0,0
56077.5,65.3229,-2086.46,0,0
56337.825,64.5005,-2075.8,0,0
56598.15,63.5285,-2065.45,0,0
56858.475,62.6923,-2054.74,0,0
57118.8,62.3454,-2043.84,0,0
57379.125,62.1997,-2033.35,0,0
57639.45,62.1198,-2022.95,0,0
57899.775,62.1014,-2012.74,0,0
58160.1,62.1166,-2002.76,0,0
58420.4,62.0916,-1992.87,0,0
58680.7,62.2671,-1982.93,0,0
58941.1,62.4061,-1973.18,0,0
59201.4,62.4603,-1963.45,0,0
59461.7,62.7466,-1953.81,0,0
59722,62.9916,-1944.41,0,0
59982.4,63.1894,-1934.99,0,0
60242.7,63.4741,-1925.59,0,0
60503,63.6335,-1916.43,0,0
60763.3,64.18,-1907.1,0,0
61023.7,64.5279,-1898.1,0,0
61284,64.8462,-1889.12,0,0
61544.3,65.7903,-1880.11,0,0
61804.6,66.0853,-1871.89,0,0
62065,66.3032,-1862.86,0,0
62325.3,66.749,-1854.15,0,0
62585.6,67.3083,-1845.2,0,0
62845.9,68.1144,-1836.5,0,0
63106.3,69.0823,-1827.94,0,0
63366.6,69.8007,-1819.54,0,0
63626.9,70.8243,-1810.74,0,0
63887.2,72.3451,-1802.18,0,0
64147.6,74.3473,-1793.72,0,0
64407.9,76.2496,-1786.16,0,0
64668.2,78.2742,-1778.33,0,0
64928.5,80.895,-1770.75,0,0
65188.9,84.5931,-1764.27,0,0
65449.2,87.9876,-1759.45,0,0
65709.5,89.7424,-1755.27,0,0
65969.8,93.0009,-1752.09,0,0
66230.2,92.3609,-1752.41,0,0
66490.5,88.084,-1750.01,0,0
66750.8,82.5278,-1745.26,0,0
67011.1,78.6903,-1735.59,0,0
67271.5,77.6353,-1727.54,0,0
67531.8,75.9293,-1720,0,0
67792.1,75.5138,-1711.55,0,0
68052.4,75.6101,-1703.53,0,0
68312.8,76.6839,-1696.63,0,0
68573.1,76.9869,-1690.51,0,0
68833.4,76.8302,-1684.21,0,0
69093.7,77.2928,-1677.78,0,0
69354.1,77.4555,-1672.18,0,0
69614.4,77.2952,-1666.69,0,0
69874.7,76.4352,-1661.21,0,0
70135,75.5638,-1655.64,0,0
70395.4,74.4076,-1649.7,0,0
70655.7,73.2901,-1643.59,0,0
70916,72.1053,-1637.21,0,0
71176.3,71.1702,-1630.47,0,0
71436.7,70.3873,-1624.16,0,0
71697,69.5664,-1617.29,0,0
71957.3,69.5431,-1610.54,0,0
72217.6,69.4224,-1604.18,0,0
72478,69.4683,-1597.99,0,0
72738.3,69.5974,-1592.18,0,0
72998.6,69.4252,-1586.59,0,0
73258.9,68.8615,-1581.07,0,0
73519.3,68.3314,-1575.28,0,0
73779.6,67.8781,-1569.6,0,0
74039.9,67.3523,-1564.06,0,0
74300.225,66.6047,-1558.46,0,0
74560.55,65.8455,-1552.73,0,0
74820.875,65.0392,-1546.99,0,0
75081.2,64.4353,-1541.25,0,0
75341.525,63.7228,-1535.43,0,0
75601.85,63.0162,-1529.61,0,0
75862.175,62.2042,-1523.79,0,0
76122.5,61.5569,-1517.9,0,0
76382.825,61.0034,-1511.97,0,0
76643.15,60.4534,-1506.02,0,0
76903.475,59.9643,-1500.24,0,0
77163.8,59.5118,-1494.43,0,0
77424.125,59.11,-1488.72,0,0
77684.45,58.6456,-1483.11,0,0
77944.775,58.074,-1477.38,0,0
78205.1,57.6355,-1471.66,0,0
78465.425,57.2683,-1465.97,0,0
78725.75,56.8584,-1460.32,0,0
78986.075,56.5348,-1454.74,0,0
79246.4,56.1653,-1449.07,0,0
79506.725,55.7901,-1443.5,0,0
79767.05,55.5192,-1437.88,0,0
80027.375,55.2415,-1432.33,0,0
80287.7,55.0274,-1426.8,0,0
80548.025,54.8135,-1421.35,0,0
80808.35,54.6173,-1415.88,0,0
81068.675,54.4524,-1410.46,0,0
81329.0,54.2299,-1405.07,0,0
81589.325,54.0702,-1399.65,0,0
81849.65,53.9173,-1394.34,0,0
82109.975,53.8082,-1389.09,0,0
82370.3,53.6459,-1383.77,0,0
82630.625,53.5948,-1378.49,0,0
82890.95,53.4906,-1373.32,0,0
83151.275,53.4527,-1368.08,0,0
83411.6,53.4141,-1362.92,0,0
83671.925,53.3496,-1357.86,0,0
83932.25,53.2688,-1352.78,0,0
84192.575,53.2249,-1347.71,0,0
84452.9,53.1618,-1342.73,0,0
84713.225,53.166,-1337.69,0,0
84973.55,53.163,-1332.7,0,0
85233.875,53.1855,-1327.62,0,0
85494.2,53.1267,-1322.71,0,0
85754.525,53.1854,-1317.8,0,0
86014.85,53.2609,-1312.99,0,0
86275.175,53.3207,-1308.16,0,0
86535.5,53.3298,-1303.28,0,0
86795.825,53.3694,-1298.44,0,0
87056.15,53.3697,-1293.61,0,0
87316.475,53.4821,-1288.77,0,0
87576.8,53.5516,-1284.01,0,0
87837.125,53.7265,-1279.16,0,0
88097.45,53.8715,-1274.52,0,0
88357.775,53.9569,-1269.8,0,0
88618.1,54.1363,-1265.13,0,0
88878.425,54.4215,-1260.25,0,0
89138.75,54.7265,-1255.47,0,0
89399.075,55.195,-1250.76,0,0
89659.4,55.5788,-1246.19,0,0
89919.725,56.1548,-1241.69,0,0
90180,56.6044,-1237.33,0,0
90440.4,57.1727,-1233.11,0,0
90700.7,57.4492,-1228.61,0,0
90961,57.9929,-1224.28,0,0
91221.3,58.5006,-1219.98,0,0
91481.7,59.1043,-1215.87,0,0
91742,59.7393,-1211.76,0,0
92002.3,60.3439,-1207.54,0,0
92262.6,61.0712,-1203.62,0,0
92523,62.0033,-1199.8,0,0
92783.3,62.5905,-1196.24,0,0
93043.6,63.1921,-1192.58,0,0
93303.9,64.0494,-1189.01,0,0
93564.3,64.7186,-1185.88,0,0
93824.6,65.2857,-1182.8,0,0
94084.9,65.8077,-1180.09,0,0
94345.2,65.8531,-1177.32,0,0
94605.6,65.8686,-1174.76,0,0
94865.9,65.3466,-1172.37,0,0
95126.2,64.0903,-1169.96,0,0
95386.5,62.2263,-1166.51,0,0
95646.9,60.8441,-1162.19,0,0
95907.2,60.177,-1157.84,0,0
96167.5,59.5489,-1153.56,0,0
96427.8,59.1719,-1149.12,0,0
96688.2,59.2007,-1144.8,0,0
96948.5,59.2879,-1140.78,0,0
97208.8,59.2681,-1136.83,0,0
97469.1,59.348,-1132.93,0,0
97729.5,59.4393,-1129.13,0,0
97989.8,59.4952,-1125.37,0,0
98250.1,59.4958,-1121.72,0,0
98510.4,59.4995,-1118.14,0,0
98770.8,59.38,-1114.49,0,0
99031.1,59.308,-1110.88,0,0
99291.4,59.1505,-1107.37,0,0
99551.7,58.9169,-1103.71,0,0
99812.1,58.6311,-1100,0,0
100072,58.4091,-1096.2,0,0
100333,58.169,-1092.45,0,0
100593,57.8986,-1088.57,0,0
100853,57.6821,-1084.66,0,0
101114,57.5359,-1080.64,0,0
101374,57.4147,-1076.57,0,0
101634,57.5091,-1072.38,0,0
101895,57.7832,-1068.28,0,0
102155,58.0708,-1064.21,0,0
102415,58.5164,-1060.02,0,0
102676,59.3287,-1055.91,0,0
102936,60.3338,-1052.2,0,0
103196,61.2372,-1048.87,0,0
103457,61.9273,-1045.56,0,0
103717,62.6251,-1042.23,0,0
103977,63.3475,-1038.9,0,0
104238,64.3139,-1035.63,0,0
104498,65.5924,-1032.86,0,0
104758,66.43,-1030.82,0,0
105019,66.6316,-1028.78,0,0
105279,66.4519,-1026.5,0,0
105539,66.2488,-1023.92,0,0
105800,66.1302,-1021.45,0,0
106060,65.6325,-1019.12,0,0
106320.175,64.7555,-1016.47,0,0
106580.5,64.0768,-1013.45,0,0
106840.825,63.3751,-1010.48,0,0
107101.15,62.6237,-1007.27,0,0
107361.475,61.8882,-1003.98,0,0
107621.8,61.232,-1000.46,0,0
107882.125,60.6825,-996.97,0,0
108142.45,60.2364,-993.3,0,0
108402.775,59.9098,-989.696,0,0
108663.1,59.4328,-986.176,0,0
108923.425,59.0462,-982.329,0,0
109183.75,58.8271,-978.509,0,0
109444.075,58.7347,-974.616,0,0
109704.4,58.8001,-970.821,0,0
109964.725,58.9238,-967.046,0,0
110225.05,59.0534,-963.292,0,0
110485.375,59.2923,-959.415,0,0
110745.7,59.6836,-955.578,0,0
111006.025,60.2312,-951.934,0,0
111266.35,60.889,-948.538,0,0
111526.675,61.4852,-945.136,0,0
111787.0,61.9104,-941.93,0,0
112047.325,62.3779,-938.579,0,0
112307.65,62.8618,-935.371,0,0
112567.975,63.2449,-932.126,0,0
112828.3,63.7087,-929.016,0,0
113088.625,63.8451,-925.862,0,0
113348.95,64.1808,-922.675,0,0
113609.275,64.4996,-919.393,0,0
113869.6,64.8402,-916.091,0,0
114129.925,65.2662,-912.779,0,0
114390.25,65.7188,-909.542,0,0
114650.575,66.0906,-906.169,0,0
114910.9,66.5652,-902.82,0,0
115171.225,67.2701,-899.499,0,0
115431.55,67.8379,-896.285,0,0
115691.875,68.4419,-892.876,0,0
115952.2,69.2237,-889.713,0,0
116212.525,69.9376,-886.526,0,0
116472.85,70.6417,-883.175,0,0
116733.175,71.6068,-879.924,0,0
116993.5,72.6448,-876.909,0,0
117253.825,73.4997,-873.845,0,0
117514.15,74.4781,-870.598,0,0
117774.475,75.8266,-867.466,0,0
118034.8,77.1985,-864.555,0,0
118295.125,78.8004,-861.724,0,0
118555.45,80.5499,-859.401,0,0
118815.775,81.8601,-857.45,0,0
119076.1,82.9403,-855.282,0,0
119336.425,84.1743,-853.037,0,0
119596.75,85.7508,-850.899,0,0
119857.075,87.4543,-849.479,0,0
120117.4,88.7857,-848.7,0,0
120377.725,88.9179,-848.168,0,0
120638.05,88.6286,-846.899,0,0
120898.375,88.4591,-845.229,0,0
121158.7,88.4182,-843.624,0,0
121419.025,87.9558,-842.128,0,0
121679.35,87.2436,-840.103,0,0
121939.675,86.7579,-837.622,0,0
122200.0,86.5352,-835.065,0,0
122460,86.46,-832.487,0,0
122721,86.5375,-829.909,0,0
122981,86.7288,-827.4,0,0
123241,87.0656,-824.909,0,0
123502,87.4197,-822.675,0,0
123762,87.6164,-820.531,0,0
124022,87.7428,-818.257,0,0
124283,87.9517,-815.991,0,0
124543,88.2396,-813.729,0,0
124803,88.5009,-811.64,0,0
125064,88.7262,-809.579,0,0
125324,88.8746,-807.557,0,0
125584,88.9606,-805.603,0,0
125845,88.9702,-803.624,0,0
126105,89.0014,-801.657,0,0
126365,88.8876,-799.704,0,0
126626,88.6297,-797.773,0,0
126886,88.3626,-795.7,0,0
127146,87.9859,-793.607,0,0
127406,87.6914,-791.546,0,0
127667,87.2524,-789.358,0,0
127927,86.7961,-787.055,0,0
128187,86.4126,-784.669,0,0
128448,85.9375,-782.313,0,0
128708,85.3928,-779.807,0,0
128968,84.9655,-777.031,0,0
129229,84.7452,-774.288,0,0
129489,84.5626,-771.562,0,0
129749,84.3725,-768.888,0,0
130010,84.2009,-766.138,0,0
130270,84.2031,-763.224,0,0
130530,84.4678,-760.391,0,0
130791,84.8296,-757.741,0,0
131051,85.2273,-755.381,0,0
131311,85.3299,-753.235,0,0
131572,85.3144,-750.952,0,0
131832,85.2812,-748.67,0,0
132092,85.2297,-746.412,0,0
132353,84.9904,-744.065,0,0
132613,84.7294,-741.474,0,0
132873,84.7193,-738.953,0,0
133134,84.6786,-736.53,0,0
133394,84.5455,-734.185,0,0
133654,84.3559,-731.802,0,0
133915,84.0518,-729.331,0,0
134175,83.7536,-726.717,0,0
134435,83.6105,-724.067,0,0
134696,83.4368,-721.527,0,0
134956,83.1878,-718.932,0,0
135216,82.8717,-716.194,0,0
135477,82.7007,-713.432,0,0
135737,82.6262,-710.734,0,0
135997,82.3312,-708.035,0,0
136258,82.0579,-705.165,0,0
136518,81.8745,-702.214,0,0
136778,81.744,-699.213,0,0
137039,81.7673,-696.103,0,0
137299,81.9519,-693.024,0,0
137559,82.2958,-690.093,0,0
137819,82.5554,-687.354,0,0
138080,82.7525,-684.564,0,0
138340.125,83.008,-681.758,0,0
138600.45,83.3825,-679.04,0,0
138860.775,83.6817,-676.616,0,0
139121.1,83.6142,-674.167,0,0
139381.425,83.5682,-671.517,0,0
139641.75,83.4799,-668.914,0,0
139902.075,83.2767,-666.225,0,0
140162.4,83.0609,-663.304,0,0
140422.725,82.938,-660.317,0,0
140683.05,82.968,-657.289,0,0
140943.375,83.0407,-654.348,0,0
141203.7,83.0772,-651.476,0,0
141464.025,83.0541,-648.571,0,0
141724.35,82.9379,-645.639,0,0
141984.675,82.7658,-642.549,0,0
142245.0,82.6785,-639.317,0,0
142505.325,82.7161,-636.091,0,0
142765.65,82.729,-632.917,0,0
143025.975,82.704,-629.595,0,0
143286.3,82.7809,-626.202,0,0
143546.625,82.8971,-622.841,0,0
143806.95,82.9937,-619.371,0,0
144067.275,83.2287,-615.848,0,0
144327.6,83.5238,-612.345,0,0
144587.925,83.835,-608.824,0,0
144848.25,84.1522,-605.303,0,0
145108.575,84.4807,-601.71,0,0
145368.9,84.8989,-598.065,0,0
145629.225,85.3454,-594.432,0,0
145889.55,85.7957,-590.753,0,0
146149.875,86.3012,-586.996,0,0
146410.2,86.8613,-583.163,0,0
146670.525,87.5025,-579.264,0,0
146930.85,88.2426,-575.361,0,0
147191.175,89.0529,-571.443,0,0
147451.5,89.9129,-567.453,0,0
147711.825,90.8765,-563.41,0,0
147972.15,91.9671,-559.346,0,0
148232.475,93.161,-555.274,0,0
148492.8,94.4688,-551.251,0,0
148753.125,95.8216,-547.21,0,0
149013.45,97.2302,-543.121,0,0
149273.775,98.7937,-539.002,0,0
149534.1,100.499,-534.846,0,0
149794.425,102.347,-530.744,0,0
150054.75,104.323,-526.662,0,0
150315.075,106.502,-522.586,0,0
150575.4,108.865,-518.592,0,0
150835.725,111.418,-514.804,0,0
151096.05,114.044,-511.211,0,0
151356.375,116.743,-507.75,0,0
151616.7,119.494,-504.52,0,0
151877.025,122.155,-501.486,0,0
152137.35,124.724,-498.527,0,0
152397.675,127.256,-495.568,0,0
152658.0,129.848,-492.709,0,0
152918.325,132.448,-489.94,0,0
153178.65,135.049,-487.345,0,0
153438.975,137.498,-484.942,0,0
153699.3,139.73,-482.614,0,0
153959.625,141.73,-480.193,0,0
154219.95,143.778,-477.517,0,0
154480,146.099,-475.033,0,0
154741,147.902,-473.019,0,0
155001,149.112,-470.557,0,0
155261,150.213,-467.315,0,0
155522,151.982,-463.517,0,0
155782,154.286,-459.848,0,0
156042,156.803,-456.693,0,0
156303,158.881,-453.585,0,0
156563,161.145,-450.124,0,0
156823,163.633,-446.568,0,0
157084,166.518,-442.971,0,0
157344,169.657,-439.798,0,0
157604,172.86,-436.83,0,0
157864,175.922,-434.204,0,0
158125,179.016,-431.69,0,0
158385,181.7,-429.552,0,0
158645,183.872,-427.388,0,0
158906,185.517,-425.073,0,0
159166,186.865,-421.651,0,0
159426,189.069,-417.941,0,0
159687,191.011,-414.639,0,0
159947,192.391,-410.514,0,0
160207,194.435,-405.526,0,0
160468,197.082,-400.323,0,0
160728,199.649,-394.745,0,0
160988,203.446,-388.028,0,0
161249,208.889,-381.868,0,0
161509,214.723,-376.882,0,0
161769,220.174,-372.333,0,0
162030,225.79,-366.751,0,0
162290,233.08,-361.304,0,0
162550,241.147,-357.153,0,0
162811,249.061,-353.903,0,0
163071,256.709,-350.845,0,0
163331,264.704,-347.986,0,0
163592,272.901,-345.414,0,0
163852,281.502,-343.001,0,0
164112,290.532,-341.418,0,0
164373,299.248,-340.353,0,0
164633,307.945,-338.719,0,0
164893,318.309,-337.112,0,0
165154,329.853,-337.117,0,0
165414,341.887,-339.372,0,0
165674,352.607,-343.669,0,0
165935,361.899,-348.35,0,0
166195,370.729,-353.069,0,0
166455,379.31,-358.596,0,0
166716,386.972,-364.855,0,0
166976,393.995,-371.161,0,0
167236,400.397,-378.228,0,0
167497,405.597,-385.234,0,0
167757,410.249,-391.903,0,0
168017,414.71,-398.505,0,0
168277,419.363,-405.517,0,0
168538,423.255,-413.797,0,0
168798,425.095,-422.382,0,0
169058,425.42,-429.269,0,0
169319,426.554,-434.598,0,0
169579,429.441,-440.889,0,0
169839,431.26,-449.935,0,0
170100,429.498,-459.377,0,0
170360.075,425.339,-466.183,0,0
170620.4,421.557,-470.341,0,0
170880.725,418.651,-473.825,0,0
171141.05,415.927,-476.918,0,0
171401.375,412.823,-479.357,0,0
171661.7,410.121,-480.154,0,0
171922.025,408.963,-480.636,0,0
172182.35,408.555,-481.693,0,0
172442.675,408.116,-482.964,0,0
172703.0,407.656,-484.066,0,0
172963.325,407.626,-484.721,0,0
173223.65,408.435,-485.626,0,0
173483.975,409.217,-487.238,0,0
173744.3,409.676,-488.729,0,0
174004.625,410.695,-489.498,0,0
174264.95,413.237,-490.902,0,0
174525.275,415.908,-494.157,0,0
174785.6,417.535,-498.299,0,0
175045.925,418.491,-502.822,0,0
175306.25,418.821,-507.677,0,0
175566.575,418.468,-512.618,0,0
175826.9,417.48,-518.027,0,0
176087.225,415.093,-523.522,0,0
176347.55,411.139,-528.102,0,0
176607.875,406.968,-530.785,0,0
176868.2,403.893,-532.859,0,0
177128.525,401.001,-535.371,0,0
177388.85,397.632,-538.054,0,0
177649.175,393.799,-540.362,0,0
177909.5,389.782,-542.505,0,0
178169.825,384.652,-544.559,0,0
178430.15,378.511,-545.009,0,0
178690.475,372.779,-543.571,0,0
178950.8,368.239,-540.964,0,0
179211.125,365.104,-538.024,0,0
179471.45,362.752,-535.685,0,0
179731.775,360.142,-533.46,0,0
179992.1,357.704,-530.435,0,0
180252.425,356.386,-526.69,0,0
180512.75,356.54,-523.167,0,0
180773.075,357.764,-520.778,0,0
181033.4,358.836,-519.65,0,0
181293.725,359.504,-518.851,0,0
181554.05,360.255,-518.193,0,0
181814.375,361.415,-517.987,0,0
182074.7,362.696,-519.123,0,0
182335.025,362.817,-521.58,0,0
182595.35,360.791,-523.972,0,0
182855.675,357.866,-525.186,0,0
183116.0,354.871,-525.39,0,0
183376.325,352.039,-525.141,0,0
183636.65,349.117,-524.56,0,0
183896.975,346.208,-523.535,0,0
184157.3,343.319,-522.273,0,0
184417.625,340.383,-520.773,0,0
184677.95,337.255,-518.718,0,0
184938.275,334.259,-515.973,0,0
185198.6,331.675,-512.864,0,0
185458.925,329.454,-509.344,0,0
185719.25,327.717,-505.669,0,0
185979.575,326.245,-501.916,0,0
186239.9,324.985,-498.117,0,0
186500,323.861,-494.02,0,0
186761,323.111,-489.571,0,0
187021,323.026,-484.777,0,0
187281,323.833,-480.11,0,0
187542,325.194,-476.091,0,0
187802,326.516,-472.589,0,0
188062,327.767,-469.173,0,0
188322,329.149,-465.718,0,0
188583,331.013,-462.392,0,0
188843,333.1,-459.79,0,0
189103,334.604,-457.735,0,0
189364,335.54,-455.441,0,0
189624,336.409,-452.64,0,0
189884,337.587,-449.511,0,0
190145,339.065,-446.447,0,0
190405,340.628,-443.388,0,0
190665,342.575,-440.312,0,0
190926,344.745,-437.433,0,0
191186,346.92,-434.893,0,0
191446,348.841,-432.43,0,0
191707,350.648,-429.776,0,0
191967,352.649,-426.881,0,0
192227,354.92,-424.117,0,0
192488,357.13,-421.522,0,0
192748,359.113,-418.79,0,0
193008,361.126,-415.578,0,0
193269,363.588,-411.979,0,0
193529,366.601,-408.404,0,0
193789,369.813,-405.072,0,0
194050,373.08,-401.382,0,0
194310,377.04,-397.225,0,0
194570,382.107,-393.102,0,0
194831,388.193,-389.614,0,0
195091,394.914,-387.095,0,0
195351,401.952,-385.556,0,0
195612,408.973,-385.04,0,0
195872,415.862,-385.421,0,0
196132,422.369,-386.722,0,0
196393,428.117,-388.824,0,0
196653,433.02,-391.106,0,0
196913,437.52,-393.345,0,0
197174,441.962,-395.913,0,0
197434,445.544,-399.158,0,0
197694,447.965,-401.955,0,0
197955,450.131,-404.399,0,0
198215,451.898,-406.657,0,0
198475,453.367,-408.748,0,0
198735,454.133,-410.804,0,0
198996,453.956,-411.864,0,0
199256,453.994,-411.251,0,0
199516,455.459,-409.982,0,0
199777,457.715,-408.86,0,0
200037,460.531,-408.579,0,0
200297,463.026,-408.993,0,0
200558,464.734,-409.503,0,0
200818,465.898,-409.224,0,0
201078,467.592,-408.218,0,0
201339,469.735,-407.306,0,0
201599,471.854,-406.443,0,0
201859,473.867,-405.273,0,0
202120,476.115,-403.6,0,0
202380.025,478.863,-401.434,0,0
202640.35,482.628,-399.162,0,0
202900.675,486.947,-397.334,0,0
203161.0,491.637,-395.811,0,0
203421.325,496.542,-394.338,0,0
203681.65,502.032,-393.071,0,0
203941.975,508.134,-392.38,0,0
204202.3,514.402,-392.495,0,0
204462.625,520.425,-393.081,0,0
204722.95,526.701,-394.015,0,0
204983.275,533.021,-395.257,0,0
205243.6,539.721,-397.323,0,0
205503.925,546.163,-400.586,0,0
205764.25,551.502,-404.628,0,0
206024.575,555.82,-408.687,0,0
206284.9,559.296,-412.501,0,0
206545.225,562.218,-415.836,0,0
206805.55,564.808,-418.66,0,0
207065.875,567.377,-420.779,0,0
207326.2,570.214,-422.517,0,0
207586.525,573.235,-424.03,0,0
207846.85,576.301,-425.287,0,0
208107.175,579.724,-425.933,0,0
208367.5,583.881,-426.31,0,0
208627.825,588.965,-426.766,0,0
208888.15,594.595,-427.714,0,0
209148.475,600.57,-429.174,0,0
209408.8,606.814,-431.02,0,0
209669.125,613.496,-433.358,0,0
209929.45,620.435,-436.425,0,0
210189.775,627.319,-440.325,0,0
210450.1,633.98,-444.762,0,0
210710.425,640.384,-449.623,0,0
210970.75,646.614,-454.968,0,0
211231.075,652.515,-460.724,0,0
211491.4,658.066,-466.686,0,0
211751.725,663.454,-472.971,0,0
212012.05,668.397,-479.502,0,0
212272.375,673.024,-486.183,0,0
212532.7,677.381,-492.742,0,0
212793.025,681.757,-499.196,0,0
213053.35,686.412,-505.865,0,0
213313.675,691.119,-513.063,0,0
213574.0,695.639,-520.77,0,0
213834.325,699.821,-529.009,0,0
214094.65,703.673,-537.545,0,0
214354.975,707.163,-546.455,0,0
214615.3,710.006,-555.808,0,0
214875.625,712.229,-565.135,0,0
215135.95,714.267,-574.566,0,0
215396.275,715.733,-584.207,0,0
215656.6,716.343,-593.699,0,0
215916.925,716.759,-602.848,0,0
216177.25,717.361,-611.607,0,0
216437.575,718.042,-620.806,0,0
216697.9,718.577,-630.518,0,0
216958.225,718.577,-640.929,0,0
217218.55,717.332,-651.539,0,0
217478.875,715.106,-661.62,0,0
217739.2,712.676,-671.049,0,0
217999.525,710.339,-680.335,0,0
218259.85,707.529,-689.883,0,0
218520,704.233,-699.227,0,0
218780,700.385,-708.454,0,0
219041,695.763,-717.537,0,0
219301,690.485,-725.593,0,0
219561,685.379,-732.728,0,0
219822,680.628,-739.388,0,0
220082,676.128,-745.691,0,0
220342,672.447,-751.959,0,0
220603,669.185,-758.692,0,0
220863,665.769,-766.671,0,0
221123,661.511,-775.114,0,0
221384,656.204,-783.713,0,0
221644,650.039,-791.99,0,0
221904,643.278,-799.966,0,0
222165,635.816,-807.776,0,0
222425,627.279,-814.98,0,0
222685,618.208,-820.806,0,0
222946,609.304,-825.906,0,0
223206,600.226,-830.322,0,0
223466,590.869,-834.087,0,0
223727,581.599,-836.811,0,0
223987,572.654,-838.677,0,0
224247,564.212,-839.51,0,0
224508,556.431,-840.181,0,0
224768,549.201,-840.451,0,0
225028,542.428,-840.208,0,0
225289,536.495,-839.863,0,0
225549,530.754,-839.366,0,0
225809,526.136,-838.908,0,0
226070,522.104,-838.632,0,0
226330,518.622,-839.019,0,0
226590,515.493,-839.991,0,0
226851,512.295,-841.789,0,0
227111,508.668,-844.21,0,0
227371,504.46,-846.768,0,0
227632,499.831,-849.213,0,0
227892,494.95,-851.627,0,0
228152,489.954,-853.773,0,0
228413,484.847,-855.927,0,0
228673,479.667,-858.073,0,0
228933,474.226,-860.235,0,0
229193,468.5,-862.341,0,0
229454,462.464,-864.026,0,0
229714,456.291,-865.62,0,0
229974,450.01,-866.827,0,0
230235,443.718,-867.737,0,0
230495,437.331,-868.351,0,0
230755,431.079,-868.694,0,0
231016,424.72,-868.853,0,0
231276,418.495,-868.688,0,0
231536,412.355,-868.122,0,0
231797,406.547,-867.375,0,0
232057,400.926,-866.469,0,0
232317,395.503,-865.585,0,0
232578,390.249,-864.563,0,0
232838,385.132,-863.512,0,0
233098,380.117,-862.592,0,0
233359,375.11,-861.571,0,0
233619,370.26,-860.451,0,0
233879,365.52,-859.275,0,0
234140,360.961,-858.196,0,0
234400,356.344,-857.287,0,0
234660.3,351.546,-856.264,0,0
234920.625,346.775,-855.152,0,0
235180.95,341.987,-853.965,0,0
235441.275,337.275,-852.764,0,0
235701.6,332.544,-851.559,0,0
235961.925,327.63,-850.228,0,0
236222.25,322.668,-848.825,0,0
236482.575,317.721,-847.183,0,0
236742.9,312.801,-845.337,0,0
237003.225,307.99,-843.307,0,0
237263.55,303.211,-841.169,0,0
237523.875,298.564,-838.903,0,0
237784.2,293.953,-836.63,0,0
238044.525,289.298,-834.16,0,0
238304.85,284.67,-831.454,0,0
238565.175,280.22,-828.671,0,0
238825.5,275.795,-825.576,0,0
239085.825,271.582,-822.383,0,0
239346.15,267.443,-819.013,0,0
239606.475,263.518,-815.359,0,0
239866.8,259.912,-811.548,0,0
240127.125,256.574,-807.859,0,0
240387.45,253.391,-804.031,0,0
240647.775,250.498,-800.16,0,0
240908.1,247.823,-796.361,0,0
241168.425,245.387,-792.467,0,0
241428.75,243.036,-788.703,0,0
241689.075,241.042,-785.248,0,0
241949.4,238.851,-781.607,0,0
242209.725,236.823,-777.879,0,0
242470.05,235.15,-774.079,0,0
242730.375,233.748,-770.378,0,0
242990.7,232.549,-766.899,0,0
243251.025,231.397,-763.731,0,0
243511.35,230.23,-760.46,0,0
243771.675,229.216,-757.22,0,0
244032.0,228.351,-754.105,0,0
244292.325,227.807,-751.183,0,0
244552.65,227.217,-748.553,0,0
244812.975,226.6,-746.099,0,0
245073.3,225.749,-743.924,0,0
245333.625,224.833,-741.524,0,0
245593.95,223.856,-739.296,0,0
245854.275,222.765,-736.89,0,0
246114.6,221.785,-734.455,0,0
246374.925,220.918,-731.979,0,0
246635.25,220.088,-729.574,0,0
246895.575,219.323,-727.227,0,0
247155.9,218.524,-724.972,0,0
247416.225,217.738,-722.601,0,0
247676.55,216.953,-720.256,0,0
247936.875,216.278,-717.844,0,0
248197.2,215.576,-715.481,0,0
248457.525,215.065,-713.039,0,0
248717.85,214.753,-710.55,0,0
248978.175,214.624,-708.182,0,0
249238.5,214.641,-706.136,0,0
249498.825,214.538,-704.29,0,0
249759.15,214.473,-702.446,0,0
250019.475,214.44,-700.85,0,0
250279.8,214.224,-699.213,0,0
250540,214.164,-697.837,0,0
250800,213.878,-696.548,0,0
251061,213.466,-695.422,0,0
251321,212.915,-694.332,0,0
251581,212.167,-693.318,0,0
251842,211.104,-692.197,0,0
252102,209.874,-690.951,0,0
252362,208.577,-689.479,0,0
252623,207.157,-687.892,0,0
252883,205.706,-686.088,0,0
253143,204.234,-684.058,0,0
253404,202.802,-681.83,0,0
253664,201.284,-679.261,0,0
253924,200.068,-676.513,0,0
254185,199.016,-673.504,0,0
254445,198.265,-670.362,0,0
254705,197.804,-667.199,0,0
254966,197.556,-664.058,0,0
255226,197.43,-660.918,0,0
255486,197.431,-657.782,0,0
255747,197.651,-654.497,0,0
256007,198.062,-651.061,0,0
256267,198.914,-647.621,0,0
256528,200.154,-644.248,0,0
256788,201.75,-641.141,0,0
257048,203.596,-638.315,0,0
257309,205.616,-635.703,0,0
257569,207.895,-633.383,0,0
257829,210.333,-631.485,0,0
258090,212.726,-630.004,0,0
258350,214.936,-628.862,0,0
258610,216.923,-627.908,0,0
258871,218.69,-626.887,0,0
259131,220.505,-625.814,0,0
259391,222.388,-624.635,0,0
259651,224.499,-623.39,0,0
259912,226.92,-622.305,0,0
260172,229.652,-621.552,0,0
260432,232.601,-621.2,0,0
260693,235.594,-621.345,0,0
260953,238.513,-621.893,0,0
261213,241.265,-622.789,0,0
261474,243.936,-624.115,0,0
261734,246.45,-625.838,0,0
261994,248.613,-627.976,0,0
262255,250.425,-630.389,0,0
262515,251.85,-633.058,0,0
262775,252.816,-635.894,0,0
263036,253.388,-638.845,0,0
263296,253.453,-641.844,0,0
263556,253.166,-644.772,0,0
263817,252.477,-647.635,0,0
264077,251.38,-650.411,0,0
264337,249.983,-653.071,0,0
264598,248.253,-655.477,0,0
264858,246.161,-657.652,0,0
265118,243.973,-659.675,0,0
265379,241.395,-661.457,0,0
265639,238.576,-663.084,0,0
265899,235.427,-664.171,0,0
266160,232.172,-664.855,0,0
266420,228.962,-665.069,0,0
266680.25,225.869,-664.98,0,0
266940.575,222.798,-664.514,0,0
267200.9,219.865,-663.834,0,0
267461.225,217.002,-662.873,0,0
267721.55,214.332,-661.613,0,0
267981.875,211.768,-660.173,0,0
268242.2,209.527,-658.556,0,0
268502.525,207.455,-656.7,0,0
268762.85,205.622,-654.764,0,0
269023.175,204.035,-652.8,0,0
269283.5,202.658,-650.788,0,0
269543.825,201.483,-648.855,0,0
269804.15,200.493,-647.021,0,0
270064.475,199.61,-645.082,0,0
270324.8,198.827,-643.234,0,0
270585.125,198.097,-641.486,0,0
270845.45,197.445,-639.624,0,0
271105.775,196.932,-637.749,0,0
271366.1,196.676,-635.834,0,0
271626.425,196.533,-634.088,0,0
271886.75,196.474,-632.477,0,0
272147.075,196.413,-630.958,0,0
272407.4,196.438,-629.451,0,0
272667.725,196.496,-628.047,0,0
272928.05,196.623,-626.739,0,0
273188.375,196.701,-625.545,0,0
273448.7,196.758,-624.291,0,0
273709.025,196.765,-623.093,0,0
273969.35,196.804,-621.808,0,0
274229.675,196.863,-620.49,0,0
274490.0,197.016,-619.097,0,0
274750.325,197.289,-617.612,0,0
275010.65,197.756,-616.178,0,0
275270.975,198.441,-614.81,0,0
275531.3,199.172,-613.518,0,0
275791.625,200.012,-612.336,0,0
276051.95,200.939,-611.182,0,0
276312.275,202.039,-610.085,0,0
276572.6,203.358,-609.051,0,0
276832.925,204.903,-608.246,0,0
277093.25,206.601,-607.715,0,0
277353.575,208.432,-607.546,0,0
277613.9,210.254,-607.803,0,0
277874.225,211.96,-608.448,0,0
278134.55,213.44,-609.377,0,0
278394.875,214.693,-610.566,0,0
278655.2,215.731,-611.923,0,0
278915.525,216.482,-613.418,0,0
279175.85,217.069,-615.037,0,0
279436.175,217.322,-616.847,0,0
279696.5,217.343,-618.748,0,0
279956.825,216.912,-620.633,0,0
280217.15,216.234,-622.532,0,0
280477.475,215.104,-624.238,0,0
280737.8,213.665,-625.677,0,0
280998.125,212.064,-626.801,0,0
281258.45,210.413,-627.611,0,0
281518.775,208.862,-628.197,0,0
281779.1,207.374,-628.658,0,0
282039.425,205.937,-629.051,0,0
282299.75,204.475,-629.373,0,0
282560,203.018,-629.663,0,0
282820,201.561,-629.954,0,0
283081,199.983,-630.198,0,0
283341,198.288,-630.328,0,0
283601,196.537,-630.316,0,0
283862,194.76,-630.114,0,0
284122,192.994,-629.723,0,0
284382,191.375,-629.237,0,0
284643,189.781,-628.661,0,0
284903,188.269,-628.048,0,0
285163,186.751,-627.318,0,0
285424,185.209,-626.57,0,0
285684,183.743,-625.719,0,0
285944,182.298,-624.74,0,0
286205,180.925,-623.657,0,0
286465,179.613,-622.516,0,0
286725,178.358,-621.263,0,0
286986,177.181,-619.845,0,0
287246,176.199,-618.305,0,0
287506,175.396,-616.701,0,0
287767,174.826,-615.056,0,0
288027,174.453,-613.432,0,0
288287,174.314,-611.89,0,0
288548,174.341,-610.481,0,0
288808,174.505,-609.204,0,0
289068,174.819,-608.077,0,0
289329,175.237,-607.197,0,0
289589,175.621,-606.55,0,0
289849,175.927,-606.142,0,0
290109,176.134,-605.894,0,0
290370,176.091,-605.659,0,0
290630,175.979,-605.447,0,0
290890,175.79,-605.181,0,0
291151,175.531,-604.896,0,0
291411,175.227,-604.599,0,0
291671,174.921,-604.293,0,0
291932,174.567,-603.938,0,0
292192,174.149,-603.587,0,0
292452,173.768,-603.183,0,0
292713,173.334,-602.749,0,0
292973,172.878,-602.208,0,0
293233,172.484,-601.598,0,0
293494,172.134,-600.879,0,0
293754,171.914,-600.095,0,0
294014,171.877,-599.307,0,0
294275,172.02,-598.596,0,0
294535,172.253,-597.986,0,0
294795,172.581,-597.497,0,0
295056,172.953,-597.167,0,0
295316,173.341,-596.939,0,0
295576,173.817,-596.897,0,0
295837,174.254,-597.024,0,0
296097,174.619,-597.345,0,0
296357,174.836,-597.845,0,0
296618,174.928,-598.382,0,0
296878,174.878,-599.008,0,0
297138,174.729,-599.672,0,0
297399,174.449,-600.4,0,0
297659,174.06,-601.144,0,0
297919,173.514,-601.907,0,0
298180,172.832,-602.694,0,0
298440,171.989,-603.452,0,0
298700.2,171.008,-604.147,0,0
298960.525,169.891,-604.764,0,0
299220.85,168.683,-605.252,0,0
299481.175,167.399,-605.611,0,0
299741.5,166.077,-605.878,0,0
300001.825,164.761,-606.071,0,0
300262.15,163.447,-606.175,0,0
300522.475,162.083,-606.224,0,0
300782.8,160.738,-606.232,0,0
301043.125,159.362,-606.141,0,0
301303.45,157.954,-606.012,0,0
301563.775,156.545,-605.837,0,0
301824.1,155.13,-605.603,0,0
302084.425,153.666,-605.277,0,0
302344.75,152.223,-604.855,0,0
302605.075,150.786,-604.368,0,0
302865.4,149.374,-603.803,0,0
303125.725,148.012,-603.176,0,0
303386.05,146.663,-602.494,0,0
303646.375,145.37,-601.789,0,0
303906.7,144.086,-601.008,0,0
304167.025,142.837,-600.197,0,0
304427.35,141.605,-599.335,0,0
304687.675,140.424,-598.41,0,0
304948.0,139.31,-597.394,0,0
305208.325,138.244,-596.366,0,0
305468.65,137.281,-595.351,0,0
305728.975,136.371,-594.33,0,0
305989.3,135.508,-593.305,0,0
306249.625,134.644,-592.284,0,0
306509.95,133.807,-591.231,0,0
306770.275,133.021,-590.131,0,0
307030.6,132.334,-589.027,0,0
307290.925,131.725,-587.907,0,0
307551.25,131.215,-586.821,0,0
307811.575,130.776,-585.789,0,0
308071.9,130.414,-584.807,0,0
308332.225,130.065,-583.917,0,0
308592.55,129.75,-583.134,0,0
308852.875,129.401,-582.433,0,0
309113.2,129.025,-581.793,0,0
309373.525,128.616,-581.172,0,0
309633.85,128.152,-580.618,0,0
309894.175,127.628,-580.07,0,0
310154.5,127.072,-579.543,0,0
310414.825,126.435,-579.013,0,0
310675.15,125.741,-578.444,0,0
310935.475,125.006,-577.882,0,0
311195.8,124.251,-577.209,0,0
311456.125,123.467,-576.531,0,0
311716.45,122.687,-575.774,0,0
311976.775,121.925,-575.019,0,0
312237.1,121.157,-574.243,0,0
312497.425,120.355,-573.44,0,0
312757.75,119.558,-572.581,0,0
313018.075,118.714,-571.649,0,0
313278.4,117.897,-570.644,0,0
313538.725,117.097,-569.567,0,0
313799.05,116.364,-568.397,0,0
314059.375,115.693,-567.164,0,0
314319.7,115.109,-565.905,0,0
314580,114.6,-564.56,0,0
314840,114.096,-563.315,0,0
315101,113.877,-561.947,0,0
315361,113.578,-560.49,0,0
315621,113.525,-559.242,0,0
315882,113.46,-558.013,0,0
316142,113.546,-556.761,0,0
316402,113.676,-555.628,0,0
316663,113.936,-554.524,0,0
316923,114.133,-553.595,0,0
317183,114.398,-552.794,0,0
317444,114.71,-551.935,0,0
317704,114.924,-551.21,0,0
317964,115.208,-550.708,0,0
318225,115.42,-550.136,0,0
318485,115.547,-549.682,0,0
318745,115.628,-549.233,0,0
319006,115.714,-548.805,0,0
319266,115.698,-548.438,0,0
319526,115.607,-547.978,0,0
319787,115.59,-547.537,0,0
320047,115.532,-547.027,0,0
320307,115.484,-546.578,0,0
320567,115.333,-546.163,0,0
320828,115.346,-545.665,0,0
321088,115.307,-545.245,0,0
321348,115.34,-544.766,0,0
321609,115.308,-544.257,0,0
321869,115.439,-543.92,0,0
322129,115.45,-543.493,0,0
322390,115.595,-543.181,0,0
322650,115.662,-542.997,0,0
322910,115.726,-542.959,0,0
323171,115.799,-542.837,0,0
323431,115.75,-542.861,0,0
323691,115.605,-542.895,0,0
323952,115.395,-542.999,0,0
324212,115.186,-543.088,0,0
324472,114.846,-543.145,0,0
324733,114.513,-543.291,0,0
324993,114.025,-543.349,0,0
325253,113.587,-543.488,0,0
325514,112.933,-543.568,0,0
325774,112.324,-543.596,0,0
326034,111.611,-543.584,0,0
326295,110.881,-543.573,0,0
326555,110.094,-543.526,0,0
326815,109.265,-543.392,0,0
327076,108.397,-543.13,0,0
327336,107.587,-542.901,0,0
327596,106.664,-542.62,0,0
327857,105.829,-542.204,0,0
328117,104.932,-541.816,0,0
328377,104.114,-541.4,0,0
328638,103.341,-540.89,0,0
328898,102.509,-540.401,0,0
329158,101.788,-539.848,0,0
329419,101.034,-539.366,0,0
329679,100.299,-538.93,0,0
329939,99.5031,-538.405,0,0
330200,98.7745,-537.954,0,0
330460,97.9533,-537.485,0,0
330720.15,97.1692,-536.973,0,0
330980.475,96.2963,-536.416,0,0
331240.8,95.4175,-535.931,0,0
331501.125,94.5374,-535.263,0,0
331761.45,93.6532,-534.632,0,0
332021.775,92.7938,-534.002,0,0
332282.1,91.8691,-533.259,0,0
332542.425,90.956,-532.528,0,0
332802.75,90.0399,-531.762,0,0
333063.075,89.129,-530.91,0,0
333323.4,88.2964,-530.095,0,0
333583.725,87.3588,-529.142,0,0
333844.05,86.5042,-528.197,0,0
334104.375,85.6902,-527.249,0,0
334364.7,84.8736,-526.211,0,0
334625.025,84.0418,-525.136,0,0
334885.35,83.2435,-524.09,0,0
335145.675,82.508,-522.831,0,0
335406.0,81.8178,-521.678,0,0
335666.325,81.1645,-520.457,0,0
335926.65,80.5959,-519.19,0,0
336186.975,80.1268,-517.94,0,0
336447.3,79.6052,-516.645,0,0
336707.625,79.1295,-515.385,0,0
336967.95,78.6965,-514.134,0,0
337228.275,78.42,-512.889,0,0
337488.6,78.0844,-511.604,0,0
337748.925,77.8198,-510.463,0,0
338009.25,77.5038,-509.246,0,0
338269.575,77.2015,-507.991,0,0
338529.9,76.9604,-506.737,0,0
338790.225,76.7354,-505.501,0,0
339050.55,76.5751,-504.18,0,0
339310.875,76.4456,-502.82,0,0
339571.2,76.3631,-501.511,0,0
339831.525,76.4151,-500.206,0,0
340091.85,76.4732,-498.922,0,0
340352.175,76.6099,-497.569,0,0
340612.5,76.822,-496.305,0,0
340872.825,77.1331,-495.102,0,0
341133.15,77.4636,-493.922,0,0
341393.475,77.9049,-492.859,0,0
341653.8,78.3061,-491.845,0,0
341914.125,78.7922,-490.922,0,0
342174.45,79.2515,-490.046,0,0
342434.775,79.7538,-489.295,0,0
342695.1,80.2468,-488.571,0,0
342955.425,80.7749,-487.944,0,0
343215.75,81.2001,-487.406,0,0
343476.075,81.6526,-486.944,0,0
343736.4,81.9591,-486.514,0,0
343996.725,82.2679,-486.163,0,0
344257.05,82.4775,-485.769,0,0
344517.375,82.7018,-485.475,0,0
344777.7,82.7999,-485.148,0,0
345038.025,82.8391,-484.859,0,0
345298.35,82.8489,-484.594,0,0
345558.675,82.8809,-484.185,0,0
345819.0,82.7787,-483.813,0,0
346079.325,82.6277,-483.416,0,0
346339.65,82.565,-483.003,0,0
346599.975,82.4492,-482.586,0,0
346860,82.2948,-482.171,0,0
347121,82.1234,-481.718,0,0
347381,81.9407,-481.168,0,0
347641,81.7485,-480.602,0,0
347902,81.5307,-480.054,0,0
348162,81.3435,-479.405,0,0
348422,81.164,-478.727,0,0
348683,81.0521,-478.02,0,0
348943,81.0428,-477.306,0,0
349203,81.0263,-476.603,0,0
349464,81.0666,-475.884,0,0
349724,81.1362,-475.23,0,0
349984,81.2626,-474.555,0,0
350245,81.3569,-473.901,0,0
350505,81.5173,-473.293,0,0
350765,81.6828,-472.693,0,0
351025,81.9717,-472.177,0,0
351286,82.2192,-471.721,0,0
351546,82.4201,-471.331,0,0
351806,82.6562,-470.981,0,0
352067,82.8658,-470.731,0,0
352327,83.0087,-470.442,0,0
352587,83.1568,-470.227,0,0
352848,83.2804,-470.089,0,0
353108,83.2486,-470.03,0,0
353368,83.2102,-469.958,0,0
353629,83.0642,-469.863,0,0
353889,82.8313,-469.776,0,0
354149,82.5128,-469.617,0,0
354410,82.1399,-469.439,0,0
354670,81.7226,-469.173,0,0
354930,81.2479,-468.934,0,0
355191,80.8121,-468.49,0,0
355451,80.3916,-468.057,0,0
355711,79.9492,-467.546,0,0
355972,79.5791,-467.021,0,0
356232,79.2065,-466.472,0,0
356492,78.8144,-465.868,0,0
356753,78.496,-465.258,0,0
357013,78.2147,-464.61,0,0
357273,77.901,-463.897,0,0
357534,77.6444,-463.305,0,0
357794,77.4096,-462.642,0,0
358054,77.231,-461.994,0,0
358315,77.008,-461.361,0,0
358575,76.8071,-460.646,0,0
358835,76.6297,-459.976,0,0
359096,76.3583,-459.301,0,0
359356,76.2129,-458.65,0,0
359616,76.0643,-457.856,0,0
359877,75.905,-457.152,0,0
360137,75.8625,-456.378,0,0
360397,75.7675,-455.673,0,0
360658,75.7559,-454.95,0,0
360918,75.748,-454.191,0,0
361178,75.6968,-453.44,0,0
361438,75.724,-452.76,0,0
361699,75.7661,-452.127,0,0
361959,75.8777,-451.419,0,0
362219,75.9518,-450.717,0,0
362480,76.0354,-449.989,0,0
362740.1,76.1967,-449.372,0,0
363000.425,76.3858,-448.748,0,0
363260.75,76.4771,-448.123,0,0
363521.075,76.7134,-447.601,0,0
363781.4,76.9221,-447.057,0,0
364041.725,77.1535,-446.555,0,0
364302.05,77.3299,-446.033,0,0
364562.375,77.6412,-445.615,0,0
364822.7,77.9078,-445.124,0,0
365083.025,78.1932,-444.842,0,0
365343.35,78.4671,-444.549,0,0
365603.675,78.7355,-444.363,0,0
365864.0,78.8767,-444.248,0,0
366124.325,79.0607,-444.185,0,0
366384.65,79.1952,-444.208,0,0
366644.975,79.1725,-444.208,0,0
366905.3,79.015,-444.298,0,0
367165.625,78.7535,-444.356,0,0
367425.95,78.3518,-444.34,0,0
367686.275,77.8683,-444.253,0,0
367946.6,77.2705,-444.122,0,0
368206.925,76.6492,-443.756,0,0
368467.25,76.0134,-443.285,0,0
368727.575,75.4158,-442.689,0,0
368987.9,74.7914,-442.037,0,0
369248.225,74.2096,-441.191,0,0
369508.55,73.8437,-440.233,0,0
369768.875,73.5602,-439.197,0,0
370029.2,73.4319,-438.156,0,0
370289.525,73.4737,-437.141,0,0
370549.85,73.6792,-436.127,0,0
370810.175,73.9523,-435.301,0,0
371070.5,74.3249,-434.52,0,0
371330.825,74.7781,-433.861,0,0
371591.15,75.1731,-433.445,0,0
371851.475,75.5998,-433.076,0,0
372111.8,75.9376,-432.844,0,0
372372.125,76.2235,-432.744,0,0
372632.45,76.3219,-432.635,0,0
372892.775,76.3446,-432.566,0,0
373153.1,76.2762,-432.47,0,0
373413.425,76.1352,-432.341,0,0
373673.75,75.8532,-432.157,0,0
373934.075,75.5661,-431.949,0,0
374194.4,75.2419,-431.649,0,0
374454.725,74.8874,-431.275,0,0
374715.05,74.6044,-430.737,0,0
374975.375,74.2701,-430.295,0,0
375235.7,73.9748,-429.784,0,0
375496.025,73.6998,-429.222,0,0
375756.35,73.3979,-428.671,0,0
376016.675,73.1753,-428.031,0,0
376277.0,72.9307,-427.389,0,0
376537.325,72.7952,-426.598,0,0
376797.65,72.6676,-425.932,0,0
377057.975,72.5389,-425.186,0,0
377318.3,72.527,-424.444,0,0
377578.625,72.5233,-423.708,0,0
377838.95,72.6119,-423,0,0
378099.275,72.6724,-422.276,0,0
378359.6,72.8227,-421.643,0,0
378619.925,73.0231,-421,0,0
378880,73.2404,-420.414,0,0
379141,73.4136,-419.87,0,0
379401,73.6487,-419.334,0,0
379661,73.8053,-418.882,0,0
379922,74.0486,-418.432,0,0
380182,74.1903,-418.023,0,0
380442,74.3851,-417.633,0,0
380703,74.5244,-417.255,0,0
380963,74.6858,-416.879,0,0
381223,74.8285,-416.52,0,0
381483,74.9747,-416.104,0,0
381744,75.1322,-415.805,0,0
382004,75.2567,-415.498,0,0
382264,75.3851,-415.226,0,0
382525,75.5571,-415.025,0,0
382785,75.7077,-414.841,0,0
383045,75.7828,-414.733,0,0
383306,75.7323,-414.586,0,0
383566,75.6762,-414.479,0,0
383826,75.5774,-414.348,0,0
384087,75.4293,-414.212,0,0
384347,75.1648,-414.014,0,0
384607,74.9183,-413.73,0,0
384868,74.6006,-413.501,0,0
385128,74.3294,-413.153,0,0
385388,74.0365,-412.764,0,0
385649,73.7598,-412.401,0,0
385909,73.4378,-411.984,0,0
386169,73.1408,-411.505,0,0
386430,72.8817,-410.984,0,0
386690,72.5769,-410.474,0,0
386950,72.3578,-409.874,0,0
387211,72.0914,-409.293,0,0
387471,71.8746,-408.646,0,0
387731,71.688,-408.013,0,0
387992,71.511,-407.382,0,0
388252,71.3469,-406.699,0,0
388512,71.2288,-406.032,0,0
388773,71.1425,-405.347,0,0
389033,71.0466,-404.624,0,0
389293,71.0007,-403.911,0,0
389554,70.9721,-403.2,0,0
389814,70.9669,-402.411,0,0
390074,71.0155,-401.731,0,0
390335,71.0454,-400.932,0,0
390595,71.1812,-400.153,0,0
390855,71.3428,-399.426,0,0
391116,71.5356,-398.699,0,0
391376,71.7387,-397.93,0,0
391636,71.9816,-397.284,0,0
391896,72.2573,-396.556,0,0
392157,72.6131,-395.928,0,0
392417,72.9488,-395.281,0,0
392677,73.3092,-394.648,0,0
392938,73.677,-394.076,0,0
393198,74.1278,-393.503,0,0
393458,74.5316,-393.019,0,0
393719,75.0155,-392.535,0,0
393979,75.5117,-392.138,0,0
394239,75.9982,-391.749,0,0
394500,76.5012,-391.426,0,0
394760.05,76.9798,-391.146,0,0
395020.375,77.4567,-390.911,0,0
395280.7,77.9217,-390.732,0,0
395541.025,78.3816,-390.598,0,0
395801.35,78.8,-390.505,0,0
396061.675,79.2382,-390.454,0,0
396322.0,79.6062,-390.419,0,0
396582.325,79.9499,-390.471,0,0
396842.65,80.2628,-390.514,0,0
397102.975,80.5169,-390.615,0,0
397363.3,80.7111,-390.703,0,0
397623.625,80.8771,-390.837,0,0
397883.95,80.9499,-390.992,0,0
398144.275,81.0204,-391.142,0,0
398404.6,81.0193,-391.283,0,0
398664.925,81.0104,-391.397,0,0
398925.25,80.9596,-391.532,0,0
399185.575,80.8015,-391.675,0,0
399445.9,80.6127,-391.798,0,0
399706.225,80.3193,-391.841,0,0
399966.55,80.1016,-391.864,0,0
400006.6,80.0238,-391.899,0,0