File: Accelerated corrosion test data/2025-09-30_06-00-03/sample_1.csv
Frequency (Hz),Impedance (ohms),Phase (Radians),Temperature (C),Humidity (%)
10000.0,239.417,-12223.6,0,0
10260.325,240.776,-11908.3,0,0
10520.65,229.863,-11629,0,0
10780.975,224.213,-11344.7,0,0
11041.3,219.82,-11084.3,0,0
11301.625,213.936,-10826.5,0,0
11561.95,210.632,-10582.4,0,0
11822.275,206.984,-10342.6,0,0
12082.6,223.766,-10110.8,0,0
12342.925,206.897,-9935.96,0,0
12603.25,194.08,-9725.49,0,0
12863.575,190.138,-9523.38,0,0
13123.9,196.257,-9329.81,0,0
13384.225,184.186,-9158.25,0,0
13644.55,181.535,-8977.33,0,0
13904.875,180.959,-8799.06,0,0
14165.2,186.827,-8659.21,0,0
14425.525,214.365,-8495.26,0,0
14685.8,201.921,-8328.45,0,0
14946.175,178.59,-8231.92,0,0
15206.5,179.181,-8070.02,0,0
15466.825,176.111,-7942.17,0,0
15727.15,169.831,-7822.86,0,0
15987.5,159.803,-7688.58,0,0
16247.8,156.442,-7562.71,0,0
16508.125,155.08,-7439.51,0,0
16768.45,159.335,-7322.56,0,0
17028.775,163.012,-7216.85,0,0
17289.1,152.129,-7110.88,0,0
17549.425,152.186,-7004.23,0,0
17809.75,150.247,-6904.96,0,0
18070.075,145.243,-6806.19,0,0
18330.4,140.166,-6707.56,0,0
18590.725,137.649,-6612.91,0,0
18851.05,137.862,-6515.23,0,0
19111.375,135.437,-6433.76,0,0
19371.7,132.386,-6341.48,0,0
19632.025,131.645,-6252.73,0,0
19892.35,132.954,-6166.61,0,0
20152.675,135.719,-6079.33,0,0
20413.0,154.629,-5991.97,0,0
20673.3,166.524,-5949.42,0,0
20933.65,151.61,-5881.28,0,0
21193.975,156.53,-5814.41,0,0
21454.3,147,-5743.04,0,0
21714.625,137.663,-5677.79,0,0
21974.9,135.329,-5590.82,0,0
22235.275,174.432,-5543.78,0,0
22495.6,142.506,-5505.86,0,0
22755.925,127.605,-5436.44,0,0
23016.25,123.172,-5369.17,0,0
23276.6,119.206,-5308.53,0,0
23536.9,115.455,-5247.72,0,0
23797.225,112.5,-5185.87,0,0
24057.55,114.506,-5125.09,0,0
24317.875,112.479,-5076.75,0,0
24578.2,111.199,-5017.07,0,0
24838.525,110.299,-4966.64,0,0
25098.85,111.047,-4912.76,0,0
25359.175,106.06,-4863.69,0,0
25619.5,104.416,-4812.09,0,0
25879.8,103.394,-4760.38,0,0
26140.1,103.054,-4711.43,0,0
26400.5,102.172,-4661.5,0,0
26660.8,105.532,-4610.95,0,0
26921.1,113.651,-4564.79,0,0
27181.4,120.679,-4528.39,0,0
27441.8,112.516,-4496.03,0,0
27702.1,104.308,-4446.59,0,0
27962.4,111.964,-4397.49,0,0
28222.7,110.584,-4360.12,0,0
28483.1,121.141,-4314.27,0,0
28743.4,131.548,-4296.24,0,0
29003.7,115.705,-4263.06,0,0
29264,118.58,-4225.57,0,0
29524.4,107.003,-4191.41,0,0
29784.7,104.965,-4150.63,0,0
30045,101.539,-4118.15,0,0
30305.3,99.7076,-4078.76,0,0
30565.7,97.2792,-4040.72,0,0
30826,100.579,-4005.71,0,0
31086.3,103.291,-3976.62,0,0
31346.6,99.0126,-3947.56,0,0
31607,94.1236,-3910.94,0,0
31867.3,97.399,-3876.43,0,0
32127.6,98.6731,-3846.14,0,0
32387.9,97.7249,-3820.77,0,0
32648.3,93.3969,-3788.44,0,0
32908.6,95.4314,-3759.52,0,0
33168.9,90.8454,-3731.24,0,0
33429.2,88.8199,-3703.04,0,0
33689.6,86.1073,-3672.84,0,0
33949.9,85.3203,-3642.08,0,0
34210.2,86.6626,-3615.9,0,0
34470.5,84.4093,-3588.55,0,0
34730.9,82.2828,-3560.58,0,0
34991.2,81.595,-3533.79,0,0
35251.5,80.6658,-3506.66,0,0
35511.8,79.5432,-3480.4,0,0
35772.2,79.331,-3455.06,0,0
36032.5,77.981,-3429.44,0,0
36292.8,77.1584,-3403.68,0,0
36553.1,76.6533,-3379.18,0,0
36813.5,76.3747,-3354.3,0,0
37073.8,76.2084,-3330.51,0,0
37334.1,75.4822,-3306.89,0,0
37594.4,75.3545,-3283.65,0,0
37854.8,74.4116,-3260.94,0,0
38115.1,73.9089,-3237.96,0,0
38375.4,73.133,-3215.02,0,0
38635.7,72.724,-3193.22,0,0
38896.1,72.4334,-3170.95,0,0
39156.4,72.4469,-3149.19,0,0
39416.7,72.6518,-3128.51,0,0
39677,71.6475,-3107.56,0,0
39937.4,71.3498,-3086.31,0,0
40197.7,71.4115,-3065.83,0,0
40458,70.8261,-3045.51,0,0
40718.3,71.0194,-3024.81,0,0
40978.7,72.3889,-3005.61,0,0
41239,72.1489,-2987.22,0,0
41499.3,71.8455,-2969.37,0,0
41759.6,70.8032,-2950.51,0,0
42020,69.9845,-2931.07,0,0
42280.275,70.7577,-2912.46,0,0
42540.6,71.4552,-2895.22,0,0
42800.925,70.1755,-2878.15,0,0
43061.25,69.5868,-2859.72,0,0
43321.575,68.9308,-2842.94,0,0
43581.9,68.6927,-2825.45,0,0
43842.225,68.0614,-2807.47,0,0
44102.55,68.3417,-2790.05,0,0
44362.875,69.0245,-2773.2,0,0
44623.2,69.3498,-2757.59,0,0
44883.525,68.5214,-2741.98,0,0
45143.85,68.639,-2725.86,0,0
45404.175,69.0767,-2710.66,0,0
45664.5,68.0332,-2695.78,0,0
45924.825,67.3371,-2680.14,0,0
46185.15,66.6024,-2665.33,0,0
46445.475,65.7569,-2649.89,0,0
46705.8,65.2465,-2634.51,0,0
46966.125,64.7399,-2619.78,0,0
47226.45,64.5874,-2604.25,0,0
47486.775,64.6428,-2590.45,0,0
47747.1,64.1065,-2575.98,0,0
48007.425,63.3934,-2561.85,0,0
48267.75,63.4218,-2547.61,0,0
48528.075,62.5514,-2534.05,0,0
48788.4,61.7879,-2519.78,0,0
49048.725,61.5572,-2505.64,0,0
49309.05,61.4507,-2492.06,0,0
49569.375,61.0099,-2478.53,0,0
49829.7,60.8661,-2465.43,0,0
50090.025,60.3962,-2452.23,0,0
50350.35,60.022,-2439.01,0,0
50610.675,59.6944,-2425.77,0,0
50871.0,59.4182,-2412.65,0,0
51131.325,59.4052,-2400.07,0,0
51391.65,59.2144,-2387.81,0,0
51651.975,58.7289,-2375.33,0,0
51912.3,58.5048,-2362.72,0,0
52172.625,58.3002,-2350.44,0,0
52432.95,58.0723,-2338.48,0,0
52693.275,57.7024,-2326.34,0,0
52953.6,57.7361,-2314.22,0,0
53213.925,57.8607,-2302.41,0,0
53474.25,57.5771,-2290.9,0,0
53734.575,57.5018,-2279.39,0,0
53994.9,57.4919,-2268.33,0,0
54255.225,56.9972,-2257.15,0,0
54515.55,56.6939,-2245.9,0,0
54775.875,56.1776,-2234.68,0,0
55036.2,55.9849,-2223.37,0,0
55296.525,56.1246,-2212.18,0,0
55556.85,56.0742,-2201.59,0,0
55817.175,55.6805,-2191.11,0,0
56077.5,55.2803,-2180.26,0,0
56337.825,55.2714,-2169.49,0,0
56598.15,55.1991,-2159.1,0,0
56858.475,54.8849,-2148.62,0,0
57118.8,54.8083,-2138.34,0,0
57379.125,54.7454,-2127.89,0,0
57639.45,54.8714,-2117.79,0,0
57899.775,54.8602,-2107.93,0,0
58160.1,54.7205,-2097.87,0,0
58420.4,54.5588,-2088.21,0,0
58680.7,54.4204,-2078.38,0,0
58941.1,54.4663,-2068.63,0,0
59201.4,54.5947,-2059.02,0,0
59461.7,54.6372,-2049.76,0,0
59722,54.3499,-2040.49,0,0
59982.4,54.3085,-2031.03,0,0
60242.7,54.2565,-2021.76,0,0
60503,54.4429,-2012.46,0,0
60763.3,54.6373,-2003.72,0,0
61023.7,54.0837,-1995.28,0,0
61284,53.746,-1985.97,0,0
61544.3,53.5967,-1977,0,0
61804.6,53.8922,-1968.18,0,0
62065,53.3177,-1959.91,0,0
62325.3,52.9227,-1951.07,0,0
62585.6,52.8013,-1942.11,0,0
62845.9,52.792,-1933.25,0,0
63106.3,52.6381,-1924.68,0,0
63366.6,52.7463,-1916.08,0,0
63626.9,52.7861,-1907.55,0,0
63887.2,52.9306,-1899.24,0,0
64147.6,52.9635,-1890.74,0,0
64407.9,53.1259,-1882.54,0,0
64668.2,53.1123,-1874.16,0,0
64928.5,53.4642,-1865.95,0,0
65188.9,54.0639,-1857.7,0,0
65449.2,55.0319,-1850.21,0,0
65709.5,55.6561,-1843.19,0,0
65969.8,55.5006,-1836.12,0,0
66230.2,55.2505,-1828.92,0,0
66490.5,54.6661,-1821.34,0,0
66750.8,55.3036,-1814.54,0,0
67011.1,54.4699,-1807.52,0,0
67271.5,53.8409,-1799.28,0,0
67531.8,54.5437,-1791.77,0,0
67792.1,54.9482,-1784.99,0,0
68052.4,54.517,-1778.57,0,0
68312.8,53.7784,-1771.37,0,0
68573.1,53.5113,-1763.87,0,0
68833.4,53.654,-1756.75,0,0
69093.7,53.6994,-1750.15,0,0
69354.1,53.4505,-1743.19,0,0
69614.4,53.1274,-1736.78,0,0
69874.7,52.2969,-1729.95,0,0
70135,52.1102,-1722.9,0,0
70395.4,51.606,-1716.18,0,0
70655.7,51.0789,-1709.11,0,0
70916,50.7925,-1702.08,0,0
71176.3,50.832,-1695.23,0,0
71436.7,50.5438,-1688.84,0,0
71697,49.9294,-1682.22,0,0
71957.3,49.3908,-1675.21,0,0
72217.6,49.2226,-1668.24,0,0
72478,48.9558,-1661.64,0,0
72738.3,48.6822,-1654.7,0,0
72998.6,48.6569,-1647.85,0,0
73258.9,48.62,-1641.19,0,0
73519.3,48.5007,-1634.65,0,0
73779.6,48.39,-1627.94,0,0
74039.9,48.516,-1621.35,0,0
74300.225,48.4958,-1614.92,0,0
74560.55,48.4943,-1608.4,0,0
74820.875,48.7119,-1602.01,0,0
75081.2,48.6969,-1595.91,0,0
75341.525,48.5965,-1589.6,0,0
75601.85,48.7222,-1583.09,0,0
75862.175,48.9816,-1576.68,0,0
76122.5,49.389,-1570.53,0,0
76382.825,49.7713,-1564.66,0,0
76643.15,49.7947,-1558.8,0,0
76903.475,49.8474,-1552.75,0,0
77163.8,50.1848,-1546.77,0,0
77424.125,50.2862,-1541.09,0,0
77684.45,50.4181,-1535.1,0,0
77944.775,50.6979,-1529.16,0,0
78205.1,51.1594,-1523.34,0,0
78465.425,51.7851,-1517.82,0,0
78725.75,52.1389,-1512.64,0,0
78986.075,52.1883,-1507.43,0,0
79246.4,52.1792,-1502.21,0,0
79506.725,52.2162,-1496.86,0,0
79767.05,51.9582,-1491.76,0,0
80027.375,51.7317,-1486.41,0,0
80287.7,51.386,-1481.04,0,0
80548.025,51.1986,-1475.28,0,0
80808.35,51.2224,-1469.82,0,0
81068.675,51.1646,-1464.22,0,0
81329.0,51.1899,-1458.8,0,0
81589.325,51.2486,-1453.31,0,0
81849.65,51.2379,-1448,0,0
82109.975,51.2321,-1442.55,0,0
82370.3,51.3426,-1437.16,0,0
82630.625,51.3747,-1431.78,0,0
82890.95,51.4537,-1426.29,0,0
83151.275,51.8281,-1420.8,0,0
83411.6,52.1285,-1415.52,0,0
83671.925,52.525,-1410.23,0,0
83932.25,52.9094,-1405,0,0
84192.575,53.2832,-1400.02,0,0
84452.9,53.6682,-1395.02,0,0
84713.225,54.106,-1389.98,0,0
84973.55,54.5331,-1385.04,0,0
85233.875,54.9565,-1380.38,0,0
85494.2,55.2324,-1375.63,0,0
85754.525,55.4454,-1371.01,0,0
86014.85,55.5067,-1366.13,0,0
86275.175,55.9724,-1361.22,0,0
86535.5,56.2784,-1356.74,0,0
86795.825,56.4294,-1352.04,0,0
87056.15,56.7196,-1347.28,0,0
87316.475,57.1346,-1342.95,0,0
87576.8,57.0123,-1338.61,0,0
87837.125,56.857,-1333.91,0,0
88097.45,56.8504,-1329,0,0
88357.775,56.8674,-1324.1,0,0
88618.1,57.2723,-1319.18,0,0
88878.425,57.4317,-1314.44,0,0
89138.75,57.4995,-1309.71,0,0
89399.075,57.9433,-1304.27,0,0
89659.4,58.8346,-1299.29,0,0
89919.725,59.4666,-1294.4,0,0
90180,60.5569,-1289.63,0,0
90440.4,61.5352,-1285.23,0,0
90700.7,61.9858,-1280.94,0,0
90961,62.9194,-1276.07,0,0
91221.3,64.2035,-1271.43,0,0
91481.7,65.6121,-1267.23,0,0
91742,67.0458,-1263.29,0,0
92002.3,68.4143,-1259.44,0,0
92262.6,69.5506,-1255.74,0,0
92523,70.8449,-1251.92,0,0
92783.3,72.5989,-1248.47,0,0
93043.6,74.0173,-1245.45,0,0
93303.9,75.9518,-1242.54,0,0
93564.3,77.8175,-1240.57,0,0
93824.6,78.9294,-1239.81,0,0
94084.9,78.6976,-1239.25,0,0
94345.2,76.8817,-1238.09,0,0
94605.6,74.8198,-1235.28,0,0
94865.9,73.9128,-1232.42,0,0
95126.2,71.8789,-1229.45,0,0
95386.5,70.2249,-1225.55,0,0
95646.9,68.8637,-1221.51,0,0
95907.2,67.7502,-1217.22,0,0
96167.5,67.2547,-1212.74,0,0
96427.8,67.0565,-1208.89,0,0
96688.2,66.199,-1205.21,0,0
96948.5,65.3329,-1200.95,0,0
97208.8,64.7656,-1196.42,0,0
97469.1,64.6364,-1191.97,0,0
97729.5,64.6784,-1187.8,0,0
97989.8,64.7184,-1183.83,0,0
98250.1,64.6926,-1180.1,0,0
98510.4,64.3168,-1176.22,0,0
98770.8,64.0407,-1172.15,0,0
99031.1,63.8818,-1168.11,0,0
99291.4,63.7259,-1163.98,0,0
99551.7,63.5737,-1159.87,0,0
99812.1,63.7187,-1155.63,0,0
100072,64.0148,-1151.65,0,0
100333,64.065,-1147.89,0,0
100593,64.0816,-1143.96,0,0
100853,64.1562,-1140.15,0,0
101114,64.0566,-1136.31,0,0
101374,64.0405,-1132.47,0,0
101634,63.5832,-1128.58,0,0
101895,63.1251,-1124.13,0,0
102155,63.0646,-1119.22,0,0
102415,63.5824,-1114.31,0,0
102676,64.4912,-1109.72,0,0
102936,65.4375,-1105.46,0,0
103196,66.4101,-1101.24,0,0
103457,67.3629,-1097.25,0,0
103717,68.069,-1093.07,0,0
103977,69.4954,-1088.63,0,0
104238,71.2269,-1084.85,0,0
104498,72.8343,-1081.5,0,0
104758,74.0398,-1078.3,0,0
105019,75.1318,-1075.01,0,0
105279,76.3078,-1071.57,0,0
105539,77.6198,-1068.25,0,0
105800,79.0486,-1065.02,0,0
106060,80.3958,-1062.03,0,0
106320.175,81.7075,-1059.08,0,0
106580.5,83.1614,-1056.17,0,0
106840.825,84.7401,-1053.48,0,0
107101.15,86.1547,-1051.11,0,0
107361.475,87.3625,-1049,0,0
107621.8,88.2995,-1046.81,0,0
107882.125,89.1089,-1044.44,0,0
108142.45,90.2141,-1042.05,0,0
108402.775,91.2924,-1039.92,0,0
108663.1,92.3211,-1037.86,0,0
108923.425,93.2973,-1036.11,0,0
109183.75,93.8825,-1034.45,0,0
109444.075,94.2439,-1032.73,0,0
109704.4,94.4821,-1030.9,0,0
109964.725,94.7224,-1029.11,0,0
110225.05,94.7101,-1027.13,0,0
110485.375,94.6455,-1025.03,0,0
110745.7,94.7109,-1022.88,0,0
111006.025,94.5649,-1020.42,0,0
111266.35,94.8596,-1017.95,0,0
111526.675,95.2862,-1015.54,0,0
111787.0,95.6543,-1013.35,0,0
112047.325,96.102,-1011.23,0,0
112307.65,96.5273,-1009.31,0,0
112567.975,97.0051,-1007.46,0,0
112828.3,97.3397,-1005.91,0,0
113088.625,97.3293,-1004.37,0,0
113348.95,97.3042,-1002.75,0,0
113609.275,97.0707,-1001.17,0,0
113869.6,96.8716,-999.613,0,0
114129.925,96.27,-998.25,0,0
114390.25,95.5093,-996.535,0,0
114650.575,94.6849,-994.718,0,0
114910.9,93.7722,-992.743,0,0
115171.225,93.0946,-990.759,0,0
115431.55,92.1025,-988.841,0,0
115691.875,90.827,-986.772,0,0
115952.2,89.5451,-984.256,0,0
116212.525,88.537,-981.5,0,0
116472.85,87.6954,-978.823,0,0
116733.175,86.7822,-976.131,0,0
116993.5,85.8775,-973.407,0,0
117253.825,84.9618,-970.382,0,0
117514.15,84.2651,-967.34,0,0
117774.475,83.5401,-964.319,0,0
118034.8,82.9202,-961.14,0,0
118295.125,82.4733,-957.89,0,0
118555.45,82.1641,-954.693,0,0
118815.775,81.9981,-951.583,0,0
119076.1,81.8489,-948.482,0,0
119336.425,81.8248,-945.34,0,0
119596.75,81.854,-942.385,0,0
119857.075,81.8443,-939.563,0,0
120117.4,81.9591,-936.608,0,0
120377.725,82.2079,-933.869,0,0
120638.05,82.2527,-931.2,0,0
120898.375,82.2954,-928.797,0,0
121158.7,82.1865,-926.29,0,0
121419.025,82.0819,-923.797,0,0
121679.35,81.7646,-921.378,0,0
121939.675,81.2776,-918.745,0,0
122200.0,80.9814,-915.965,0,0
122460,80.6236,-913.243,0,0
122721,80.1491,-910.377,0,0
122981,79.8386,-907.283,0,0
123241,79.6574,-904.23,0,0
123502,79.6208,-901.231,0,0
123762,79.5531,-898.307,0,0
124022,79.4128,-895.313,0,0
124283,79.4398,-892.168,0,0
124543,79.5927,-889.233,0,0
124803,79.7464,-886.312,0,0
125064,79.8153,-883.378,0,0
125324,79.9605,-880.428,0,0
125584,80.1761,-877.478,0,0
125845,80.3682,-874.639,0,0
126105,80.561,-871.726,0,0
126365,80.7327,-868.877,0,0
126626,81.0222,-866.046,0,0
126886,81.1677,-863.13,0,0
127146,81.2373,-860.207,0,0
127406,81.6183,-857.35,0,0
127667,81.8845,-854.285,0,0
127927,82.2086,-851.185,0,0
128187,82.6811,-848.1,0,0
128448,83.3394,-845.16,0,0
128708,84.0059,-842.34,0,0
128968,84.6795,-839.587,0,0
129229,85.2283,-836.69,0,0
129489,85.8805,-833.865,0,0
129749,86.5269,-831.032,0,0
130010,87.4266,-828.166,0,0
130270,88.3833,-825.377,0,0
130530,89.4549,-822.726,0,0
130791,90.5465,-820.282,0,0
131051,91.6103,-817.967,0,0
131311,92.583,-815.734,0,0
131572,93.5398,-813.665,0,0
131832,94.3084,-811.555,0,0
132092,95.0572,-809.451,0,0
132353,95.8453,-807.371,0,0
132613,96.5054,-805.379,0,0
132873,97.2104,-803.323,0,0
133134,97.8698,-801.295,0,0
133394,98.4752,-799.313,0,0
133654,99.0723,-797.342,0,0
133915,99.6118,-795.399,0,0
134175,100.037,-793.473,0,0
134435,100.416,-791.448,0,0
134696,100.775,-789.351,0,0
134956,101.146,-787.082,0,0
135216,101.658,-784.784,0,0
135477,102.343,-782.635,0,0
135737,102.956,-780.505,0,0
135997,103.511,-778.218,0,0
136258,104.362,-776.027,0,0
136518,105.2,-773.993,0,0
136778,106.002,-772.023,0,0
137039,106.845,-770.025,0,0
137299,107.678,-768.197,0,0
137559,108.779,-766.35,0,0
137819,109.846,-764.982,0,0
138080,110.649,-763.815,0,0
138340.125,111.166,-762.711,0,0
138600.45,111.296,-761.732,0,0
138860.775,111.216,-760.412,0,0
139121.1,111.097,-758.862,0,0
139381.425,111.035,-757.155,0,0
139641.75,111.052,-755.505,0,0
139902.075,110.916,-753.872,0,0
140162.4,110.684,-752.069,0,0
140422.725,110.449,-750.097,0,0
140683.05,110.318,-747.953,0,0
140943.375,110.251,-745.856,0,0
141203.7,110.21,-743.602,0,0
141464.025,110.354,-741.327,0,0
141724.35,110.572,-739.156,0,0
141984.675,110.774,-736.916,0,0
142245.0,111.171,-734.72,0,0
142505.325,111.527,-732.757,0,0
142765.65,111.701,-730.792,0,0
143025.975,111.915,-728.74,0,0
143286.3,112.077,-726.713,0,0
143546.625,112.146,-724.722,0,0
143806.95,112.139,-722.526,0,0
144067.275,112.18,-720.138,0,0
144327.6,112.453,-717.739,0,0
144587.925,112.79,-715.396,0,0
144848.25,113.1,-713.055,0,0
145108.575,113.509,-710.655,0,0
145368.9,114.032,-708.239,0,0
145629.225,114.671,-705.872,0,0
145889.55,115.408,-703.634,0,0
146149.875,116.074,-701.56,0,0
146410.2,116.616,-699.431,0,0
146670.525,117.34,-697.243,0,0
146930.85,118.254,-695.214,0,0
147191.175,118.967,-693.516,0,0
147451.5,119.481,-691.718,0,0
147711.825,120.034,-689.882,0,0
147972.15,120.541,-688.117,0,0
148232.475,120.929,-686.366,0,0
148492.8,121.224,-684.528,0,0
148753.125,121.481,-682.649,0,0
149013.45,121.774,-680.593,0,0
149273.775,122.192,-678.628,0,0
149534.1,122.588,-676.728,0,0
149794.425,122.904,-674.932,0,0
150054.75,123.153,-673.053,0,0
150315.075,123.305,-671.122,0,0
150575.4,123.434,-669.262,0,0
150835.725,123.47,-667.332,0,0
151096.05,123.326,-665.339,0,0
151356.375,123.047,-663.07,0,0
151616.7,122.894,-660.607,0,0
151877.025,122.816,-658.081,0,0
152137.35,122.745,-655.394,0,0
152397.675,122.758,-652.54,0,0
152658.0,122.939,-649.564,0,0
152918.325,123.185,-646.564,0,0
153178.65,123.728,-643.485,0,0
153438.975,124.277,-640.618,0,0
153699.3,124.648,-637.765,0,0
153959.625,124.963,-634.543,0,0
154219.95,125.496,-631.117,0,0
154480,126.197,-627.522,0,0
154741,127.169,-623.701,0,0
155001,128.745,-619.841,0,0
155261,130.59,-616.376,0,0
155522,132.489,-613.073,0,0
155782,134.518,-609.821,0,0
156042,136.693,-606.788,0,0
156303,138.941,-603.894,0,0
156563,141.15,-600.991,0,0
156823,143.692,-598.126,0,0
157084,146.386,-595.599,0,0
157344,149.1,-593.356,0,0
157604,151.756,-591.325,0,0
157864,154.252,-589.489,0,0
158125,156.691,-587.802,0,0
158385,158.728,-586.24,0,0
158645,160.539,-584.351,0,0
158906,162.388,-582.15,0,0
159166,164.618,-579.618,0,0
159426,167.24,-577.079,0,0
159687,170.138,-574.909,0,0
159947,172.905,-572.928,0,0
160207,175.885,-570.618,0,0
160468,179.374,-568.502,0,0
160728,183.282,-566.857,0,0
160988,187.218,-565.91,0,0
161249,190.812,-565.32,0,0
161509,194.174,-565.074,0,0
161769,197.295,-564.787,0,0
162030,200.353,-564.463,0,0
162290,203.456,-564.381,0,0
162550,206.248,-564.393,0,0
162811,208.979,-564.292,0,0
163071,211.872,-564.167,0,0
163331,214.936,-564.161,0,0
163592,218.189,-564.644,0,0
163852,221.018,-565.638,0,0
164112,223.373,-566.677,0,0
164373,225.303,-567.348,0,0
164633,227.519,-567.667,0,0
164893,230.098,-568.157,0,0
165154,232.771,-568.828,0,0
165414,235.709,-569.79,0,0
165674,238.59,-571.504,0,0
165935,241.043,-573.59,0,0
166195,243.046,-575.946,0,0
166455,244.602,-578.389,0,0
166716,245.874,-580.804,0,0
166976,246.818,-583.473,0,0
167236,247.155,-586.018,0,0
167497,247.189,-588.221,0,0
167757,247.183,-590.237,0,0
168017,247.068,-592.356,0,0
168277,246.538,-594.46,0,0
168538,245.761,-596.234,0,0
168798,244.9,-597.89,0,0
169058,243.852,-599.439,0,0
169319,242.59,-600.943,0,0
169579,240.885,-602.313,0,0
169839,238.719,-603.089,0,0
170100,236.784,-603.165,0,0
170360.075,235.136,-602.951,0,0
170620.4,233.733,-602.532,0,0
170880.725,232.599,-601.993,0,0
171141.05,231.724,-601.624,0,0
171401.375,230.856,-601.474,0,0
171661.7,229.795,-601.316,0,0
171922.025,228.575,-601.231,0,0
172182.35,226.955,-600.836,0,0
172442.675,225.469,-599.977,0,0
172703.0,224.17,-598.869,0,0
172963.325,223.067,-597.649,0,0
173223.65,222.158,-596.416,0,0
173483.975,221.329,-595.191,0,0
173744.3,220.418,-593.702,0,0
174004.625,219.844,-592.019,0,0
174264.95,219.679,-590.341,0,0
174525.275,219.727,-588.913,0,0
174785.6,219.831,-587.569,0,0
175045.925,220.162,-586.346,0,0
175306.25,220.648,-585.402,0,0
175566.575,221.072,-584.916,0,0
175826.9,221.097,-584.733,0,0
176087.225,220.716,-584.368,0,0
176347.55,220.303,-583.66,0,0
176607.875,220.14,-582.934,0,0
176868.2,219.976,-582.438,0,0
177128.525,219.578,-582.077,0,0
177388.85,218.876,-581.497,0,0
177649.175,218.27,-580.629,0,0
177909.5,217.887,-579.715,0,0
178169.825,217.619,-578.984,0,0
178430.15,217.237,-578.352,0,0
178690.475,216.85,-577.724,0,0
178950.8,216.417,-577.106,0,0
179211.125,216,-576.762,0,0
179471.45,215.159,-576.475,0,0
179731.775,214.281,-575.962,0,0
179992.1,213.242,-575.539,0,0
180252.425,211.955,-575.194,0,0
180512.75,210.251,-574.402,0,0
180773.075,208.686,-573.263,0,0
181033.4,207.33,-572.051,0,0
181293.725,205.747,-570.925,0,0
181554.05,204.066,-569.484,0,0
181814.375,202.511,-567.81,0,0
182074.7,200.974,-566.155,0,0
182335.025,199.286,-564.383,0,0
182595.35,197.385,-562.378,0,0
182855.675,195.536,-559.843,0,0
183116.0,194.066,-556.951,0,0
183376.325,192.933,-554.105,0,0
183636.65,191.89,-551.213,0,0
183896.975,190.825,-548.279,0,0
184157.3,189.978,-545.075,0,0
184417.625,189.449,-541.909,0,0
184677.95,189.089,-538.784,0,0
184938.275,188.849,-535.682,0,0
185198.6,188.677,-532.613,0,0
185458.925,188.548,-529.585,0,0
185719.25,188.431,-526.482,0,0
185979.575,188.477,-523.294,0,0
186239.9,188.721,-520.193,0,0
186500,188.952,-517.172,0,0
186761,189.254,-514.125,0,0
187021,189.627,-511.096,0,0
187281,190.093,-508.056,0,0
187542,190.608,-505.088,0,0
187802,191.162,-502.188,0,0
188062,191.601,-499.303,0,0
188322,192.033,-496.302,0,0
188583,192.527,-493.205,0,0
188843,192.97,-490.026,0,0
189103,193.706,-486.649,0,0
189364,194.484,-483.327,0,0
189624,195.524,-479.844,0,0
189884,196.705,-476.578,0,0
190145,198.04,-473.507,0,0
190405,199.266,-470.487,0,0
190665,200.408,-467.422,0,0
190926,201.657,-464.183,0,0
191186,203.102,-461.089,0,0
191446,204.545,-458.057,0,0
191707,205.908,-455.014,0,0
191967,207.295,-451.892,0,0
192227,208.882,-448.744,0,0
192488,210.47,-445.789,0,0
192748,211.876,-442.799,0,0
193008,213.243,-439.656,0,0
193269,214.667,-436.218,0,0
193529,216.329,-432.665,0,0
193789,218.369,-429.117,0,0
194050,220.417,-425.802,0,0
194310,222.366,-422.54,0,0
194570,224.331,-419.106,0,0
194831,226.267,-415.514,0,0
195091,228.565,-411.718,0,0
195351,231.132,-407.894,0,0
195612,233.832,-404.142,0,0
195872,236.756,-400.619,0,0
196132,239.69,-397.16,0,0
196393,242.595,-393.499,0,0
196653,245.69,-389.759,0,0
196913,249.091,-385.904,0,0
197174,252.932,-382.194,0,0
197434,257.031,-378.742,0,0
197694,261.148,-375.615,0,0
197955,265.181,-372.713,0,0
198215,269.231,-369.799,0,0
198475,273.302,-366.899,0,0
198735,277.269,-364.164,0,0
198996,281.261,-361.222,0,0
199256,285.378,-358.177,0,0
199516,289.644,-355.078,0,0
199777,294.014,-351.959,0,0
200037,298.506,-348.87,0,0
200297,303.13,-345.562,0,0
200558,308.035,-342.049,0,0
200818,313.491,-338.502,0,0
201078,319.214,-335.041,0,0
201339,325.42,-331.746,0,0
201599,332.067,-328.668,0,0
201859,338.928,-325.792,0,0
202120,346.081,-323.188,0,0
202380.025,353.505,-320.771,0,0
202640.35,361.39,-318.683,0,0
202900.675,369.4,-316.997,0,0
203161.0,377.484,-315.555,0,0
203421.325,385.97,-314.346,0,0
203681.65,394.756,-313.355,0,0
203941.975,403.903,-312.728,0,0
204202.3,413.563,-312.494,0,0
204462.625,423.78,-312.942,0,0
204722.95,434.351,-314.318,0,0
204983.275,445.006,-316.849,0,0
205243.6,455.382,-320.383,0,0
205503.925,465.408,-324.6,0,0
205764.25,475.063,-329.739,0,0
206024.575,484.363,-335.716,0,0
206284.9,492.827,-342.243,0,0
206545.225,500.622,-349.129,0,0
206805.55,507.944,-356.383,0,0
207065.875,514.663,-364.102,0,0
207326.2,520.66,-372.305,0,0
207586.525,525.747,-380.762,0,0
207846.85,529.909,-389.15,0,0
208107.175,533.466,-397.281,0,0
208367.5,536.566,-405.35,0,0
208627.825,539.121,-413.368,0,0
208888.15,541.158,-421.369,0,0
209148.475,542.559,-429.404,0,0
209408.8,543.199,-437.281,0,0
209669.125,542.977,-444.696,0,0
209929.45,542.297,-451.499,0,0
210189.775,541.179,-457.664,0,0
210450.1,539.74,-463.305,0,0
210710.425,538.184,-468.336,0,0
210970.75,536.37,-472.826,0,0
211231.075,534.22,-476.681,0,0
211491.4,532.106,-479.54,0,0
211751.725,530.362,-481.614,0,0
212012.05,529.229,-482.937,0,0
212272.375,528.62,-483.822,0,0
212532.7,528.882,-484.372,0,0
212793.025,530.044,-485.051,0,0
213053.35,531.649,-486.131,0,0
213313.675,533.482,-487.627,0,0
213574.0,535.418,-489.287,0,0
213834.325,537.548,-490.988,0,0
214094.65,539.973,-492.823,0,0
214354.975,542.748,-495.001,0,0
214615.3,545.662,-497.684,0,0
214875.625,548.411,-500.894,0,0
215135.95,550.894,-504.484,0,0
215396.275,553.003,-508.052,0,0
215656.6,554.948,-511.714,0,0
215916.925,556.545,-515.626,0,0
216177.25,557.56,-519.325,0,0
216437.575,558.244,-522.365,0,0
216697.9,559.151,-524.714,0,0
216958.225,560.724,-526.586,0,0
217218.55,563.055,-528.591,0,0
217478.875,565.689,-531.019,0,0
217739.2,568.538,-533.699,0,0
217999.525,571.517,-536.687,0,0
218259.85,574.592,-539.981,0,0
218520,577.468,-543.523,0,0
218780,580.45,-546.903,0,0
219041,583.625,-550.37,0,0
219301,587.225,-554.129,0,0
219561,591.018,-558.386,0,0
219822,594.87,-562.904,0,0
220082,598.736,-567.934,0,0
220342,602.483,-573.38,0,0
220603,606.177,-579.177,0,0
220863,609.754,-585.174,0,0
221123,613.547,-591.68,0,0
221384,617.046,-598.822,0,0
221644,620.306,-606.475,0,0
221904,623.09,-614.427,0,0
222165,625.764,-622.779,0,0
222425,628.103,-631.402,0,0
222685,630.039,-640.595,0,0
222946,631.517,-650.138,0,0
223206,632.426,-659.787,0,0
223466,632.894,-669.963,0,0
223727,632.695,-680.447,0,0
223987,631.558,-690.979,0,0
224247,629.692,-701.428,0,0
224508,627.493,-711.801,0,0
224768,624.606,-721.626,0,0
225028,621.567,-731.528,0,0
225289,618.014,-741.577,0,0
225549,613.969,-751.96,0,0
225809,609.124,-761.932,0,0
226070,603.411,-771.597,0,0
226330,597.11,-780.92,0,0
226590,590.631,-789.801,0,0
226851,583.384,-798.353,0,0
227111,575.761,-806.402,0,0
227371,567.628,-813.885,0,0
227632,559.339,-820.631,0,0
227892,550.988,-826.761,0,0
228152,542.435,-832.785,0,0
228413,533.698,-838.145,0,0
228673,524.833,-843.071,0,0
228933,515.831,-847.602,0,0
229193,506.83,-851.483,0,0
229454,497.798,-855.038,0,0
229714,488.617,-858.157,0,0
229974,479.42,-860.851,0,0
230235,470.032,-863.011,0,0
230495,460.811,-864.3,0,0
230755,451.962,-864.994,0,0
231016,443.218,-865.439,0,0
231276,434.819,-865.345,0,0
231536,426.821,-864.881,0,0
231797,419.147,-864.033,0,0
232057,412.053,-862.944,0,0
232317,405.399,-861.896,0,0
232578,399.058,-860.88,0,0
232838,392.934,-859.927,0,0
233098,386.945,-858.954,0,0
233359,381.068,-857.913,0,0
233619,375.346,-856.68,0,0
233879,369.95,-855.559,0,0
234140,364.725,-854.516,0,0
234400,359.517,-853.516,0,0
234660.3,354.267,-852.428,0,0
234920.625,349.186,-851.156,0,0
235180.95,344.249,-850,0,0
235441.275,339.323,-849.012,0,0
235701.6,334.353,-847.857,0,0
235961.925,329.354,-846.696,0,0
236222.25,324.346,-845.196,0,0
236482.575,319.605,-843.45,0,0
236742.9,315.126,-841.627,0,0
237003.225,310.891,-839.945,0,0
237263.55,306.882,-838.284,0,0
237523.875,302.993,-836.873,0,0
237784.2,298.909,-835.54,0,0
238044.525,294.898,-834.359,0,0
238304.85,290.751,-833.135,0,0
238565.175,286.544,-831.87,0,0
238825.5,282.176,-830.517,0,0
239085.825,277.708,-828.849,0,0
239346.15,273.312,-827.092,0,0
239606.475,268.917,-825.172,0,0
239866.8,264.744,-823.156,0,0
240127.125,260.585,-820.861,0,0
240387.45,256.658,-818.685,0,0
240647.775,252.905,-816.176,0,0
240908.1,249.278,-813.626,0,0
241168.425,245.766,-811.182,0,0
241428.75,242.272,-808.748,0,0
241689.075,238.922,-806.176,0,0
241949.4,235.717,-803.58,0,0
242209.725,232.738,-800.996,0,0
242470.05,229.891,-798.37,0,0
242730.375,227.08,-795.759,0,0
242990.7,224.483,-793.225,0,0
243251.025,222.024,-790.745,0,0
243511.35,219.605,-788.411,0,0
243771.675,217.138,-786.121,0,0
244032.0,214.731,-783.913,0,0
244292.325,212.36,-781.721,0,0
244552.65,210.002,-779.554,0,0
244812.975,207.583,-777.419,0,0
245073.3,205.169,-775.355,0,0
245333.625,202.669,-773.106,0,0
245593.95,200.202,-770.792,0,0
245854.275,197.858,-768.527,0,0
246114.6,195.561,-766.133,0,0
246374.925,193.229,-763.719,0,0
246635.25,190.931,-761.306,0,0
246895.575,188.761,-758.816,0,0
247155.9,186.753,-756.377,0,0
247416.225,184.696,-753.856,0,0
247676.55,182.748,-751.329,0,0
247936.875,180.82,-748.749,0,0
248197.2,179.033,-746.292,0,0
248457.525,177.304,-743.824,0,0
248717.85,175.643,-741.354,0,0
248978.175,173.974,-738.873,0,0
249238.5,172.394,-736.427,0,0
249498.825,170.725,-733.931,0,0
249759.15,169.196,-731.456,0,0
250019.475,167.731,-729.029,0,0
250279.8,166.316,-726.543,0,0
250540,164.856,-724.204,0,0
250800,163.503,-721.774,0,0
251061,162.185,-719.332,0,0
251321,160.836,-716.951,0,0
251581,159.526,-714.562,0,0
251842,158.254,-712.137,0,0
252102,157.016,-709.709,0,0
252362,155.784,-707.263,0,0
252623,154.634,-704.777,0,0
252883,153.516,-702.284,0,0
253143,152.395,-699.825,0,0
253404,151.344,-697.322,0,0
253664,150.266,-694.728,0,0
253924,149.277,-692.141,0,0
254185,148.46,-689.485,0,0
254445,147.667,-686.737,0,0
254705,147.013,-684.062,0,0
254966,146.446,-681.467,0,0
255226,145.973,-678.831,0,0
255486,145.6,-676.279,0,0
255747,145.248,-673.876,0,0
256007,144.886,-671.369,0,0
256267,144.629,-669.086,0,0
256528,144.278,-666.638,0,0
256788,144.078,-664.206,0,0
257048,143.899,-661.77,0,0
257309,143.772,-659.355,0,0
257569,143.735,-656.966,0,0
257829,143.76,-654.601,0,0
258090,143.884,-652.262,0,0
258350,144.051,-649.993,0,0
258610,144.267,-647.782,0,0
258871,144.477,-645.561,0,0
259131,144.777,-643.316,0,0
259391,145.134,-641.153,0,0
259651,145.555,-638.951,0,0
259912,146.106,-636.847,0,0
260172,146.753,-634.8,0,0
260432,147.466,-632.773,0,0
260693,148.235,-630.887,0,0
260953,149.089,-629.073,0,0
261213,149.955,-627.383,0,0
261474,150.867,-625.751,0,0
261734,151.792,-624.268,0,0
261994,152.681,-622.848,0,0
262255,153.602,-621.501,0,0
262515,154.49,-620.225,0,0
262775,155.425,-618.912,0,0
263036,156.376,-617.642,0,0
263296,157.419,-616.461,0,0
263556,158.537,-615.315,0,0
263817,159.693,-614.263,0,0
264077,160.947,-613.33,0,0
264337,162.268,-612.532,0,0
264598,163.539,-611.863,0,0
264858,164.991,-611.429,0,0
265118,166.363,-611.184,0,0
265379,167.708,-611.051,0,0
265639,168.985,-611.17,0,0
265899,170.185,-611.438,0,0
266160,171.251,-611.871,0,0
266420,172.293,-612.522,0,0
266680.25,173.12,-613.262,0,0
266940.575,173.862,-614.234,0,0
267200.9,174.379,-615.406,0,0
267461.225,174.628,-616.685,0,0
267721.55,174.607,-618.086,0,0
267981.875,174.248,-619.481,0,0
268242.2,173.543,-620.926,0,0
268502.525,172.517,-622.296,0,0
268762.85,171.201,-623.494,0,0
269023.175,169.593,-624.485,0,0
269283.5,167.733,-625.275,0,0
269543.825,165.703,-625.737,0,0
269804.15,163.477,-625.798,0,0
270064.475,161.337,-625.658,0,0
270324.8,159.194,-625.1,0,0
270585.125,157.165,-624.375,0,0
270845.45,155.24,-623.4,0,0
271105.775,153.421,-622.282,0,0
271366.1,151.737,-621.034,0,0
271626.425,150.096,-619.635,0,0
271886.75,148.659,-618.072,0,0
272147.075,147.382,-616.416,0,0
272407.4,146.268,-614.748,0,0
272667.725,145.307,-612.997,0,0
272928.05,144.48,-611.29,0,0
273188.375,143.782,-609.581,0,0
273448.7,143.185,-607.909,0,0
273709.025,142.723,-606.222,0,0
273969.35,142.338,-604.588,0,0
274229.675,142.013,-603.048,0,0
274490.0,141.63,-601.464,0,0
274750.325,141.396,-599.893,0,0
275010.65,141.272,-598.246,0,0
275270.975,141.264,-596.731,0,0
275531.3,141.287,-595.256,0,0
275791.625,141.4,-593.905,0,0
276051.95,141.528,-592.574,0,0
276312.275,141.614,-591.279,0,0
276572.6,141.763,-589.97,0,0
276832.925,141.982,-588.677,0,0
277093.25,142.275,-587.43,0,0
277353.575,142.682,-586.231,0,0
277613.9,143.117,-585.146,0,0
277874.225,143.571,-584.159,0,0
278134.55,144.06,-583.301,0,0
278394.875,144.512,-582.453,0,0
278655.2,145.009,-581.68,0,0
278915.525,145.526,-581.024,0,0
279175.85,146.073,-580.414,0,0
279436.175,146.548,-579.968,0,0
279696.5,147.101,-579.634,0,0
279956.825,147.456,-579.43,0,0
280217.15,147.872,-579.319,0,0
280477.475,148.051,-579.234,0,0
280737.8,148.155,-579.241,0,0
280998.125,148.124,-579.286,0,0
281258.45,147.965,-579.339,0,0
281518.775,147.655,-579.32,0,0
281779.1,147.284,-579.246,0,0
282039.425,146.87,-579.13,0,0
282299.75,146.422,-578.914,0,0
282560,145.947,-578.691,0,0
282820,145.421,-578.48,0,0
283081,144.828,-578.212,0,0
283341,144.183,-577.884,0,0
283601,143.478,-577.461,0,0
283862,142.785,-576.952,0,0
284122,142.195,-576.421,0,0
284382,141.604,-575.898,0,0
284643,140.95,-575.462,0,0
284903,140.202,-574.971,0,0
285163,139.334,-574.455,0,0
285424,138.41,-573.796,0,0
285684,137.461,-573.007,0,0
285944,136.575,-572.096,0,0
286205,135.718,-571.107,0,0
286465,134.896,-570.078,0,0
286725,134.028,-568.931,0,0
286986,133.215,-567.711,0,0
287246,132.442,-566.393,0,0
287506,131.735,-564.975,0,0
287767,131.118,-563.426,0,0
288027,130.582,-561.772,0,0
288287,130.227,-560.038,0,0
288548,130.044,-558.29,0,0
288808,130.006,-556.467,0,0
289068,130.233,-554.681,0,0
289329,130.684,-552.978,0,0
289589,131.311,-551.471,0,0
289849,131.979,-550.214,0,0
290109,132.684,-549.136,0,0
290370,133.324,-548.271,0,0
290630,133.887,-547.507,0,0
290890,134.305,-546.844,0,0
291151,134.642,-546.213,0,0
291411,134.842,-545.579,0,0
291671,134.998,-544.877,0,0
291932,135.17,-544.172,0,0
292192,135.289,-543.459,0,0
292452,135.36,-542.736,0,0
292713,135.384,-541.96,0,0
292973,135.442,-541.098,0,0
293233,135.543,-540.249,0,0
293494,135.639,-539.418,0,0
293754,135.67,-538.608,0,0
294014,135.656,-537.739,0,0
294275,135.59,-536.793,0,0
294535,135.529,-535.732,0,0
294795,135.507,-534.541,0,0
295056,135.606,-533.208,0,0
295316,135.803,-531.87,0,0
295576,136.161,-530.463,0,0
295837,136.644,-529.027,0,0
296097,137.296,-527.615,0,0
296357,138.102,-526.305,0,0
296618,139.057,-525.043,0,0
296878,140.096,-523.96,0,0
297138,141.149,-523.029,0,0
297399,142.193,-522.19,0,0
297659,143.22,-521.405,0,0
297919,144.249,-520.669,0,0
298180,145.282,-519.992,0,0
298440,146.331,-519.355,0,0
298700.2,147.419,-518.75,0,0
298960.525,148.45,-518.158,0,0
299220.85,149.597,-517.63,0,0
299481.175,150.721,-517.176,0,0
299741.5,151.996,-516.763,0,0
300001.825,153.206,-516.424,0,0
300262.15,154.455,-516.339,0,0
300522.475,155.662,-516.206,0,0
300782.8,156.741,-516.116,0,0
301043.125,157.878,-516.048,0,0
301303.45,159.06,-516.141,0,0
301563.775,160.163,-516.179,0,0
301824.1,161.286,-516.314,0,0
302084.425,162.496,-516.556,0,0
302344.75,163.626,-516.866,0,0
302605.075,164.783,-517.23,0,0
302865.4,165.887,-517.685,0,0
303125.725,166.857,-518.203,0,0
303386.05,167.854,-518.662,0,0
303646.375,168.85,-519.298,0,0
303906.7,169.764,-519.848,0,0
304167.025,170.785,-520.614,0,0
304427.35,171.671,-521.45,0,0
304687.675,172.498,-522.395,0,0
304948.0,173.078,-523.39,0,0
305208.325,173.603,-524.361,0,0
305468.65,174.232,-525.307,0,0
305728.975,174.666,-526.276,0,0
305989.3,175.13,-527.149,0,0
306249.625,175.539,-528.163,0,0
306509.95,175.962,-529.054,0,0
306770.275,176.296,-530.053,0,0
307030.6,176.724,-531.133,0,0
307290.925,177.022,-532.358,0,0
307551.25,177.326,-533.455,0,0
307811.575,177.454,-534.664,0,0
308071.9,177.629,-535.971,0,0
308332.225,177.597,-537.234,0,0
308592.55,177.551,-538.63,0,0
308852.875,177.322,-540.037,0,0
309113.2,177.069,-541.285,0,0
309373.525,176.763,-542.631,0,0
309633.85,176.346,-543.878,0,0
309894.175,175.863,-545.153,0,0
310154.5,175.237,-546.333,0,0
310414.825,174.684,-547.648,0,0
310675.15,174.042,-548.755,0,0
310935.475,173.308,-549.94,0,0
311195.8,172.466,-551.094,0,0
311456.125,171.689,-552.238,0,0
311716.45,170.952,-553.249,0,0
311976.775,170.002,-554.399,0,0
312237.1,169.071,-555.592,0,0
312497.425,167.965,-556.761,0,0
312757.75,166.752,-557.803,0,0
313018.075,165.462,-558.826,0,0
313278.4,164.137,-559.703,0,0
313538.725,162.819,-560.604,0,0
313799.05,161.413,-561.339,0,0
314059.375,159.98,-562.065,0,0
314319.7,158.432,-562.661,0,0
314580,156.938,-563.314,0,0
314840,155.423,-563.789,0,0
315101,153.9,-564.316,0,0
315361,152.336,-564.757,0,0
315621,150.743,-565.134,0,0
315882,149.146,-565.431,0,0
316142,147.554,-565.671,0,0
316402,145.939,-565.894,0,0
316663,144.259,-566.139,0,0
316923,142.522,-566.133,0,0
317183,140.782,-566.086,0,0
317444,139.002,-566.021,0,0
317704,137.291,-565.83,0,0
317964,135.625,-565.415,0,0
318225,133.992,-565.085,0,0
318485,132.48,-564.602,0,0
318745,131.025,-564.054,0,0
319006,129.592,-563.626,0,0
319266,128.148,-563.167,0,0
319526,126.725,-562.701,0,0
319787,125.376,-562.226,0,0
320047,123.991,-561.686,0,0
320307,122.51,-561.103,0,0
320567,121.063,-560.567,0,0
320828,119.597,-559.894,0,0
321088,118.234,-559.173,0,0
321348,116.84,-558.362,0,0
321609,115.352,-557.473,0,0
321869,114.012,-556.561,0,0
322129,112.761,-555.5,0,0
322390,111.423,-554.536,0,0
322650,110.288,-553.392,0,0
322910,109.238,-552.259,0,0
323171,108.132,-551.047,0,0
323431,107.292,-549.853,0,0
323691,106.422,-548.642,0,0
323952,105.597,-547.382,0,0
324212,104.911,-546.199,0,0
324472,104.361,-545.026,0,0
324733,103.802,-543.707,0,0
324993,103.324,-542.659,0,0
325253,102.98,-541.565,0,0
325514,102.633,-540.545,0,0
325774,102.33,-539.612,0,0
326034,102.053,-538.591,0,0
326295,101.705,-537.673,0,0
326555,101.391,-536.922,0,0
326815,101.209,-536.128,0,0
327076,101.03,-535.35,0,0
327336,100.873,-534.635,0,0
327596,100.598,-533.934,0,0
327857,100.453,-533.29,0,0
328117,100.198,-532.744,0,0
328377,100.032,-532.115,0,0
328638,99.8414,-531.621,0,0
328898,99.558,-531.16,0,0
329158,99.2822,-530.672,0,0
329419,98.9877,-530.193,0,0
329679,98.6988,-529.801,0,0
329939,98.3903,-529.335,0,0
330200,98.0602,-528.957,0,0
330460,97.7309,-528.675,0,0
330720.15,97.3038,-528.299,0,0
330980.475,96.9473,-527.968,0,0
331240.8,96.472,-527.659,0,0
331501.125,96.0656,-527.371,0,0
331761.45,95.5678,-527.045,0,0
332021.775,95.0999,-526.845,0,0
332282.1,94.4561,-526.498,0,0
332542.425,93.9012,-526.201,0,0
332802.75,93.3012,-525.839,0,0
333063.075,92.6502,-525.502,0,0
333323.4,91.9714,-525.191,0,0
333583.725,91.2893,-524.84,0,0
333844.05,90.6036,-524.387,0,0
334104.375,89.8631,-524.006,0,0
334364.7,89.157,-523.519,0,0
334625.025,88.3485,-523.067,0,0
334885.35,87.635,-522.514,0,0
335145.675,86.9268,-521.991,0,0
335406.0,86.1247,-521.504,0,0
335666.325,85.3985,-520.903,0,0
335926.65,84.6293,-520.314,0,0
336186.975,83.8579,-519.619,0,0
336447.3,83.1462,-518.997,0,0
336707.625,82.485,-518.222,0,0
336967.95,81.7288,-517.566,0,0
337228.275,81.0523,-516.86,0,0
337488.6,80.4071,-516.182,0,0
337748.925,79.7153,-515.429,0,0
338009.25,79.0004,-514.714,0,0
338269.575,78.3534,-513.962,0,0
338529.9,77.6787,-513.192,0,0
338790.225,77.03,-512.466,0,0
339050.55,76.3642,-511.603,0,0
339310.875,75.7378,-510.798,0,0
339571.2,75.1347,-510.001,0,0
339831.525,74.5654,-509.131,0,0
340091.85,74.0444,-508.312,0,0
340352.175,73.4997,-507.39,0,0
340612.5,72.967,-506.484,0,0
340872.825,72.496,-505.669,0,0
341133.15,72.03,-504.801,0,0
341393.475,71.5973,-503.973,0,0
341653.8,71.1577,-503.131,0,0
341914.125,70.7249,-502.287,0,0
342174.45,70.2918,-501.47,0,0
342434.775,69.809,-500.678,0,0
342695.1,69.4655,-499.827,0,0
342955.425,68.9711,-499,0,0
343215.75,68.5296,-498.242,0,0
343476.075,68.1827,-497.389,0,0
343736.4,67.7302,-496.561,0,0
343996.725,67.3006,-495.815,0,0
344257.05,66.8892,-494.968,0,0
344517.375,66.4781,-494.168,0,0
344777.7,66.0823,-493.311,0,0
345038.025,65.6495,-492.486,0,0
345298.35,65.2783,-491.631,0,0
345558.675,64.8148,-490.812,0,0
345819.0,64.3764,-489.905,0,0
346079.325,64.0122,-489.06,0,0
346339.65,63.6053,-488.171,0,0
346599.975,63.2361,-487.228,0,0
346860,62.8484,-486.298,0,0
347121,62.5411,-485.377,0,0
347381,62.2233,-484.444,0,0
347641,61.9146,-483.56,0,0
347902,61.6253,-482.633,0,0
348162,61.3373,-481.758,0,0
348422,61.0673,-480.795,0,0
348683,60.8198,-479.902,0,0
348943,60.5126,-478.891,0,0
349203,60.3303,-478.008,0,0
349464,60.1144,-477.031,0,0
349724,59.9444,-476.089,0,0
349984,59.7522,-475.181,0,0
350245,59.5814,-474.21,0,0
350505,59.4066,-473.314,0,0
350765,59.2922,-472.41,0,0
351025,59.2288,-471.506,0,0
351286,59.121,-470.668,0,0
351546,59.0657,-469.719,0,0
351806,58.9401,-468.923,0,0
352067,58.8766,-468.075,0,0
352327,58.8031,-467.213,0,0
352587,58.6652,-466.382,0,0
352848,58.5782,-465.607,0,0
353108,58.5323,-464.823,0,0
353368,58.3916,-463.976,0,0
353629,58.2783,-463.152,0,0
353889,58.2188,-462.242,0,0
354149,58.1361,-461.438,0,0
354410,58.0578,-460.596,0,0
354670,58.0189,-459.724,0,0
354930,57.9625,-458.902,0,0
355191,57.9466,-458.064,0,0
355451,57.9282,-457.266,0,0
355711,57.935,-456.39,0,0
355972,57.9513,-455.559,0,0
356232,57.9645,-454.744,0,0
356492,57.9354,-453.984,0,0
356753,57.9946,-453.143,0,0
357013,58.0239,-452.371,0,0
357273,58.1197,-451.616,0,0
357534,58.1375,-450.874,0,0
357794,58.2166,-450.143,0,0
358054,58.2598,-449.416,0,0
358315,58.3307,-448.692,0,0
358575,58.3899,-447.948,0,0
358835,58.3712,-447.319,0,0
359096,58.4043,-446.611,0,0
359356,58.4319,-445.885,0,0
359616,58.368,-445.065,0,0
359877,58.4497,-444.376,0,0
360137,58.489,-443.695,0,0
360397,58.5285,-442.977,0,0
360658,58.5667,-442.247,0,0
360918,58.6957,-441.507,0,0
361178,58.7362,-440.77,0,0
361438,58.8122,-440.11,0,0
361699,58.9078,-439.414,0,0
361959,58.9455,-438.729,0,0
362219,59.0191,-438.085,0,0
362480,59.0814,-437.476,0,0
362740.1,59.1353,-436.781,0,0
363000.425,59.1907,-436.149,0,0
363260.75,59.2131,-435.485,0,0
363521.075,59.2111,-434.851,0,0
363781.4,59.2795,-434.131,0,0
364041.725,59.3599,-433.455,0,0
364302.05,59.3733,-432.753,0,0
364562.375,59.3642,-432.052,0,0
364822.7,59.3601,-431.406,0,0
365083.025,59.3946,-430.642,0,0
365343.35,59.4711,-429.925,0,0
365603.675,59.5502,-429.217,0,0
365864.0,59.6375,-428.432,0,0
366124.325,59.6477,-427.688,0,0
366384.65,59.7792,-426.906,0,0
366644.975,59.9216,-426.217,0,0
366905.3,59.9944,-425.484,0,0
367165.625,60.1372,-424.741,0,0
367425.95,60.2193,-424.005,0,0
367686.275,60.3478,-423.244,0,0
367946.6,60.4567,-422.456,0,0
368206.925,60.5665,-421.685,0,0
368467.25,60.6915,-420.838,0,0
368727.575,60.8549,-419.964,0,0
368987.9,61.091,-419.09,0,0
369248.225,61.3263,-418.232,0,0
369508.55,61.6495,-417.283,0,0
369768.875,62.0324,-416.426,0,0
370029.2,62.4334,-415.531,0,0
370289.525,62.8812,-414.722,0,0
370549.85,63.4096,-413.881,0,0
370810.175,63.905,-413.094,0,0
371070.5,64.4728,-412.382,0,0
371330.825,65.0931,-411.696,0,0
371591.15,65.6635,-411.056,0,0
371851.475,66.2776,-410.454,0,0
372111.8,66.925,-409.864,0,0
372372.125,67.5613,-409.348,0,0
372632.45,68.2278,-408.867,0,0
372892.775,68.8603,-408.401,0,0
373153.1,69.5143,-408.007,0,0
373413.425,70.193,-407.578,0,0
373673.75,70.8378,-407.255,0,0
373934.075,71.504,-406.963,0,0
374194.4,72.1501,-406.721,0,0
374454.725,72.757,-406.531,0,0
374715.05,73.3905,-406.399,0,0
374975.375,73.9158,-406.286,0,0
375235.7,74.4321,-406.2,0,0
375496.025,74.928,-406.104,0,0
375756.35,75.3741,-406.058,0,0
376016.675,75.7715,-405.963,0,0
376277.0,76.189,-405.872,0,0
376537.325,76.5882,-405.807,0,0
376797.65,77.0169,-405.717,0,0
377057.975,77.4164,-405.647,0,0
377318.3,77.775,-405.579,0,0
377578.625,78.1883,-405.495,0,0
377838.95,78.5728,-405.508,0,0
378099.275,78.9085,-405.524,0,0
378359.6,79.2786,-405.512,0,0
378619.925,79.5548,-405.566,0,0
378880,79.8639,-405.604,0,0
379141,80.1688,-405.632,0,0
379401,80.4773,-405.644,0,0
379661,80.6829,-405.659,0,0
379922,81.0139,-405.719,0,0
380182,81.2997,-405.779,0,0
380442,81.5847,-405.817,0,0
380703,81.8532,-405.924,0,0
380963,82.1631,-406.028,0,0
381223,82.4084,-406.196,0,0
381483,82.7306,-406.376,0,0
381744,83.0134,-406.606,0,0
382004,83.2308,-406.857,0,0
382264,83.4823,-407.207,0,0
382525,83.6099,-407.643,0,0
382785,83.6729,-408.04,0,0
383045,83.7268,-408.497,0,0
383306,83.6949,-408.939,0,0
383566,83.5385,-409.382,0,0
383826,83.3315,-409.839,0,0
384087,83.0418,-410.248,0,0
384347,82.7472,-410.666,0,0
384607,82.2967,-411.008,0,0
384868,81.8281,-411.296,0,0
385128,81.3316,-411.564,0,0
385388,80.8374,-411.735,0,0
385649,80.3041,-411.897,0,0
385909,79.7534,-411.952,0,0
386169,79.2296,-412.048,0,0
386430,78.6345,-412.023,0,0
386690,78.0963,-411.997,0,0
386950,77.5103,-411.928,0,0
387211,76.932,-411.849,0,0
387471,76.287,-411.701,0,0
387731,75.7239,-411.501,0,0
387992,75.0795,-411.277,0,0
388252,74.5033,-410.961,0,0
388512,73.9504,-410.662,0,0
388773,73.404,-410.296,0,0
389033,72.9294,-409.837,0,0
389293,72.5017,-409.42,0,0
389554,72.1473,-408.96,0,0
389814,71.7635,-408.501,0,0
390074,71.4812,-408.079,0,0
390335,71.2003,-407.664,0,0
390595,70.9256,-407.259,0,0
390855,70.68,-406.915,0,0
391116,70.4828,-406.601,0,0
391376,70.2169,-406.263,0,0
391636,69.9849,-406.002,0,0
391896,69.7285,-405.697,0,0
392157,69.4455,-405.501,0,0
392417,69.1029,-405.299,0,0
392677,68.718,-405.011,0,0
392938,68.3675,-404.82,0,0
393198,67.9083,-404.596,0,0
393458,67.4022,-404.307,0,0
393719,66.9207,-404,0,0
393979,66.4091,-403.622,0,0
394239,65.8492,-403.195,0,0
394500,65.3537,-402.742,0,0
394760.05,64.8608,-402.287,0,0
395020.375,64.3293,-401.762,0,0
395280.7,63.8696,-401.213,0,0
395541.025,63.4307,-400.644,0,0
395801.35,62.9796,-400.058,0,0
396061.675,62.5888,-399.446,0,0
396322.0,62.151,-398.83,0,0
396582.325,61.7907,-398.134,0,0
396842.65,61.4468,-397.522,0,0
397102.975,61.1228,-396.83,0,0
397363.3,60.765,-396.146,0,0
397623.625,60.4501,-395.414,0,0
397883.95,60.182,-394.719,0,0
398144.275,59.8938,-394.062,0,0
398404.6,59.6629,-393.325,0,0
398664.925,59.4207,-392.582,0,0
398925.25,59.2376,-391.895,0,0
399185.575,59.0268,-391.225,0,0
399445.9,58.8171,-390.462,0,0
399706.225,58.6095,-389.772,0,0
399966.55,58.478,-389.036,0,0
400006.6,58.4655,-388.905,0,0