File: Accelerated corrosion test data/2025-10-12_18-00-03/sample_4.csv
Frequency (Hz),Impedance (ohms),Phase (Radians),Temperature (C),Humidity (%)
10000.0,271.311,-11764.1,0,0
10260.325,267.482,-11468.8,0,0
10520.65,258.113,-11187.1,0,0
10780.975,251.704,-10919.1,0,0
11041.3,246.811,-10663.1,0,0
11301.625,240.429,-10422.7,0,0
11561.95,235.054,-10189.1,0,0
11822.275,230.552,-9966.16,0,0
12082.6,225.821,-9753.08,0,0
12342.925,221.528,-9548.46,0,0
12603.25,218.606,-9351.09,0,0
12863.575,214.14,-9165.9,0,0
13123.9,211.781,-8988.37,0,0
13384.225,204.652,-8812.22,0,0
13644.55,201.337,-8643.93,0,0
13904.875,198.177,-8479.58,0,0
14165.2,198.938,-8318.94,0,0
14425.525,204.224,-8173.05,0,0
14685.8,205.601,-8056.74,0,0
14946.175,186.519,-7903.93,0,0
15206.5,186.434,-7761.64,0,0
15466.825,191.534,-7620.51,0,0
15727.15,193.153,-7519.5,0,0
15987.5,191.635,-7405.49,0,0
16247.8,175.691,-7277.51,0,0
16508.125,188.672,-7154.74,0,0
16768.45,182.548,-7051.82,0,0
17028.775,175.805,-6964.44,0,0
17289.1,164.824,-6852.36,0,0
17549.425,162.275,-6749.38,0,0
17809.75,159.959,-6649.83,0,0
18070.075,156.739,-6551.92,0,0
18330.4,158.154,-6456.54,0,0
18590.725,156.791,-6368.38,0,0
18851.05,153.156,-6285.32,0,0
19111.375,148.851,-6197.18,0,0
19371.7,146.425,-6112.48,0,0
19632.025,145.594,-6029.39,0,0
19892.35,147.494,-5949.77,0,0
20152.675,147.04,-5873.7,0,0
20413.0,143.575,-5800.46,0,0
20673.3,143.803,-5726.87,0,0
20933.65,140.208,-5653.73,0,0
21193.975,143.318,-5579.79,0,0
21454.3,154.746,-5515.38,0,0
21714.625,147.809,-5459.74,0,0
21974.9,151.785,-5387.75,0,0
22235.275,150.827,-5342.21,0,0
22495.6,138.026,-5286.36,0,0
22755.925,131.567,-5222.37,0,0
23016.25,128.197,-5161.24,0,0
23276.6,125.775,-5101.68,0,0
23536.9,123.833,-5044.71,0,0
23797.225,121.723,-4988.37,0,0
24057.55,120.421,-4933.51,0,0
24317.875,118.828,-4879.63,0,0
24578.2,117.308,-4826.8,0,0
24838.525,116.797,-4774.7,0,0
25098.85,117.028,-4724.79,0,0
25359.175,115.18,-4677.48,0,0
25619.5,115.228,-4627.81,0,0
25879.8,113.016,-4584.37,0,0
26140.1,110.485,-4536.7,0,0
26400.5,109.614,-4490.57,0,0
26660.8,108.828,-4444.59,0,0
26921.1,109.331,-4401.3,0,0
27181.4,108.406,-4356.96,0,0
27441.8,108.365,-4313.01,0,0
27702.1,111.528,-4269.44,0,0
27962.4,117.105,-4227.75,0,0
28222.7,123.397,-4199.92,0,0
28483.1,113.468,-4164.56,0,0
28743.4,112.964,-4124.35,0,0
29003.7,115.939,-4084.94,0,0
29264,118.126,-4054.33,0,0
29524.4,113.764,-4021.42,0,0
29784.7,110.359,-3991.9,0,0
30045,108.547,-3954.21,0,0
30305.3,103.841,-3920.72,0,0
30565.7,101.654,-3886.06,0,0
30826,101.011,-3851.75,0,0
31086.3,99.8937,-3818.13,0,0
31346.6,101.176,-3784.89,0,0
31607,99.5256,-3755.04,0,0
31867.3,99.3313,-3722.76,0,0
32127.6,101.724,-3693.42,0,0
32387.9,99.173,-3667.13,0,0
32648.3,98.6513,-3636.97,0,0
32908.6,96.9058,-3609.94,0,0
33168.9,94.4786,-3582.12,0,0
33429.2,91.4304,-3553.17,0,0
33689.6,90.4584,-3524.37,0,0
33949.9,89.1161,-3496.29,0,0
34210.2,89.7803,-3468.93,0,0
34470.5,88.0533,-3442.74,0,0
34730.9,86.9281,-3416.28,0,0
34991.2,86.6765,-3389.69,0,0
35251.5,86.2424,-3364.38,0,0
35511.8,85.1684,-3339.5,0,0
35772.2,84.6579,-3314.43,0,0
36032.5,83.4056,-3289.72,0,0
36292.8,82.9402,-3265.19,0,0
36553.1,82.7764,-3241.03,0,0
36813.5,82.5054,-3217.33,0,0
37073.8,82.1457,-3194.68,0,0
37334.1,81.3726,-3171.86,0,0
37594.4,81.2617,-3149.13,0,0
37854.8,81.0512,-3127.5,0,0
38115.1,79.8786,-3105.4,0,0
38375.4,79.2982,-3083.31,0,0
38635.7,79.0265,-3061.62,0,0
38896.1,79.0727,-3040.22,0,0
39156.4,78.6662,-3019.37,0,0
39416.7,78.0993,-2998.65,0,0
39677,77.8923,-2977.2,0,0
39937.4,78.6955,-2956.42,0,0
40197.7,80.7117,-2936.29,0,0
40458,82.0597,-2918.6,0,0
40718.3,80.9475,-2901.02,0,0
40978.7,80.1534,-2881.72,0,0
41239,80.6112,-2862.12,0,0
41499.3,83.8077,-2846.33,0,0
41759.6,80.1187,-2830.51,0,0
42020,79.273,-2811.49,0,0
42280.275,78.8764,-2792.86,0,0
42540.6,80.5061,-2776,0,0
42800.925,79.0283,-2761.55,0,0
43061.25,76.7445,-2743.34,0,0
43321.575,76.9174,-2726.52,0,0
43581.9,75.875,-2710.09,0,0
43842.225,75.159,-2692.89,0,0
44102.55,75.1406,-2677.21,0,0
44362.875,73.8615,-2660.41,0,0
44623.2,74.0018,-2643.77,0,0
44883.525,73.5312,-2628.59,0,0
45143.85,72.6294,-2612.55,0,0
45404.175,72.0163,-2596.05,0,0
45664.5,73.0397,-2579.93,0,0
45924.825,73.8331,-2565.75,0,0
46185.15,72.6848,-2551.93,0,0
46445.475,71.8671,-2535.7,0,0
46705.8,72.8514,-2521.21,0,0
46966.125,72.5306,-2507.79,0,0
47226.45,72.7388,-2492.94,0,0
47486.775,72.8797,-2480.3,0,0
47747.1,71.3956,-2466.92,0,0
48007.425,70.91,-2452.73,0,0
48267.75,69.9227,-2439.41,0,0
48528.075,69.7255,-2425.96,0,0
48788.4,68.3123,-2412.13,0,0
49048.725,67.6722,-2398,0,0
49309.05,67.6064,-2384.26,0,0
49569.375,66.9826,-2371.39,0,0
49829.7,66.3267,-2357.67,0,0
50090.025,66.1096,-2344.53,0,0
50350.35,65.9473,-2331.28,0,0
50610.675,65.8798,-2318.65,0,0
50871.0,65.5155,-2305.75,0,0
51131.325,65.2349,-2292.76,0,0
51391.65,65.0994,-2279.87,0,0
51651.975,65.3213,-2267.15,0,0
51912.3,65.2989,-2254.76,0,0
52172.625,65.5232,-2242.12,0,0
52432.95,65.6976,-2229.98,0,0
52693.275,65.9196,-2217.27,0,0
52953.6,67.1779,-2204.89,0,0
53213.925,68.0514,-2193.18,0,0
53474.25,69.3122,-2181.35,0,0
53734.575,70.6381,-2169.74,0,0
53994.9,73.0976,-2158.7,0,0
54255.225,75.1642,-2149.3,0,0
54515.55,77.0662,-2140.89,0,0
54775.875,76.9569,-2133.21,0,0
55036.2,75.4146,-2124.53,0,0
55296.525,74.9703,-2114.99,0,0
55556.85,73.2585,-2106.28,0,0
55817.175,71.5134,-2096.16,0,0
56077.5,69.8755,-2085.93,0,0
56337.825,68.5741,-2075.23,0,0
56598.15,67.5139,-2063.86,0,0
56858.475,67.1483,-2052.79,0,0
57118.8,67.183,-2041.94,0,0
57379.125,67.7096,-2031.48,0,0
57639.45,67.7395,-2021.42,0,0
57899.775,67.8266,-2011.14,0,0
58160.1,68.2653,-2000.97,0,0
58420.4,69.3827,-1990.9,0,0
58680.7,69.3486,-1982.21,0,0
58941.1,69.0663,-1971.36,0,0
59201.4,70.5845,-1960.8,0,0
59461.7,72.8631,-1951.15,0,0
59722,75.1322,-1942.59,0,0
59982.4,77.1923,-1934.87,0,0
60242.7,78.5879,-1927.75,0,0
60503,79.4934,-1920.55,0,0
60763.3,81.7874,-1913.71,0,0
61023.7,82.1131,-1910.18,0,0
61284,79.7507,-1905.38,0,0
61544.3,75.6289,-1898.9,0,0
61804.6,72.7192,-1889.47,0,0
62065,71.5351,-1880.57,0,0
62325.3,69.9784,-1872.81,0,0
62585.6,67.246,-1863.69,0,0
62845.9,66.8627,-1853.6,0,0
63106.3,66.0227,-1844.87,0,0
63366.6,65.5105,-1835.48,0,0
63626.9,65.977,-1826.53,0,0
63887.2,65.9314,-1818.96,0,0
64147.6,65.1246,-1809.7,0,0
64407.9,65.5961,-1800.85,0,0
64668.2,66.2,-1792.81,0,0
64928.5,66.5476,-1784.82,0,0
65188.9,66.6625,-1776.77,0,0
65449.2,67.0034,-1769.04,0,0
65709.5,66.9235,-1760.58,0,0
65969.8,68.2293,-1752.42,0,0
66230.2,69.246,-1745.43,0,0
66490.5,69.8915,-1738.25,0,0
66750.8,70.5935,-1731.3,0,0
67011.1,71.3301,-1724.13,0,0
67271.5,72.2098,-1717.36,0,0
67531.8,73.1577,-1710.94,0,0
67792.1,73.9242,-1705.24,0,0
68052.4,74.5525,-1699.65,0,0
68312.8,74.6306,-1694.24,0,0
68573.1,74.4248,-1689.25,0,0
68833.4,73.5597,-1684.37,0,0
69093.7,71.7028,-1678.91,0,0
69354.1,69.5828,-1672.76,0,0
69614.4,67.7487,-1665.5,0,0
69874.7,66.9302,-1658.12,0,0
70135,66.2111,-1651.36,0,0
70395.4,64.9114,-1644.16,0,0
70655.7,65.0174,-1636.08,0,0
70916,66.1085,-1629.95,0,0
71176.3,65.9495,-1624.1,0,0
71436.7,65.1725,-1618.26,0,0
71697,64.8116,-1612.63,0,0
71957.3,63.2338,-1606.95,0,0
72217.6,61.511,-1600.23,0,0
72478,60.3773,-1593.14,0,0
72738.3,59.4789,-1585.89,0,0
72998.6,58.8292,-1578.5,0,0
73258.9,58.5481,-1570.98,0,0
73519.3,58.8645,-1563.82,0,0
73779.6,59.1219,-1557.06,0,0
74039.9,59.5751,-1550.39,0,0
74300.225,59.6833,-1544.1,0,0
74560.55,59.9941,-1537.49,0,0
74820.875,60.4156,-1531.05,0,0
75081.2,61.2111,-1524.71,0,0
75341.525,61.8717,-1519.06,0,0
75601.85,62.1196,-1513.27,0,0
75862.175,62.47,-1507.5,0,0
76122.5,62.8476,-1501.81,0,0
76382.825,63.3121,-1496.41,0,0
76643.15,63.2714,-1491.01,0,0
76903.475,63.1406,-1484.96,0,0
77163.8,64.0948,-1478.9,0,0
77424.125,65.0963,-1473.86,0,0
77684.45,65.8653,-1469.14,0,0
77944.775,66.2245,-1464.81,0,0
78205.1,65.9661,-1460.44,0,0
78465.425,65.5785,-1455.95,0,0
78725.75,64.9522,-1451.35,0,0
78986.075,64.0763,-1446.53,0,0
79246.4,63.2453,-1441.36,0,0
79506.725,62.4629,-1435.99,0,0
79767.05,61.9596,-1430.48,0,0
80027.375,61.5042,-1424.96,0,0
80287.7,61.2742,-1419.6,0,0
80548.025,61.0333,-1414.2,0,0
80808.35,60.8983,-1408.84,0,0
81068.675,60.8716,-1403.72,0,0
81329.0,60.7358,-1398.68,0,0
81589.325,60.5482,-1393.65,0,0
81849.65,60.3612,-1388.64,0,0
82109.975,60.0189,-1383.58,0,0
82370.3,59.778,-1378.56,0,0
82630.625,59.539,-1373.47,0,0
82890.95,59.3171,-1368.55,0,0
83151.275,59.1526,-1363.55,0,0
83411.6,58.8064,-1358.55,0,0
83671.925,58.6647,-1353.6,0,0
83932.25,58.467,-1348.58,0,0
84192.575,58.3499,-1343.65,0,0
84452.9,58.2076,-1338.79,0,0
84713.225,57.9608,-1333.9,0,0
84973.55,57.9311,-1329.05,0,0
85233.875,57.7827,-1324.23,0,0
85494.2,57.7319,-1319.48,0,0
85754.525,57.5997,-1314.77,0,0
86014.85,57.3788,-1309.94,0,0
86275.175,57.3598,-1305.27,0,0
86535.5,57.3713,-1300.66,0,0
86795.825,57.1113,-1296.15,0,0
87056.15,57.0195,-1291.51,0,0
87316.475,56.9268,-1287.12,0,0
87576.8,56.7198,-1282.66,0,0
87837.125,56.4677,-1278.31,0,0
88097.45,55.9259,-1273.95,0,0
88357.775,55.2036,-1269.25,0,0
88618.1,54.8252,-1264.22,0,0
88878.425,54.6877,-1259.5,0,0
89138.75,54.5201,-1254.86,0,0
89399.075,54.1858,-1250.06,0,0
89659.4,54.3005,-1245.1,0,0
89919.725,54.2713,-1240.58,0,0
90180,54.1965,-1236.03,0,0
90440.4,54.0772,-1231.45,0,0
90700.7,53.9924,-1226.84,0,0
90961,53.9561,-1222.23,0,0
91221.3,53.8891,-1217.58,0,0
91481.7,53.9627,-1212.96,0,0
91742,54.0657,-1208.37,0,0
92002.3,54.2876,-1203.79,0,0
92262.6,54.752,-1199.43,0,0
92523,55.0595,-1195.29,0,0
92783.3,55.1642,-1191.1,0,0
93043.6,55.2949,-1187.1,0,0
93303.9,55.2241,-1183.19,0,0
93564.3,55.0441,-1179.01,0,0
93824.6,55.0198,-1174.93,0,0
94084.9,54.7338,-1170.86,0,0
94345.2,54.4115,-1166.68,0,0
94605.6,54.1048,-1162.32,0,0
94865.9,53.871,-1157.75,0,0
95126.2,53.7514,-1153.33,0,0
95386.5,53.7114,-1148.81,0,0
95646.9,53.8674,-1144.21,0,0
95907.2,54.0037,-1139.8,0,0
96167.5,54.1947,-1135.41,0,0
96427.8,54.4078,-1131.01,0,0
96688.2,54.6936,-1126.77,0,0
96948.5,54.9424,-1122.52,0,0
97208.8,55.1189,-1118.24,0,0
97469.1,55.333,-1114.04,0,0
97729.5,55.4776,-1109.78,0,0
97989.8,55.9216,-1105.35,0,0
98250.1,56.2904,-1101.03,0,0
98510.4,56.7573,-1096.82,0,0
98770.8,57.1829,-1092.52,0,0
99031.1,57.7923,-1088.32,0,0
99291.4,58.5188,-1084.21,0,0
99551.7,59.2471,-1080.26,0,0
99812.1,59.7421,-1076.27,0,0
100072,60.402,-1072.07,0,0
100333,61.6242,-1067.96,0,0
100593,62.9966,-1064.49,0,0
100853,64.0097,-1061.57,0,0
101114,64.5524,-1058.5,0,0
101374,65.3951,-1055.52,0,0
101634,65.8652,-1053.08,0,0
101895,65.5672,-1050.84,0,0
102155,64.5789,-1048.13,0,0
102415,63.3098,-1044.74,0,0
102676,62.1001,-1040.69,0,0
102936,61.2766,-1036.27,0,0
103196,60.6696,-1031.62,0,0
103457,60.3288,-1026.69,0,0
103717,60.4899,-1021.64,0,0
103977,60.9879,-1016.68,0,0
104238,61.6916,-1011.92,0,0
104498,62.5849,-1007.2,0,0
104758,63.6674,-1002.63,0,0
105019,64.9803,-998.227,0,0
105279,66.3198,-994.002,0,0
105539,67.6582,-989.899,0,0
105800,69.1251,-985.925,0,0
106060,70.628,-982.076,0,0
106320.175,72.1362,-978.328,0,0
106580.5,73.7361,-974.779,0,0
106840.825,75.2976,-971.382,0,0
107101.15,76.6884,-968.118,0,0
107361.475,78.0405,-964.786,0,0
107621.8,79.4453,-961.33,0,0
107882.125,81.0335,-957.923,0,0
108142.45,82.7352,-954.7,0,0
108402.775,84.5215,-951.618,0,0
108663.1,86.325,-948.756,0,0
108923.425,88.108,-946.06,0,0
109183.75,89.9164,-943.457,0,0
109444.075,91.5833,-941.218,0,0
109704.4,93.1285,-939.03,0,0
109964.725,94.5248,-936.895,0,0
110225.05,95.9183,-934.837,0,0
110485.375,97.2193,-932.75,0,0
110745.7,98.3406,-930.882,0,0
111006.025,99.4437,-928.997,0,0
111266.35,100.34,-927.219,0,0
111526.675,101.282,-925.196,0,0
111787.0,102.159,-923.37,0,0
112047.325,102.942,-921.602,0,0
112307.65,103.783,-919.838,0,0
112567.975,104.48,-918.183,0,0
112828.3,105.034,-916.392,0,0
113088.625,105.575,-914.701,0,0
113348.95,106.117,-913.053,0,0
113609.275,106.484,-911.425,0,0
113869.6,106.801,-909.794,0,0
114129.925,107.041,-908.141,0,0
114390.25,107.223,-906.392,0,0
114650.575,107.435,-904.687,0,0
114910.9,107.606,-903.076,0,0
115171.225,107.618,-901.576,0,0
115431.55,107.435,-899.986,0,0
115691.875,107.252,-898.243,0,0
115952.2,106.967,-896.597,0,0
116212.525,106.643,-894.842,0,0
116472.85,106.158,-893.104,0,0
116733.175,105.63,-891.206,0,0
116993.5,104.926,-889.161,0,0
117253.825,104.253,-887.007,0,0
117514.15,103.506,-884.7,0,0
117774.475,102.725,-882.149,0,0
118034.8,102.162,-879.287,0,0
118295.125,101.957,-876.393,0,0
118555.45,101.746,-873.595,0,0
118815.775,101.43,-870.486,0,0
119076.1,101.729,-867.203,0,0
119336.425,102.81,-863.729,0,0
119596.75,104.663,-861.269,0,0
119857.075,106.268,-859.699,0,0
120117.4,107.513,-858.9,0,0
120377.725,108.081,-858.46,0,0
120638.05,107.966,-858.274,0,0
120898.375,106.937,-857.905,0,0
121158.7,105.42,-856.814,0,0
121419.025,103.848,-855.152,0,0
121679.35,102.432,-853.135,0,0
121939.675,101.154,-850.867,0,0
122200.0,100.034,-848.451,0,0
122460,99.0177,-845.906,0,0
122721,98.2144,-843.313,0,0
122981,97.4939,-840.819,0,0
123241,96.7614,-838.327,0,0
123502,96.0161,-835.775,0,0
123762,95.3337,-833.169,0,0
124022,94.7158,-830.596,0,0
124283,94.0589,-828.019,0,0
124543,93.4926,-825.38,0,0
124803,92.9369,-822.714,0,0
125064,92.4786,-820.103,0,0
125324,92.0458,-817.632,0,0
125584,91.5351,-815.1,0,0
125845,91.0492,-812.587,0,0
126105,90.5539,-810.193,0,0
126365,89.9172,-807.849,0,0
126626,89.1667,-805.394,0,0
126886,88.3585,-802.828,0,0
127146,87.632,-800.185,0,0
127406,86.9345,-797.611,0,0
127667,86.2666,-794.938,0,0
127927,85.556,-792.467,0,0
128187,84.6433,-789.955,0,0
128448,83.4993,-787.253,0,0
128708,82.4708,-784.309,0,0
128968,81.4815,-781.369,0,0
129229,80.4321,-778.322,0,0
129489,79.4323,-775.125,0,0
129749,78.4148,-771.892,0,0
130010,77.4415,-768.392,0,0
130270,76.6878,-764.834,0,0
130530,76.0406,-761.32,0,0
130791,75.389,-757.808,0,0
131051,74.7889,-754.176,0,0
131311,74.2993,-750.437,0,0
131572,73.9594,-746.732,0,0
131832,73.6829,-743.102,0,0
132092,73.342,-739.456,0,0
132353,73.1111,-735.69,0,0
132613,72.9687,-731.946,0,0
132873,72.9176,-728.217,0,0
133134,72.9456,-724.533,0,0
133394,72.9654,-720.864,0,0
133654,73.004,-717.147,0,0
133915,73.1499,-713.431,0,0
134175,73.3772,-709.761,0,0
134435,73.5816,-706.049,0,0
134696,73.8416,-702.377,0,0
134956,74.1083,-698.692,0,0
135216,74.487,-694.953,0,0
135477,74.9702,-691.271,0,0
135737,75.5013,-687.661,0,0
135997,76.0468,-684.1,0,0
136258,76.6122,-680.507,0,0
136518,77.2429,-676.984,0,0
136778,77.9372,-673.56,0,0
137039,78.5665,-670.258,0,0
137299,79.1007,-667.004,0,0
137559,79.5724,-663.705,0,0
137819,79.9289,-660.329,0,0
138080,80.2708,-656.886,0,0
138340.125,80.6582,-653.283,0,0
138600.45,81.1097,-649.659,0,0
138860.775,81.5976,-646.021,0,0
139121.1,82.1129,-642.276,0,0
139381.425,82.8245,-638.486,0,0
139641.75,83.5891,-634.747,0,0
139902.075,84.3602,-631.055,0,0
140162.4,85.1311,-627.261,0,0
140422.725,86.0056,-623.476,0,0
140683.05,86.9657,-619.7,0,0
140943.375,87.9703,-615.951,0,0
141203.7,89.0412,-612.23,0,0
141464.025,90.1283,-608.495,0,0
141724.35,91.2523,-604.773,0,0
141984.675,92.4074,-601.048,0,0
142245.0,93.6283,-597.3,0,0
142505.325,94.9029,-593.608,0,0
142765.65,96.1493,-589.89,0,0
143025.975,97.4734,-586.1,0,0
143286.3,98.9854,-582.331,0,0
143546.625,100.394,-578.686,0,0
143806.95,101.857,-574.989,0,0
144067.275,103.349,-571.247,0,0
144327.6,104.929,-567.496,0,0
144587.925,106.596,-563.747,0,0
144848.25,108.306,-560.014,0,0
145108.575,110.068,-556.299,0,0
145368.9,111.972,-552.541,0,0
145629.225,113.889,-548.883,0,0
145889.55,115.809,-545.171,0,0
146149.875,117.841,-541.476,0,0
146410.2,119.986,-537.812,0,0
146670.525,122.179,-534.23,0,0
146930.85,124.399,-530.686,0,0
147191.175,126.653,-527.129,0,0
147451.5,128.943,-523.602,0,0
147711.825,131.28,-520.068,0,0
147972.15,133.651,-516.514,0,0
148232.475,136.11,-512.906,0,0
148492.8,138.717,-509.311,0,0
148753.125,141.421,-505.77,0,0
149013.45,144.207,-502.272,0,0
149273.775,147.02,-498.818,0,0
149534.1,149.895,-495.238,0,0
149794.425,153.022,-491.682,0,0
150054.75,156.298,-488.259,0,0
150315.075,159.647,-484.909,0,0
150575.4,163.1,-481.632,0,0
150835.725,166.647,-478.331,0,0
151096.05,170.502,-475.112,0,0
151356.375,174.54,-472.117,0,0
151616.7,178.653,-469.362,0,0
151877.025,182.725,-466.728,0,0
152137.35,186.985,-464.046,0,0
152397.675,191.615,-461.672,0,0
152658.0,196.274,-459.821,0,0
152918.325,200.758,-458.272,0,0
153178.65,205.15,-456.822,0,0
153438.975,209.617,-455.61,0,0
153699.3,213.954,-454.795,0,0
153959.625,218.025,-454.201,0,0
154219.95,221.926,-453.726,0,0
154480,225.523,-453.551,0,0
154741,228.554,-453.37,0,0
155001,231.311,-452.691,0,0
155261,234.312,-451.615,0,0
155522,237.598,-450.61,0,0
155782,241.104,-449.964,0,0
156042,244.224,-449.605,0,0
156303,247.062,-449.139,0,0
156563,249.699,-448.595,0,0
156823,252.181,-447.688,0,0
157084,254.966,-446.526,0,0
157344,257.836,-445.397,0,0
157604,260.715,-444.09,0,0
157864,263.887,-442.487,0,0
158125,267.683,-440.964,0,0
158385,271.703,-440.076,0,0
158645,275.64,-439.213,0,0
158906,279.868,-438.228,0,0
159166,284.531,-437.824,0,0
159426,289.28,-438.116,0,0
159687,293.928,-438.729,0,0
159947,298.472,-440.082,0,0
160207,302.663,-441.945,0,0
160468,306.118,-444.2,0,0
160728,308.88,-446.829,0,0
160988,310.661,-449.194,0,0
161249,311.839,-451.19,0,0
161509,312.874,-452.402,0,0
161769,313.921,-453.173,0,0
162030,314.994,-453.802,0,0
162290,316.016,-454.075,0,0
162550,317.138,-454.29,0,0
162811,318.205,-454.153,0,0
163071,319.409,-453.757,0,0
163331,320.914,-453.142,0,0
163592,322.445,-452.505,0,0
163852,324.313,-451.652,0,0
164112,326.378,-450.807,0,0
164373,328.675,-449.816,0,0
164633,331.287,-448.984,0,0
164893,334.069,-448.358,0,0
165154,336.844,-447.696,0,0
165414,339.662,-446.91,0,0
165674,342.838,-446.056,0,0
165935,346.516,-445.185,0,0
166195,350.738,-444.569,0,0
166455,355.285,-444.38,0,0
166716,360.223,-444.372,0,0
166976,365.636,-445.098,0,0
167236,371.285,-446.846,0,0
167497,376.686,-449.21,0,0
167757,382.012,-452.278,0,0
168017,387.032,-456.148,0,0
168277,391.336,-460.724,0,0
168538,395.011,-465.521,0,0
168798,398.411,-470.442,0,0
169058,401.546,-475.872,0,0
169319,403.962,-481.962,0,0
169579,405.457,-488.039,0,0
169839,406.786,-493.979,0,0
170100,407.864,-500.652,0,0
170360.075,407.861,-507.978,0,0
170620.4,406.526,-515.405,0,0
170880.725,403.916,-522.515,0,0
171141.05,400.196,-528.986,0,0
171401.375,395.821,-534.5,0,0
171661.7,391.119,-539.411,0,0
171922.025,385.841,-543.821,0,0
172182.35,379.956,-547.416,0,0
172442.675,373.866,-550.149,0,0
172703.0,367.643,-552.195,0,0
172963.325,361.158,-553.483,0,0
173223.65,354.715,-553.896,0,0
173483.975,348.283,-553.614,0,0
173744.3,342.005,-552.448,0,0
174004.625,336.176,-550.639,0,0
174264.95,330.713,-548.355,0,0
174525.275,325.504,-545.538,0,0
174785.6,320.808,-542.27,0,0
175045.925,316.427,-538.797,0,0
175306.25,312.308,-534.88,0,0
175566.575,308.694,-530.551,0,0
175826.9,305.645,-525.964,0,0
176087.225,303.138,-521.33,0,0
176347.55,301.012,-516.59,0,0
176607.875,299.338,-511.842,0,0
176868.2,298.087,-507.149,0,0
177128.525,297.154,-502.528,0,0
177388.85,296.513,-498.007,0,0
177649.175,296.197,-493.621,0,0
177909.5,296.072,-489.455,0,0
178169.825,295.976,-485.423,0,0
178430.15,295.926,-481.371,0,0
178690.475,296.043,-477.29,0,0
178950.8,296.347,-473.197,0,0
179211.125,296.85,-469.198,0,0
179471.45,297.54,-465.287,0,0
179731.775,298.342,-461.528,0,0
179992.1,299.198,-457.957,0,0
180252.425,300.015,-454.448,0,0
180512.75,300.835,-450.941,0,0
180773.075,301.631,-447.402,0,0
181033.4,302.525,-443.864,0,0
181293.725,303.444,-440.351,0,0
181554.05,304.381,-436.895,0,0
181814.375,305.308,-433.369,0,0
182074.7,306.159,-429.808,0,0
182335.025,307.006,-426.117,0,0
182595.35,307.909,-422.26,0,0
182855.675,308.909,-418.267,0,0
183116.0,310.005,-414.13,0,0
183376.325,311.249,-409.885,0,0
183636.65,312.638,-405.507,0,0
183896.975,314.203,-401.013,0,0
184157.3,315.961,-396.424,0,0
184417.625,317.94,-391.798,0,0
184677.95,320.106,-387.129,0,0
184938.275,322.415,-382.4,0,0
185198.6,324.968,-377.595,0,0
185458.925,327.736,-372.766,0,0
185719.25,330.71,-367.943,0,0
185979.575,333.878,-363.123,0,0
186239.9,337.289,-358.213,0,0
186500,340.948,-353.305,0,0
186761,344.833,-348.418,0,0
187021,348.905,-343.569,0,0
187281,353.212,-338.772,0,0
187542,357.826,-333.984,0,0
187802,362.57,-329.177,0,0
188062,367.671,-324.398,0,0
188322,373.102,-319.659,0,0
188583,378.72,-315.091,0,0
188843,384.708,-310.601,0,0
189103,390.918,-306.166,0,0
189364,397.398,-301.822,0,0
189624,404.328,-297.583,0,0
189884,411.598,-293.659,0,0
190145,419.078,-289.825,0,0
190405,426.972,-286.407,0,0
190665,435.139,-283.203,0,0
190926,443.382,-280.385,0,0
191186,451.923,-277.67,0,0
191446,460.723,-275.255,0,0
191707,469.775,-273.223,0,0
191967,479.055,-271.545,0,0
192227,488.546,-270.303,0,0
192488,498.104,-269.353,0,0
192748,507.785,-268.943,0,0
193008,517.641,-268.844,0,0
193269,527.422,-269.271,0,0
193529,537.238,-269.993,0,0
193789,547.063,-271.063,0,0
194050,556.875,-272.526,0,0
194310,566.63,-274.335,0,0
194570,576.294,-276.437,0,0
194831,585.933,-278.803,0,0
195091,595.481,-281.418,0,0
195351,605.025,-284.255,0,0
195612,614.635,-287.209,0,0
195872,624.343,-290.436,0,0
196132,634.235,-294.002,0,0
196393,644.163,-297.927,0,0
196653,654.082,-302.202,0,0
196913,664.22,-306.746,0,0
197174,674.633,-311.749,0,0
197434,685.063,-317.476,0,0
197694,695.491,-323.811,0,0
197955,705.805,-330.731,0,0
198215,716.023,-338.275,0,0
198475,726.155,-346.382,0,0
198735,736.128,-355.282,0,0
198996,745.875,-364.972,0,0
199256,755.029,-375.556,0,0
199516,763.598,-386.754,0,0
199777,771.34,-398.485,0,0
200037,778.556,-410.617,0,0
200297,785.061,-423.281,0,0
200558,790.833,-436.311,0,0
200818,795.698,-449.742,0,0
201078,799.513,-463.379,0,0
201339,802.369,-476.93,0,0
201599,804.444,-490.448,0,0
201859,805.523,-503.604,0,0
202120,806.115,-516.317,0,0
202380.025,806.27,-528.863,0,0
202640.35,805.563,-541.044,0,0
202900.675,804.494,-552.426,0,0
203161.0,803.498,-563.305,0,0
203421.325,802.658,-574.241,0,0
203681.65,801.566,-585.421,0,0
203941.975,799.767,-596.614,0,0
204202.3,797.427,-607.518,0,0
204462.625,794.645,-617.872,0,0
204722.95,792.005,-627.887,0,0
204983.275,789.034,-637.866,0,0
205243.6,785.775,-647.671,0,0
205503.925,782.078,-656.944,0,0
205764.25,778.706,-665.7,0,0
206024.575,775.384,-674.374,0,0
206284.9,772.426,-683.089,0,0
206545.225,769.433,-692.033,0,0
206805.55,766.501,-701.542,0,0
207065.875,763.17,-711.692,0,0
207326.2,758.842,-722.455,0,0
207586.525,753.159,-733.123,0,0
207846.85,746.526,-743.349,0,0
208107.175,739.067,-752.779,0,0
208367.5,731.044,-761.474,0,0
208627.825,722.584,-769.441,0,0
208888.15,713.601,-776.698,0,0
209148.475,704.445,-782.836,0,0
209408.8,695.552,-788.04,0,0
209669.125,686.835,-792.906,0,0
209929.45,677.937,-797.137,0,0
210189.775,669.257,-800.717,0,0
210450.1,660.841,-803.693,0,0
210710.425,652.444,-806.212,0,0
210970.75,644.346,-808.105,0,0
211231.075,636.631,-809.561,0,0
211491.4,629.205,-810.648,0,0
211751.725,622.057,-811.237,0,0
212012.05,615.429,-811.37,0,0
212272.375,609.277,-811.079,0,0
212532.7,603.951,-810.991,0,0
212793.025,599.049,-810.955,0,0
213053.35,594.132,-810.992,0,0
213313.675,589.412,-810.673,0,0
213574.0,585.148,-810.348,0,0
213834.325,581.318,-809.696,0,0
214094.65,578.025,-809.029,0,0
214354.975,575.525,-808.485,0,0
214615.3,573.624,-808.32,0,0
214875.625,572.266,-808.82,0,0
215135.95,571.086,-810.062,0,0
215396.275,569.855,-811.933,0,0
215656.6,568.445,-814.4,0,0
215916.925,566.517,-817.41,0,0
216177.25,564.184,-820.721,0,0
216437.575,561.175,-824.105,0,0
216697.9,557.714,-827.276,0,0
216958.225,554.031,-830.06,0,0
217218.55,550.321,-832.561,0,0
217478.875,546.858,-834.931,0,0
217739.2,543.392,-837.437,0,0
217999.525,539.915,-839.906,0,0
218259.85,536.442,-842.482,0,0
218520,532.745,-845.169,0,0
218780,529.116,-847.726,0,0
219041,525.471,-850.486,0,0
219301,521.813,-853.362,0,0
219561,517.731,-856.475,0,0
219822,513.519,-859.598,0,0
220082,508.851,-862.653,0,0
220342,503.899,-865.585,0,0
220603,498.688,-868.349,0,0
220863,493.369,-870.805,0,0
221123,487.871,-873.057,0,0
221384,482.482,-875.132,0,0
221644,476.883,-877.077,0,0
221904,471.183,-878.947,0,0
222165,465.293,-880.61,0,0
222425,459.353,-881.883,0,0
222685,453.396,-882.92,0,0
222946,447.608,-883.866,0,0
223206,441.749,-884.699,0,0
223466,435.898,-885.348,0,0
223727,430.125,-885.795,0,0
223987,424.385,-886.069,0,0
224247,418.721,-886.391,0,0
224508,413.111,-886.713,0,0
224768,407.216,-887.111,0,0
225028,401.207,-887.12,0,0
225289,395.006,-886.999,0,0
225549,388.834,-886.61,0,0
225809,382.67,-886.073,0,0
226070,376.449,-885.234,0,0
226330,370.257,-884.181,0,0
226590,364.111,-882.785,0,0
226851,358.048,-881.259,0,0
227111,352.074,-879.47,0,0
227371,346.26,-877.572,0,0
227632,340.451,-875.399,0,0
227892,334.661,-873.029,0,0
228152,328.991,-870.405,0,0
228413,323.502,-867.508,0,0
228673,318.178,-864.277,0,0
228933,313.204,-860.916,0,0
229193,308.426,-857.368,0,0
229454,303.988,-853.705,0,0
229714,299.759,-849.92,0,0
229974,295.85,-846.181,0,0
230235,292.149,-842.446,0,0
230495,288.591,-838.763,0,0
230755,285.225,-834.9,0,0
231016,282.122,-831.054,0,0
231276,279.278,-827.269,0,0
231536,276.609,-823.561,0,0
231797,274.096,-819.846,0,0
232057,271.708,-816.258,0,0
232317,269.426,-812.717,0,0
232578,267.264,-809.163,0,0
232838,265.245,-805.613,0,0
233098,263.417,-802.07,0,0
233359,261.741,-798.664,0,0
233619,260.259,-795.27,0,0
233879,258.875,-792.032,0,0
234140,257.536,-788.867,0,0
234400,256.276,-785.751,0,0
234660.3,255.172,-782.714,0,0
234920.625,254.097,-779.721,0,0
235180.95,253.234,-776.848,0,0
235441.275,252.506,-774.218,0,0
235701.6,251.758,-771.717,0,0
235961.925,250.891,-769.385,0,0
236222.25,249.982,-767.012,0,0
236482.575,249.079,-764.664,0,0
236742.9,248.219,-762.323,0,0
237003.225,247.324,-760.004,0,0
237263.55,246.532,-757.606,0,0
237523.875,245.836,-755.194,0,0
237784.2,245.286,-752.815,0,0
238044.525,244.949,-750.553,0,0
238304.85,244.698,-748.396,0,0
238565.175,244.477,-746.511,0,0
238825.5,244.29,-744.739,0,0
239085.825,244.024,-743.215,0,0
239346.15,243.752,-741.699,0,0
239606.475,243.382,-740.356,0,0
239866.8,242.988,-739.06,0,0
240127.125,242.538,-737.81,0,0
240387.45,241.953,-736.628,0,0
240647.775,241.332,-735.511,0,0
240908.1,240.746,-734.411,0,0
241168.425,240.069,-733.362,0,0
241428.75,239.244,-732.399,0,0
241689.075,238.419,-731.405,0,0
241949.4,237.437,-730.403,0,0
242209.725,236.508,-729.426,0,0
242470.05,235.336,-728.483,0,0
242730.375,234.171,-727.448,0,0
242990.7,232.951,-726.34,0,0
243251.025,231.709,-725.197,0,0
243511.35,230.457,-724.017,0,0
243771.675,229.202,-722.839,0,0
244032.0,227.801,-721.622,0,0
244292.325,226.353,-720.31,0,0
244552.65,224.914,-718.905,0,0
244812.975,223.452,-717.348,0,0
245073.3,222.011,-715.701,0,0
245333.625,220.674,-713.962,0,0
245593.95,219.46,-712.147,0,0
245854.275,218.311,-710.261,0,0
246114.6,217.259,-708.497,0,0
246374.925,216.24,-706.574,0,0
246635.25,215.243,-704.76,0,0
246895.575,214.368,-702.709,0,0
247155.9,213.703,-700.766,0,0
247416.225,213.215,-698.927,0,0
247676.55,212.841,-697.33,0,0
247936.875,212.352,-695.916,0,0
248197.2,211.776,-694.683,0,0
248457.525,210.973,-693.395,0,0
248717.85,210.127,-692.06,0,0
248978.175,209.231,-690.7,0,0
249238.5,208.351,-689.307,0,0
249498.825,207.422,-687.86,0,0
249759.15,206.489,-686.515,0,0
250019.475,205.538,-685.07,0,0
250279.8,204.535,-683.663,0,0
250540,203.528,-682.195,0,0
250800,202.387,-680.773,0,0
251061,201.244,-679.252,0,0
251321,200.036,-677.755,0,0
251581,198.744,-676.183,0,0
251842,197.36,-674.61,0,0
252102,195.834,-672.877,0,0
252362,194.28,-670.957,0,0
252623,192.638,-668.85,0,0
252883,190.995,-666.524,0,0
253143,189.376,-663.945,0,0
253404,187.897,-661.159,0,0
253664,186.621,-658.17,0,0
253924,185.509,-655,0,0
254185,184.57,-651.795,0,0
254445,183.806,-648.559,0,0
254705,183.132,-645.158,0,0
254966,182.584,-641.756,0,0
255226,182.129,-638.248,0,0
255486,181.779,-634.609,0,0
255747,181.636,-630.717,0,0
256007,181.862,-626.694,0,0
256267,182.469,-622.634,0,0
256528,183.37,-618.674,0,0
256788,184.52,-614.819,0,0
257048,185.857,-610.996,0,0
257309,187.448,-607.226,0,0
257569,189.348,-603.537,0,0
257829,191.481,-600.05,0,0
258090,193.813,-596.704,0,0
258350,196.302,-593.549,0,0
258610,198.931,-590.487,0,0
258871,201.826,-587.521,0,0
259131,204.902,-584.806,0,0
259391,208.244,-582.3,0,0
259651,211.674,-580.101,0,0
259912,215.124,-578.187,0,0
260172,218.613,-576.447,0,0
260432,222.224,-574.693,0,0
260693,226.051,-573.181,0,0
260953,230.106,-571.991,0,0
261213,234.225,-571.223,0,0
261474,238.343,-570.77,0,0
261734,242.335,-570.701,0,0
261994,246.265,-570.78,0,0
262255,250.176,-570.962,0,0
262515,254.123,-571.336,0,0
262775,258.244,-571.968,0,0
263036,262.349,-572.981,0,0
263296,266.425,-574.344,0,0
263556,270.483,-576.06,0,0
263817,274.358,-578.222,0,0
264077,278.018,-580.768,0,0
264337,281.501,-583.531,0,0
264598,284.833,-586.789,0,0
264858,287.375,-590.535,0,0
265118,289.63,-594.088,0,0
265379,291.685,-597.653,0,0
265639,293.57,-601.355,0,0
265899,295.216,-605.276,0,0
266160,296.496,-609.407,0,0
266420,297.276,-613.643,0,0
266680.25,297.633,-617.797,0,0
266940.575,297.722,-621.807,0,0
267200.9,297.658,-625.731,0,0
267461.225,297.281,-629.742,0,0
267721.55,296.586,-633.694,0,0
267981.875,295.65,-637.588,0,0
268242.2,294.49,-641.419,0,0
268502.525,292.989,-645.28,0,0
268762.85,291.095,-649.058,0,0
269023.175,288.724,-652.669,0,0
269283.5,285.792,-655.941,0,0
269543.825,282.63,-658.594,0,0
269804.15,279.407,-660.623,0,0
270064.475,276.322,-662.263,0,0
270324.8,273.341,-663.506,0,0
270585.125,270.608,-664.458,0,0
270845.45,268.088,-665.191,0,0
271105.775,265.892,-665.784,0,0
271366.1,263.999,-666.454,0,0
271626.425,262.205,-667.248,0,0
271886.75,260.464,-668.157,0,0
272147.075,258.773,-669.108,0,0
272407.4,257.109,-670.248,0,0
272667.725,255.359,-671.504,0,0
272928.05,253.465,-672.752,0,0
273188.375,251.498,-674.14,0,0
273448.7,249.372,-675.498,0,0
273709.025,247.089,-676.909,0,0
273969.35,244.653,-678.331,0,0
274229.675,241.971,-679.725,0,0
274490.0,239.103,-681.093,0,0
274750.325,235.902,-682.373,0,0
275010.65,232.462,-683.448,0,0
275270.975,228.735,-684.205,0,0
275531.3,224.87,-684.644,0,0
275791.625,220.928,-684.75,0,0
276051.95,217.005,-684.528,0,0
276312.275,213.039,-684.065,0,0
276572.6,209.062,-683.297,0,0
276832.925,205.02,-682.206,0,0
277093.25,201.104,-680.659,0,0
277353.575,197.346,-678.75,0,0
277613.9,193.831,-676.502,0,0
277874.225,190.552,-673.984,0,0
278134.55,187.578,-671.243,0,0
278394.875,184.878,-668.234,0,0
278655.2,182.583,-664.976,0,0
278915.525,180.779,-661.571,0,0
279175.85,179.544,-658.205,0,0
279436.175,178.831,-655.011,0,0
279696.5,178.411,-652.128,0,0
279956.825,178.25,-649.6,0,0
280217.15,178.183,-647.398,0,0
280477.475,178.121,-645.457,0,0
280737.8,178.015,-643.677,0,0
280998.125,177.862,-642.045,0,0
281258.45,177.776,-640.533,0,0
281518.775,177.646,-639.233,0,0
281779.1,177.342,-638.018,0,0
282039.425,176.869,-636.755,0,0
282299.75,176.371,-635.341,0,0
282560,175.989,-633.802,0,0
282820,175.775,-632.256,0,0
283081,175.752,-630.771,0,0
283341,175.833,-629.436,0,0
283601,175.975,-628.28,0,0
283862,176.101,-627.252,0,0
284122,176.197,-626.384,0,0
284382,176.25,-625.59,0,0
284643,176.21,-624.921,0,0
284903,176.097,-624.329,0,0
285163,175.872,-623.787,0,0
285424,175.569,-623.268,0,0
285684,175.158,-622.817,0,0
285944,174.569,-622.419,0,0
286205,173.751,-621.968,0,0
286465,172.706,-621.299,0,0
286725,171.568,-620.344,0,0
286986,170.533,-619.164,0,0
287246,169.544,-617.864,0,0
287506,168.547,-616.302,0,0
287767,167.591,-614.614,0,0
288027,166.761,-612.631,0,0
288287,166.144,-610.381,0,0
288548,165.852,-607.938,0,0
288808,165.906,-605.362,0,0
289068,166.424,-602.75,0,0
289329,167.339,-600.203,0,0
289589,168.657,-597.848,0,0
289849,170.301,-595.716,0,0
290109,172.249,-593.928,0,0
290370,174.401,-592.399,0,0
290630,176.739,-591.213,0,0
290890,179.205,-590.431,0,0
291151,181.779,-590.057,0,0
291411,184.335,-590.06,0,0
291671,186.83,-590.429,0,0
291932,189.264,-591.187,0,0
292192,191.569,-592.275,0,0
292452,193.711,-593.731,0,0
292713,195.647,-595.575,0,0
292973,197.283,-597.741,0,0
293233,198.546,-600.191,0,0
293494,199.37,-602.786,0,0
293754,199.796,-605.468,0,0
294014,199.886,-608.165,0,0
294275,199.614,-610.915,0,0
294535,198.972,-613.638,0,0
294795,197.962,-616.265,0,0
295056,196.585,-618.77,0,0
295316,194.911,-621.086,0,0
295576,192.971,-623.203,0,0
295837,190.802,-625.072,0,0
296097,188.404,-626.652,0,0
296357,185.851,-627.933,0,0
296618,183.23,-628.88,0,0
296878,180.601,-629.491,0,0
297138,178.023,-629.81,0,0
297399,175.583,-629.937,0,0
297659,173.228,-629.912,0,0
297919,170.966,-629.708,0,0
298180,168.795,-629.404,0,0
298440,166.75,-629.033,0,0
298700.2,164.79,-628.586,0,0
298960.525,162.904,-628.112,0,0
299220.85,161.083,-627.599,0,0
299481.175,159.302,-627.019,0,0
299741.5,157.544,-626.425,0,0
300001.825,155.854,-625.793,0,0
300262.15,154.202,-625.121,0,0
300522.475,152.562,-624.423,0,0
300782.8,150.934,-623.723,0,0
301043.125,149.309,-622.943,0,0
301303.45,147.699,-622.112,0,0
301563.775,146.129,-621.194,0,0
301824.1,144.633,-620.204,0,0
302084.425,143.192,-619.166,0,0
302344.75,141.865,-618.109,0,0
302605.075,140.596,-617.068,0,0
302865.4,139.364,-616.044,0,0
303125.725,138.097,-615.004,0,0
303386.05,136.866,-613.937,0,0
303646.375,135.651,-612.802,0,0
303906.7,134.531,-611.641,0,0
304167.025,133.444,-610.449,0,0
304427.35,132.418,-609.242,0,0
304687.675,131.421,-608.003,0,0
304948.0,130.523,-606.727,0,0
305208.325,129.695,-605.465,0,0
305468.65,128.93,-604.223,0,0
305728.975,128.188,-603.004,0,0
305989.3,127.505,-601.774,0,0
306249.625,126.885,-600.544,0,0
306509.95,126.329,-599.313,0,0
306770.275,125.854,-598.083,0,0
307030.6,125.483,-596.926,0,0
307290.925,125.177,-595.831,0,0
307551.25,124.895,-594.805,0,0
307811.575,124.639,-593.857,0,0
308071.9,124.436,-592.975,0,0
308332.225,124.237,-592.161,0,0
308592.55,124.066,-591.473,0,0
308852.875,123.83,-590.894,0,0
309113.2,123.524,-590.38,0,0
309373.525,123.153,-589.927,0,0
309633.85,122.699,-589.461,0,0
309894.175,122.167,-589.056,0,0
310154.5,121.567,-588.639,0,0
310414.825,120.879,-588.173,0,0
310675.15,120.136,-587.668,0,0
310935.475,119.349,-587.058,0,0
311195.8,118.558,-586.421,0,0
311456.125,117.768,-585.712,0,0
311716.45,116.996,-584.955,0,0
311976.775,116.26,-584.157,0,0
312237.1,115.606,-583.331,0,0
312497.425,114.921,-582.505,0,0
312757.75,114.231,-581.657,0,0
313018.075,113.572,-580.75,0,0
313278.4,112.973,-579.82,0,0
313538.725,112.414,-578.867,0,0
313799.05,111.931,-577.933,0,0
314059.375,111.512,-577.014,0,0
314319.7,111.14,-576.131,0,0
314580,110.836,-575.258,0,0
314840,110.395,-574.59,0,0
315101,110.124,-573.845,0,0
315361,109.754,-573.005,0,0
315621,109.504,-572.322,0,0
315882,109.168,-571.633,0,0
316142,108.833,-571.021,0,0
316402,108.475,-570.392,0,0
316663,108.191,-569.836,0,0
316923,107.844,-569.269,0,0
317183,107.556,-568.72,0,0
317444,107.231,-568.266,0,0
317704,106.773,-567.761,0,0
317964,106.349,-567.304,0,0
318225,105.902,-566.851,0,0
318485,105.582,-566.472,0,0
318745,105.023,-566.084,0,0
319006,104.583,-565.758,0,0
319266,104.02,-565.434,0,0
319526,103.459,-565.17,0,0
319787,102.83,-564.936,0,0
320047,102.056,-564.753,0,0
320307,101.328,-564.425,0,0
320567,100.39,-564.146,0,0
320828,99.5794,-563.854,0,0
321088,98.487,-563.517,0,0
321348,97.4227,-563.189,0,0
321609,96.1822,-562.803,0,0
321869,94.9711,-562.262,0,0
322129,93.6224,-561.666,0,0
322390,92.2258,-560.99,0,0
322650,90.8003,-560.047,0,0
322910,89.4648,-558.966,0,0
323171,88.1171,-557.854,0,0
323431,86.799,-556.446,0,0
323691,85.6567,-555.042,0,0
323952,84.6658,-553.536,0,0
324212,83.793,-552.082,0,0
324472,83.0704,-550.505,0,0
324733,82.4039,-548.993,0,0
324993,81.7798,-547.489,0,0
325253,81.2888,-546,0,0
325514,80.7633,-544.703,0,0
325774,80.3376,-543.308,0,0
326034,79.9146,-541.992,0,0
326295,79.4825,-540.601,0,0
326555,79.1137,-539.367,0,0
326815,78.7174,-538.064,0,0
327076,78.2874,-536.773,0,0
327336,77.9058,-535.397,0,0
327596,77.4948,-534.086,0,0
327857,77.0623,-532.77,0,0
328117,76.7971,-531.281,0,0
328377,76.5275,-529.844,0,0
328638,76.2777,-528.427,0,0
328898,76.2033,-526.945,0,0
329158,76.1782,-525.519,0,0
329419,76.0735,-524.09,0,0
329679,76.1721,-522.682,0,0
329939,76.3197,-521.233,0,0
330200,76.5546,-519.898,0,0
330460,76.9049,-518.681,0,0
330720.15,77.2187,-517.474,0,0
330980.475,77.5674,-516.436,0,0
331240.8,77.9617,-515.427,0,0
331501.125,78.2649,-514.487,0,0
331761.45,78.634,-513.638,0,0
332021.775,78.9977,-512.848,0,0
332282.1,79.2906,-512.147,0,0
332542.425,79.5168,-511.43,0,0
332802.75,79.736,-510.886,0,0
333063.075,79.8617,-510.31,0,0
333323.4,80.0146,-509.777,0,0
333583.725,80.0023,-509.243,0,0
333844.05,79.9625,-508.767,0,0
334104.375,79.8522,-508.291,0,0
334364.7,79.6963,-507.74,0,0
334625.025,79.4974,-507.201,0,0
334885.35,79.1922,-506.581,0,0
335145.675,78.9838,-505.949,0,0
335406.0,78.6358,-505.334,0,0
335666.325,78.2777,-504.631,0,0
335926.65,77.9121,-503.846,0,0
336186.975,77.4305,-503.098,0,0
336447.3,76.9753,-502.134,0,0
336707.625,76.5449,-501.129,0,0
336967.95,76.1957,-500.092,0,0
337228.275,75.9308,-498.908,0,0
337488.6,75.6813,-497.727,0,0
337748.925,75.5817,-496.549,0,0
338009.25,75.4784,-495.236,0,0
338269.575,75.4001,-494.065,0,0
338529.9,75.4065,-492.853,0,0
338790.225,75.4129,-491.656,0,0
339050.55,75.5124,-490.41,0,0
339310.875,75.6816,-489.103,0,0
339571.2,75.9253,-487.842,0,0
339831.525,76.2099,-486.608,0,0
340091.85,76.5772,-485.367,0,0
340352.175,77.0001,-484.047,0,0
340612.5,77.5337,-482.93,0,0
340872.825,78.1779,-481.765,0,0
341133.15,78.853,-480.678,0,0
341393.475,79.6268,-479.653,0,0
341653.8,80.4522,-478.725,0,0
341914.125,81.3244,-477.927,0,0
342174.45,82.349,-477.242,0,0
342434.775,83.2683,-476.732,0,0
342695.1,84.2273,-476.297,0,0
342955.425,85.129,-476.019,0,0
343215.75,85.9796,-475.885,0,0
343476.075,86.7158,-475.788,0,0
343736.4,87.4119,-475.847,0,0
343996.725,88.0161,-475.88,0,0
344257.05,88.4926,-476.052,0,0
344517.375,88.8627,-476.26,0,0
344777.7,89.1755,-476.429,0,0
345038.025,89.3745,-476.592,0,0
345298.35,89.4296,-476.807,0,0
345558.675,89.4951,-476.986,0,0
345819.0,89.4761,-477.13,0,0
346079.325,89.3388,-477.244,0,0
346339.65,89.1997,-477.328,0,0
346599.975,88.9797,-477.428,0,0
346860,88.6682,-477.424,0,0
347121,88.3228,-477.409,0,0
347381,87.9946,-477.267,0,0
347641,87.6506,-477.105,0,0
347902,87.284,-476.966,0,0
348162,86.8642,-476.771,0,0
348422,86.4759,-476.504,0,0
348683,86.0485,-476.259,0,0
348943,85.6018,-475.92,0,0
349203,85.185,-475.514,0,0
349464,84.7116,-475.155,0,0
349724,84.1994,-474.682,0,0
349984,83.7592,-474.197,0,0
350245,83.3324,-473.678,0,0
350505,82.9497,-473.096,0,0
350765,82.5302,-472.481,0,0
351025,82.1887,-471.855,0,0
351286,81.7603,-471.286,0,0
351546,81.4296,-470.559,0,0
351806,81.0415,-469.876,0,0
352067,80.808,-469.138,0,0
352327,80.5388,-468.34,0,0
352587,80.2934,-467.53,0,0
352848,80.1198,-466.773,0,0
353108,79.9181,-465.906,0,0
353368,79.8454,-465.095,0,0
353629,79.7708,-464.255,0,0
353889,79.87,-463.446,0,0
354149,79.9961,-462.712,0,0
354410,80.1617,-462.02,0,0
354670,80.3175,-461.416,0,0
354930,80.4962,-460.771,0,0
355191,80.6214,-460.368,0,0
355451,80.6761,-459.928,0,0
355711,80.7333,-459.477,0,0
355972,80.7534,-459.05,0,0
356232,80.7368,-458.672,0,0
356492,80.6532,-458.355,0,0
356753,80.5938,-457.916,0,0
357013,80.4493,-457.56,0,0
357273,80.2806,-457.169,0,0
357534,80.0423,-456.731,0,0
357794,79.7663,-456.229,0,0
358054,79.4333,-455.745,0,0
358315,79.2034,-455.142,0,0
358575,78.8843,-454.601,0,0
358835,78.6212,-453.921,0,0
359096,78.3025,-453.232,0,0
359356,78.048,-452.412,0,0
359616,77.8833,-451.591,0,0
359877,77.6797,-450.729,0,0
360137,77.6011,-449.908,0,0
360397,77.5173,-448.99,0,0
360658,77.4781,-448.154,0,0
360918,77.5335,-447.307,0,0
361178,77.5678,-446.428,0,0
361438,77.7542,-445.594,0,0
361699,77.9119,-444.725,0,0
361959,78.1489,-443.957,0,0
362219,78.3668,-443.225,0,0
362480,78.6373,-442.558,0,0
362740.1,78.8588,-441.924,0,0
363000.425,79.1259,-441.32,0,0
363260.75,79.3536,-440.717,0,0
363521.075,79.5993,-440.228,0,0
363781.4,79.771,-439.706,0,0
364041.725,79.9403,-439.148,0,0
364302.05,80.0827,-438.637,0,0
364562.375,80.1256,-438.152,0,0
364822.7,80.1815,-437.633,0,0
365083.025,80.2576,-437.061,0,0
365343.35,80.2167,-436.45,0,0
365603.675,80.1854,-435.823,0,0
365864.0,80.193,-435.035,0,0
366124.325,80.2719,-434.287,0,0
366384.65,80.3855,-433.441,0,0
366644.975,80.5683,-432.692,0,0
366905.3,80.8024,-431.76,0,0
367165.625,81.1228,-430.929,0,0
367425.95,81.4507,-430.109,0,0
367686.275,81.8417,-429.261,0,0
367946.6,82.2829,-428.448,0,0
368206.925,82.7394,-427.659,0,0
368467.25,83.2727,-426.86,0,0
368727.575,83.9446,-426.091,0,0
368987.9,84.5846,-425.33,0,0
369248.225,85.35,-424.678,0,0
369508.55,86.1422,-424.027,0,0
369768.875,86.9747,-423.506,0,0
370029.2,87.8586,-423.053,0,0
370289.525,88.7791,-422.611,0,0
370549.85,89.666,-422.304,0,0
370810.175,90.6645,-422,0,0
371070.5,91.623,-421.873,0,0
371330.825,92.6127,-421.802,0,0
371591.15,93.6248,-421.858,0,0
371851.475,94.5803,-422.049,0,0
372111.8,95.5224,-422.372,0,0
372372.125,96.3842,-422.734,0,0
372632.45,97.168,-423.272,0,0
372892.775,97.8359,-423.89,0,0
373153.1,98.365,-424.586,0,0
373413.425,98.7894,-425.34,0,0
373673.75,99.1012,-426.075,0,0
373934.075,99.178,-426.891,0,0
374194.4,99.2126,-427.635,0,0
374454.725,99.0792,-428.353,0,0
374715.05,98.8252,-428.943,0,0
374975.375,98.4937,-429.513,0,0
375235.7,98.0793,-429.957,0,0
375496.025,97.6733,-430.284,0,0
375756.35,97.1911,-430.509,0,0
376016.675,96.7585,-430.634,0,0
376277.0,96.3515,-430.627,0,0
376537.325,96.0171,-430.699,0,0
376797.65,95.7303,-430.579,0,0
377057.975,95.5098,-430.574,0,0
377318.3,95.2592,-430.496,0,0
377578.625,95.1435,-430.508,0,0
377838.95,95.0173,-430.556,0,0
378099.275,94.8328,-430.658,0,0
378359.6,94.6229,-430.798,0,0
378619.925,94.4079,-430.95,0,0
378880,94.0496,-431.076,0,0
379141,93.7054,-431.145,0,0
379401,93.278,-431.21,0,0
379661,92.8619,-431.203,0,0
379922,92.4585,-431.138,0,0
380182,92.0818,-431.036,0,0
380442,91.7142,-430.918,0,0
380703,91.3754,-430.758,0,0
380963,90.9834,-430.622,0,0
381223,90.6504,-430.386,0,0
381483,90.3236,-430.133,0,0
381744,90.0348,-429.888,0,0
382004,89.911,-429.591,0,0
382264,89.8125,-429.31,0,0
382525,89.8145,-429.125,0,0
382785,89.884,-429.051,0,0
383045,89.923,-429.114,0,0
383306,89.9861,-429.309,0,0
383566,89.9706,-429.602,0,0
383826,89.7794,-430.008,0,0
384087,89.4489,-430.472,0,0
384347,88.9993,-430.908,0,0
384607,88.3844,-431.28,0,0
384868,87.6895,-431.655,0,0
385128,86.8996,-432.013,0,0
385388,85.9499,-432.261,0,0
385649,84.8937,-432.383,0,0
385909,83.8493,-432.358,0,0
386169,82.6955,-432.273,0,0
386430,81.5676,-431.99,0,0
386690,80.4213,-431.586,0,0
386950,79.3669,-430.951,0,0
387211,78.3254,-430.351,0,0
387471,77.3904,-429.506,0,0
387731,76.5154,-428.66,0,0
387992,75.7974,-427.765,0,0
388252,75.0863,-426.779,0,0
388512,74.6201,-425.77,0,0
388773,74.1528,-424.723,0,0
389033,73.8874,-423.751,0,0
389293,73.7322,-422.74,0,0
389554,73.7086,-421.774,0,0
389814,73.7393,-420.892,0,0
390074,73.9474,-420.148,0,0
390335,74.1736,-419.506,0,0
390595,74.3835,-419.007,0,0
390855,74.61,-418.624,0,0
391116,74.8717,-418.404,0,0
391376,75.0522,-418.298,0,0
391636,75.0811,-418.315,0,0
391896,75.0736,-418.426,0,0
392157,74.8833,-418.646,0,0
392417,74.5248,-418.752,0,0
392677,74.0134,-418.899,0,0
392938,73.3947,-418.976,0,0
393198,72.643,-418.946,0,0
393458,71.9132,-418.828,0,0
393719,71.0441,-418.588,0,0
393979,70.2106,-418.273,0,0
394239,69.3228,-417.863,0,0
394500,68.5211,-417.383,0,0
394760.05,67.6488,-416.812,0,0
395020.375,66.8634,-416.118,0,0
395280.7,66.1048,-415.361,0,0
395541.025,65.4184,-414.598,0,0
395801.35,64.7363,-413.76,0,0
396061.675,64.1478,-412.909,0,0
396322.0,63.6078,-412.029,0,0
396582.325,63.0817,-411.092,0,0
396842.65,62.6771,-410.216,0,0
397102.975,62.244,-409.342,0,0
397363.3,61.8527,-408.469,0,0
397623.625,61.4388,-407.589,0,0
397883.95,61.0896,-406.688,0,0
398144.275,60.7544,-405.75,0,0
398404.6,60.4464,-404.89,0,0
398664.925,60.142,-403.97,0,0
398925.25,59.8208,-403.007,0,0
399185.575,59.5712,-402.066,0,0
399445.9,59.3298,-401.156,0,0
399706.225,59.1586,-400.163,0,0
399966.55,58.9412,-399.163,0,0
400006.6,58.9204,-399.052,0,0