File: Accelerated corrosion test data/2025-10-12_18-00-03/sample_1.csv
Frequency (Hz),Impedance (ohms),Phase (Radians),Temperature (C),Humidity (%)
10000.0,247.557,-12072.4,0,0
10260.325,248.177,-11761.8,0,0
10520.65,236.795,-11485.9,0,0
10780.975,232.688,-11204.7,0,0
11041.3,225.416,-10947.4,0,0
11301.625,219.538,-10693.7,0,0
11561.95,215.644,-10452.8,0,0
11822.275,213.551,-10216.5,0,0
12082.6,234.157,-9988.5,0,0
12342.925,215.849,-9817.47,0,0
12603.25,199.449,-9605.92,0,0
12863.575,197.041,-9406.7,0,0
13123.9,205.92,-9217.42,0,0
13384.225,189.675,-9046.97,0,0
13644.55,185.518,-8868.51,0,0
13904.875,186.793,-8692.62,0,0
14165.2,192.774,-8555.38,0,0
14425.525,213.897,-8395.48,0,0
14685.8,211.384,-8230.98,0,0
14946.175,181.28,-8128.19,0,0
15206.5,189.582,-7969.2,0,0
15466.825,177.033,-7853.93,0,0
15727.15,176.202,-7724.29,0,0
15987.5,164.324,-7595.69,0,0
16247.8,160.612,-7471.03,0,0
16508.125,159.272,-7349.63,0,0
16768.45,163.174,-7234.35,0,0
17028.775,166.246,-7129.2,0,0
17289.1,157.981,-7025.75,0,0
17549.425,155.308,-6923.62,0,0
17809.75,149.072,-6821.49,0,0
18070.075,151.697,-6721.75,0,0
18330.4,145.4,-6627.1,0,0
18590.725,140.726,-6533.32,0,0
18851.05,142.482,-6436.84,0,0
19111.375,137.655,-6356.06,0,0
19371.7,136.034,-6265.42,0,0
19632.025,135.131,-6177.36,0,0
19892.35,139.519,-6094.12,0,0
20152.675,138.89,-6006.18,0,0
20413.0,161.057,-5920.62,0,0
20673.3,167.22,-5879.35,0,0
20933.65,151.064,-5807.72,0,0
21193.975,159.199,-5749.03,0,0
21454.3,144.529,-5673.94,0,0
21714.625,139.061,-5604.61,0,0
21974.9,142.095,-5523.48,0,0
22235.275,171.953,-5484.14,0,0
22495.6,142.213,-5438.31,0,0
22755.925,128.542,-5370.36,0,0
23016.25,124.648,-5304.94,0,0
23276.6,121.37,-5244.32,0,0
23536.9,117.808,-5184.2,0,0
23797.225,115.224,-5123.5,0,0
24057.55,118.172,-5064.64,0,0
24317.875,114.129,-5015.33,0,0
24578.2,113.945,-4957.14,0,0
24838.525,112.379,-4906.78,0,0
25098.85,113.513,-4854.91,0,0
25359.175,108.216,-4805.28,0,0
25619.5,107.08,-4754.85,0,0
25879.8,105.643,-4703.55,0,0
26140.1,105.893,-4655.56,0,0
26400.5,104.768,-4605.75,0,0
26660.8,107.311,-4556.46,0,0
26921.1,117.351,-4510.69,0,0
27181.4,121.702,-4478.51,0,0
27441.8,111.682,-4441.57,0,0
27702.1,105.503,-4393.45,0,0
27962.4,113.509,-4345.82,0,0
28222.7,112.225,-4306.54,0,0
28483.1,122.974,-4265.51,0,0
28743.4,127.406,-4246.73,0,0
29003.7,118.386,-4209.77,0,0
29264,118.177,-4176.26,0,0
29524.4,108.054,-4141.12,0,0
29784.7,107.866,-4100.7,0,0
30045,102.271,-4068.03,0,0
30305.3,100.997,-4030.77,0,0
30565.7,98.9271,-3991.61,0,0
30826,102.682,-3957.6,0,0
31086.3,103.596,-3929.3,0,0
31346.6,99.4072,-3900.26,0,0
31607,95.6298,-3862.9,0,0
31867.3,98.6749,-3831.25,0,0
32127.6,99.2089,-3800.26,0,0
32387.9,99.2494,-3774.73,0,0
32648.3,95.3859,-3742.59,0,0
32908.6,96.5709,-3715.92,0,0
33168.9,92.4064,-3687.21,0,0
33429.2,90.2363,-3658.44,0,0
33689.6,87.3638,-3629.32,0,0
33949.9,87.4016,-3598.8,0,0
34210.2,87.6099,-3573.35,0,0
34470.5,85.015,-3546.03,0,0
34730.9,83.6471,-3518.11,0,0
34991.2,82.6506,-3491.82,0,0
35251.5,81.7941,-3465.22,0,0
35511.8,81.2356,-3438.89,0,0
35772.2,80.4872,-3413.79,0,0
36032.5,79.4157,-3388.62,0,0
36292.8,78.4992,-3363.43,0,0
36553.1,78.1772,-3339.12,0,0
36813.5,77.6003,-3314.72,0,0
37073.8,77.557,-3291.31,0,0
37334.1,76.904,-3267.86,0,0
37594.4,76.6896,-3244.87,0,0
37854.8,75.6564,-3222.14,0,0
38115.1,75.0627,-3199.5,0,0
38375.4,74.8275,-3177,0,0
38635.7,74.2253,-3155.4,0,0
38896.1,74.0169,-3133.66,0,0
39156.4,73.837,-3112.21,0,0
39416.7,73.5543,-3092.04,0,0
39677,72.5698,-3070.66,0,0
39937.4,72.5879,-3050.08,0,0
40197.7,72.6071,-3030.04,0,0
40458,71.921,-3009.61,0,0
40718.3,72.2004,-2989.1,0,0
40978.7,73.6046,-2970.24,0,0
41239,73.3555,-2952.38,0,0
41499.3,72.7566,-2933.65,0,0
41759.6,72.0499,-2915.59,0,0
42020,71.6375,-2896.67,0,0
42280.275,71.4605,-2878.66,0,0
42540.6,71.6439,-2860.92,0,0
42800.925,71.2997,-2843.96,0,0
43061.25,70.6652,-2826.17,0,0
43321.575,70.6037,-2809.39,0,0
43581.9,69.7512,-2791.97,0,0
43842.225,69.0492,-2774.46,0,0
44102.55,69.2739,-2757.37,0,0
44362.875,69.9847,-2740.75,0,0
44623.2,70.3044,-2725.67,0,0
44883.525,69.4776,-2709.72,0,0
45143.85,69.554,-2693.91,0,0
45404.175,70.0892,-2679.08,0,0
45664.5,68.7125,-2664.14,0,0
45924.825,68.125,-2648.7,0,0
46185.15,67.6867,-2633.84,0,0
46445.475,66.4957,-2618.67,0,0
46705.8,66.1879,-2603.43,0,0
46966.125,65.7798,-2588.62,0,0
47226.45,65.9459,-2573.93,0,0
47486.775,65.7156,-2559.98,0,0
47747.1,64.9733,-2545.56,0,0
48007.425,64.7891,-2531.42,0,0
48267.75,64.8208,-2517.72,0,0
48528.075,63.2965,-2504.24,0,0
48788.4,63.2879,-2489.97,0,0
49048.725,62.7014,-2476.1,0,0
49309.05,62.7544,-2462.5,0,0
49569.375,62.619,-2449.56,0,0
49829.7,62.1618,-2436.88,0,0
50090.025,61.2617,-2423.62,0,0
50350.35,60.8873,-2410.26,0,0
50610.675,60.8332,-2397.22,0,0
50871.0,60.4413,-2384.48,0,0
51131.325,60.853,-2371.93,0,0
51391.65,60.4445,-2359.71,0,0
51651.975,59.9762,-2347.42,0,0
51912.3,59.5423,-2335.02,0,0
52172.625,59.2974,-2322.85,0,0
52432.95,59.254,-2310.82,0,0
52693.275,58.9313,-2298.99,0,0
52953.6,58.8659,-2287.11,0,0
53213.925,58.8189,-2275.54,0,0
53474.25,58.5966,-2264.19,0,0
53734.575,58.6536,-2252.79,0,0
53994.9,58.4519,-2241.79,0,0
54255.225,57.9011,-2230.7,0,0
54515.55,57.544,-2219.53,0,0
54775.875,57.273,-2208.43,0,0
55036.2,57.0139,-2197.17,0,0
55296.525,57.1581,-2186.35,0,0
55556.85,56.9884,-2175.97,0,0
55817.175,56.445,-2165.53,0,0
56077.5,56.1615,-2154.77,0,0
56337.825,56.0223,-2144.12,0,0
56598.15,56.025,-2133.64,0,0
56858.475,55.9016,-2123.43,0,0
57118.8,55.724,-2113.23,0,0
57379.125,55.7255,-2102.92,0,0
57639.45,55.8064,-2093.04,0,0
57899.775,55.6951,-2083.07,0,0
58160.1,55.7794,-2073.33,0,0
58420.4,55.5925,-2063.81,0,0
58680.7,55.3792,-2054.12,0,0
58941.1,55.4081,-2044.35,0,0
59201.4,55.6795,-2035.01,0,0
59461.7,55.5806,-2025.89,0,0
59722,55.3748,-2016.4,0,0
59982.4,55.4095,-2007.25,0,0
60242.7,55.3055,-1998.07,0,0
60503,55.4679,-1989.02,0,0
60763.3,55.7101,-1980.64,0,0
61023.7,55.1479,-1972.05,0,0
61284,54.7987,-1963.16,0,0
61544.3,54.4861,-1954.08,0,0
61804.6,54.4792,-1945.45,0,0
62065,53.9755,-1937.01,0,0
62325.3,53.7104,-1928.2,0,0
62585.6,53.5986,-1919.47,0,0
62845.9,53.5487,-1910.8,0,0
63106.3,53.6488,-1902.32,0,0
63366.6,53.4104,-1893.88,0,0
63626.9,53.4926,-1885.49,0,0
63887.2,53.5821,-1876.94,0,0
64147.6,53.6468,-1868.77,0,0
64407.9,53.8121,-1860.58,0,0
64668.2,54.0299,-1852.13,0,0
64928.5,54.5982,-1844.14,0,0
65188.9,55.034,-1836.2,0,0
65449.2,55.8075,-1828.76,0,0
65709.5,56.0992,-1821.8,0,0
65969.8,56.1143,-1814.81,0,0
66230.2,55.9073,-1807.41,0,0
66490.5,55.8909,-1800.31,0,0
66750.8,55.7107,-1793.18,0,0
67011.1,55.2314,-1786.15,0,0
67271.5,54.8335,-1778.35,0,0
67531.8,55.3835,-1771.14,0,0
67792.1,55.5965,-1764.37,0,0
68052.4,55.0045,-1757.72,0,0
68312.8,54.5139,-1750.66,0,0
68573.1,54.3551,-1743.25,0,0
68833.4,54.6145,-1736.55,0,0
69093.7,54.3209,-1730.05,0,0
69354.1,54.0577,-1723.2,0,0
69614.4,53.6806,-1716.82,0,0
69874.7,53.0747,-1709.95,0,0
70135,52.4611,-1703.23,0,0
70395.4,52.0979,-1696.17,0,0
70655.7,51.7677,-1689.15,0,0
70916,51.5445,-1682.34,0,0
71176.3,51.319,-1675.62,0,0
71436.7,51.1176,-1669.09,0,0
71697,50.6471,-1662.59,0,0
71957.3,50.2188,-1655.94,0,0
72217.6,49.6754,-1649.09,0,0
72478,49.3868,-1642.14,0,0
72738.3,49.3016,-1635.36,0,0
72998.6,49.3658,-1628.61,0,0
73258.9,49.2685,-1622.05,0,0
73519.3,49.0862,-1615.6,0,0
73779.6,49.0179,-1609,0,0
74039.9,49.1306,-1602.46,0,0
74300.225,49.15,-1596.12,0,0
74560.55,49.2305,-1589.63,0,0
74820.875,49.3432,-1583.33,0,0
75081.2,49.4433,-1577.11,0,0
75341.525,49.5108,-1570.89,0,0
75601.85,49.5411,-1564.69,0,0
75862.175,49.7389,-1558.37,0,0
76122.5,50.0177,-1552.33,0,0
76382.825,50.36,-1546.34,0,0
76643.15,50.5233,-1540.52,0,0
76903.475,50.7001,-1534.61,0,0
77163.8,50.9454,-1528.77,0,0
77424.125,51.1804,-1523.04,0,0
77684.45,51.2451,-1517.34,0,0
77944.775,51.4599,-1511.47,0,0
78205.1,51.9464,-1505.7,0,0
78465.425,52.5158,-1500.38,0,0
78725.75,52.8296,-1495.24,0,0
78986.075,52.8569,-1490.12,0,0
79246.4,52.7601,-1484.96,0,0
79506.725,52.5739,-1479.83,0,0
79767.05,52.2928,-1474.4,0,0
80027.375,52.3317,-1469.04,0,0
80287.7,52.1228,-1463.82,0,0
80548.025,51.7467,-1458.25,0,0
80808.35,51.5682,-1452.77,0,0
81068.675,51.47,-1447.05,0,0
81329.0,51.6711,-1441.59,0,0
81589.325,51.7646,-1436.1,0,0
81849.65,52.0193,-1430.75,0,0
82109.975,52.1976,-1425.41,0,0
82370.3,52.2309,-1420.21,0,0
82630.625,52.3136,-1414.93,0,0
82890.95,52.5452,-1409.51,0,0
83151.275,52.87,-1404.25,0,0
83411.6,53.1255,-1399.06,0,0
83671.925,53.4182,-1394,0,0
83932.25,53.7774,-1388.86,0,0
84192.575,54.124,-1383.76,0,0
84452.9,54.4748,-1378.76,0,0
84713.225,54.8699,-1373.72,0,0
84973.55,55.4582,-1368.81,0,0
85233.875,56.05,-1364.14,0,0
85494.2,56.4851,-1359.7,0,0
85754.525,56.6221,-1355.12,0,0
86014.85,56.9203,-1350.53,0,0
86275.175,56.9587,-1345.97,0,0
86535.5,57.2623,-1341.31,0,0
86795.825,57.3326,-1336.79,0,0
87056.15,57.5645,-1332.01,0,0
87316.475,57.7314,-1327.62,0,0
87576.8,57.8028,-1323.27,0,0
87837.125,57.6239,-1318.69,0,0
88097.45,57.5656,-1313.84,0,0
88357.775,57.6176,-1308.65,0,0
88618.1,58.1816,-1303.74,0,0
88878.425,58.5098,-1299.13,0,0
89138.75,58.9238,-1294.27,0,0
89399.075,59.4768,-1289.49,0,0
89659.4,60.0531,-1284.7,0,0
89919.725,60.876,-1280.13,0,0
90180,61.6229,-1275.72,0,0
90440.4,62.1161,-1271.03,0,0
90700.7,62.9531,-1266.33,0,0
90961,64.118,-1261.74,0,0
91221.3,65.5343,-1257.42,0,0
91481.7,66.9503,-1253.51,0,0
91742,68.2991,-1249.77,0,0
92002.3,69.203,-1246.18,0,0
92262.6,70.4106,-1242.3,0,0
92523,71.67,-1238.73,0,0
92783.3,73.4983,-1235.49,0,0
93043.6,74.6483,-1232.87,0,0
93303.9,76.0703,-1229.89,0,0
93564.3,77.9007,-1227.63,0,0
93824.6,79.4446,-1227.18,0,0
94084.9,78.5171,-1227.37,0,0
94345.2,75.6486,-1225.88,0,0
94605.6,73.7924,-1222.21,0,0
94865.9,72.5791,-1219.32,0,0
95126.2,70.7308,-1215.82,0,0
95386.5,69.42,-1212.18,0,0
95646.9,67.8082,-1208.12,0,0
95907.2,66.628,-1203.42,0,0
96167.5,66.2514,-1198.63,0,0
96427.8,66.3325,-1194.68,0,0
96688.2,65.8033,-1191.09,0,0
96948.5,65.0491,-1187.01,0,0
97208.8,64.5239,-1182.68,0,0
97469.1,64.2486,-1178.35,0,0
97729.5,64.171,-1173.97,0,0
97989.8,64.3381,-1169.76,0,0
98250.1,64.5293,-1165.86,0,0
98510.4,64.6104,-1162.23,0,0
98770.8,64.3836,-1158.5,0,0
99031.1,64.111,-1154.53,0,0
99291.4,63.9968,-1150.54,0,0
99551.7,63.8518,-1146.52,0,0
99812.1,63.9049,-1142.38,0,0
100072,64.0111,-1138.45,0,0
100333,63.9736,-1134.54,0,0
100593,64.0887,-1130.57,0,0
100853,64.1324,-1126.75,0,0
101114,64.1893,-1122.86,0,0
101374,64.0256,-1118.93,0,0
101634,63.9156,-1114.83,0,0
101895,63.8042,-1110.56,0,0
102155,63.7929,-1106,0,0
102415,64.1369,-1101.16,0,0
102676,65.1915,-1096.4,0,0
102936,66.3129,-1092.27,0,0
103196,67.2823,-1088.22,0,0
103457,68.292,-1084.11,0,0
103717,69.4145,-1080.09,0,0
103977,70.7339,-1075.96,0,0
104238,72.5978,-1072.22,0,0
104498,74.2594,-1069.15,0,0
104758,75.5556,-1066.22,0,0
105019,76.4354,-1063.11,0,0
105279,77.4907,-1059.59,0,0
105539,78.9316,-1056.2,0,0
105800,80.4608,-1053.15,0,0
106060,82.0989,-1050.25,0,0
106320.175,83.6553,-1047.62,0,0
106580.5,85.0399,-1045.23,0,0
106840.825,86.2614,-1042.93,0,0
107101.15,87.4479,-1040.43,0,0
107361.475,88.9441,-1038.26,0,0
107621.8,89.9949,-1036.44,0,0
107882.125,90.7898,-1034.48,0,0
108142.45,91.5602,-1032.4,0,0
108402.775,92.429,-1030.25,0,0
108663.1,93.419,-1028.43,0,0
108923.425,94.1715,-1026.78,0,0
109183.75,94.8891,-1025.3,0,0
109444.075,95.3066,-1023.97,0,0
109704.4,95.3946,-1022.66,0,0
109964.725,95.0357,-1021.28,0,0
110225.05,94.3638,-1019.64,0,0
110485.375,93.482,-1017.38,0,0
110745.7,93.2015,-1014.72,0,0
111006.025,92.9864,-1012,0,0
111266.35,93.0811,-1009.56,0,0
111526.675,93.5448,-1007.3,0,0
111787.0,93.621,-1005.23,0,0
112047.325,93.798,-1003.02,0,0
112307.65,93.8366,-1000.89,0,0
112567.975,94.0828,-999.076,0,0
112828.3,93.973,-997.198,0,0
113088.625,93.8697,-995.388,0,0
113348.95,93.676,-993.635,0,0
113609.275,93.3016,-991.881,0,0
113869.6,92.7773,-990.165,0,0
114129.925,91.8617,-988.262,0,0
114390.25,91.1474,-986.071,0,0
114650.575,90.5435,-983.893,0,0
114910.9,89.8536,-981.82,0,0
115171.225,88.9628,-979.587,0,0
115431.55,87.9793,-977.342,0,0
115691.875,86.9135,-974.918,0,0
115952.2,85.8901,-972.17,0,0
116212.525,85.0913,-969.265,0,0
116472.85,84.4693,-966.473,0,0
116733.175,83.7702,-963.695,0,0
116993.5,82.9863,-960.938,0,0
117253.825,82.1719,-957.958,0,0
117514.15,81.5104,-954.791,0,0
117774.475,80.996,-951.638,0,0
118034.8,80.6652,-948.404,0,0
118295.125,80.4002,-945.364,0,0
118555.45,80.0835,-942.18,0,0
118815.775,79.9028,-938.898,0,0
119076.1,79.8946,-935.686,0,0
119336.425,80.0693,-932.632,0,0
119596.75,80.1345,-929.604,0,0
119857.075,80.4857,-926.623,0,0
120117.4,80.778,-923.812,0,0
120377.725,81.0022,-921.166,0,0
120638.05,81.3583,-918.561,0,0
120898.375,81.507,-916.228,0,0
121158.7,81.4691,-913.842,0,0
121419.025,81.343,-911.421,0,0
121679.35,81.1906,-908.945,0,0
121939.675,80.8312,-906.423,0,0
122200.0,80.5368,-903.73,0,0
122460,80.296,-900.978,0,0
122721,80.0905,-898.196,0,0
122981,79.8269,-895.445,0,0
123241,79.5573,-892.509,0,0
123502,79.4633,-889.545,0,0
123762,79.3465,-886.5,0,0
124022,79.4195,-883.472,0,0
124283,79.5421,-880.451,0,0
124543,79.775,-877.523,0,0
124803,79.9633,-874.677,0,0
125064,80.0969,-871.845,0,0
125324,80.2899,-868.892,0,0
125584,80.6363,-865.968,0,0
125845,80.9682,-863.232,0,0
126105,81.2154,-860.391,0,0
126365,81.6626,-857.567,0,0
126626,82.0303,-854.834,0,0
126886,82.3375,-852.12,0,0
127146,82.6703,-849.582,0,0
127406,82.9488,-846.736,0,0
127667,83.3807,-843.981,0,0
127927,83.828,-841.155,0,0
128187,84.3519,-838.42,0,0
128448,84.8488,-835.787,0,0
128708,85.3159,-833.224,0,0
128968,85.6722,-830.554,0,0
129229,86.1359,-827.745,0,0
129489,86.6652,-824.938,0,0
129749,87.3861,-822.064,0,0
130010,88.353,-819.313,0,0
130270,89.3221,-816.727,0,0
130530,90.3692,-814.351,0,0
130791,91.375,-812.123,0,0
131051,92.2927,-809.946,0,0
131311,93.2394,-807.878,0,0
131572,94.0118,-806.04,0,0
131832,94.6402,-804.177,0,0
132092,95.1928,-802.284,0,0
132353,95.5827,-800.405,0,0
132613,95.9509,-798.329,0,0
132873,96.3816,-796.226,0,0
133134,96.8811,-794.195,0,0
133394,97.3151,-792.195,0,0
133654,97.6827,-790.135,0,0
133915,98.0511,-788.065,0,0
134175,98.4715,-786.069,0,0
134435,98.75,-784.092,0,0
134696,98.9874,-781.962,0,0
134956,99.259,-779.708,0,0
135216,99.6722,-777.505,0,0
135477,100.045,-775.291,0,0
135737,100.438,-773.07,0,0
135997,100.894,-770.679,0,0
136258,101.49,-768.333,0,0
136518,102.2,-766.039,0,0
136778,103.091,-763.932,0,0
137039,103.925,-761.952,0,0
137299,104.769,-759.949,0,0
137559,105.696,-758.216,0,0
137819,106.499,-756.837,0,0
138080,106.922,-755.472,0,0
138340.125,107.229,-753.899,0,0
138600.45,107.538,-752.362,0,0
138860.775,107.616,-750.853,0,0
139121.1,107.602,-749.072,0,0
139381.425,107.783,-747.216,0,0
139641.75,108.007,-745.426,0,0
139902.075,108.006,-743.641,0,0
140162.4,108.023,-741.765,0,0
140422.725,108.053,-739.767,0,0
140683.05,108.09,-737.767,0,0
140943.375,108.155,-735.676,0,0
141203.7,108.347,-733.538,0,0
141464.025,108.591,-731.517,0,0
141724.35,108.677,-729.554,0,0
141984.675,108.717,-727.297,0,0
142245.0,109.067,-725.056,0,0
142505.325,109.437,-723.029,0,0
142765.65,109.666,-721.065,0,0
143025.975,109.824,-718.945,0,0
143286.3,109.928,-716.827,0,0
143546.625,110.117,-714.583,0,0
143806.95,110.454,-712.335,0,0
144067.275,110.88,-710.175,0,0
144327.6,111.081,-708.037,0,0
144587.925,111.346,-705.683,0,0
144848.25,111.898,-703.387,0,0
145108.575,112.425,-701.209,0,0
145368.9,112.918,-699.142,0,0
145629.225,113.404,-697.043,0,0
145889.55,113.911,-694.988,0,0
146149.875,114.297,-693.013,0,0
146410.2,114.58,-690.793,0,0
146670.525,115.213,-688.501,0,0
146930.85,116.004,-686.519,0,0
147191.175,116.513,-684.806,0,0
147451.5,116.741,-683.021,0,0
147711.825,116.9,-681.011,0,0
147972.15,117.09,-678.855,0,0
148232.475,117.388,-676.499,0,0
148492.8,117.919,-674.228,0,0
148753.125,118.424,-672.008,0,0
149013.45,119.071,-669.756,0,0
149273.775,119.901,-667.696,0,0
149534.1,120.673,-665.938,0,0
149794.425,121.13,-664.442,0,0
150054.75,121.262,-662.831,0,0
150315.075,121.245,-661.013,0,0
150575.4,121.121,-659.065,0,0
150835.725,120.863,-656.922,0,0
151096.05,120.612,-654.437,0,0
151356.375,120.636,-651.758,0,0
151616.7,120.802,-649.117,0,0
151877.025,120.97,-646.522,0,0
152137.35,121.077,-643.853,0,0
152397.675,121.133,-641.033,0,0
152658.0,121.209,-637.891,0,0
152918.325,121.603,-634.511,0,0
153178.65,122.351,-631.166,0,0
153438.975,123.233,-627.954,0,0
153699.3,124.158,-624.764,0,0
153959.625,125.141,-621.467,0,0
154219.95,126.367,-618.108,0,0
154480,127.753,-614.889,0,0
154741,129.288,-611.648,0,0
155001,130.933,-608.569,0,0
155261,132.518,-605.516,0,0
155522,134.26,-602.235,0,0
155782,136.39,-599.045,0,0
156042,138.68,-596.078,0,0
156303,141.034,-593.306,0,0
156563,143.342,-590.582,0,0
156823,145.898,-587.812,0,0
157084,148.788,-585.297,0,0
157344,151.794,-583.259,0,0
157604,154.544,-581.586,0,0
157864,156.919,-579.948,0,0
158125,159.3,-578.151,0,0
158385,161.735,-576.468,0,0
158645,163.921,-574.989,0,0
158906,165.834,-573.185,0,0
159166,167.906,-571.028,0,0
159426,170.278,-568.567,0,0
159687,173.089,-566.044,0,0
159947,176.4,-563.741,0,0
160207,179.919,-561.791,0,0
160468,183.644,-560.04,0,0
160728,187.767,-558.594,0,0
160988,192.067,-557.67,0,0
161249,196.417,-557.35,0,0
161509,200.577,-557.554,0,0
161769,204.471,-558.323,0,0
162030,207.798,-559.503,0,0
162290,210.433,-560.695,0,0
162550,212.862,-561.58,0,0
162811,215.203,-562.478,0,0
163071,217.378,-563.375,0,0
163331,219.35,-564.095,0,0
163592,221.507,-564.755,0,0
163852,223.568,-565.622,0,0
164112,225.527,-566.451,0,0
164373,227.488,-567.338,0,0
164633,229.339,-568.156,0,0
164893,231.433,-569.013,0,0
165154,233.471,-570.235,0,0
165414,235.448,-571.498,0,0
165674,237.573,-573.084,0,0
165935,239.473,-575.179,0,0
166195,240.834,-577.674,0,0
166455,241.576,-580.129,0,0
166716,241.959,-582.276,0,0
166976,242.383,-584.288,0,0
167236,242.59,-586.564,0,0
167497,242.361,-588.73,0,0
167757,242.029,-590.77,0,0
168017,241.358,-592.991,0,0
168277,240.18,-595.014,0,0
168538,238.703,-596.734,0,0
168798,236.959,-598.155,0,0
169058,235.021,-599.238,0,0
169319,232.96,-600.009,0,0
169579,230.762,-600.369,0,0
169839,228.582,-600.279,0,0
170100,226.531,-599.768,0,0
170360.075,224.72,-598.851,0,0
170620.4,223.349,-597.9,0,0
170880.725,222.087,-597.011,0,0
171141.05,220.917,-595.995,0,0
171401.375,219.904,-594.989,0,0
171661.7,218.958,-594.062,0,0
171922.025,217.974,-593.073,0,0
172182.35,217.023,-591.951,0,0
172442.675,216.172,-590.795,0,0
172703.0,215.376,-589.626,0,0
172963.325,214.587,-588.366,0,0
173223.65,213.89,-586.996,0,0
173483.975,213.271,-585.586,0,0
173744.3,212.726,-584.085,0,0
174004.625,212.393,-582.496,0,0
174264.95,212.339,-581.057,0,0
174525.275,212.247,-579.734,0,0
174785.6,212.113,-578.392,0,0
175045.925,212.046,-577.068,0,0
175306.25,212.021,-575.671,0,0
175566.575,212.421,-574.346,0,0
175826.9,212.9,-573.429,0,0
176087.225,213.087,-572.71,0,0
176347.55,213.169,-572.007,0,0
176607.875,213.239,-571.357,0,0
176868.2,213.102,-570.743,0,0
177128.525,212.887,-569.976,0,0
177388.85,212.904,-569.217,0,0
177649.175,212.949,-568.704,0,0
177909.5,212.738,-568.405,0,0
178169.825,212.222,-568.138,0,0
178430.15,211.497,-567.69,0,0
178690.475,210.708,-567.141,0,0
178950.8,209.659,-566.485,0,0
179211.125,208.746,-565.52,0,0
179471.45,207.997,-564.601,0,0
179731.775,207.113,-563.868,0,0
179992.1,205.931,-563.033,0,0
180252.425,204.568,-562.011,0,0
180512.75,203.195,-560.681,0,0
180773.075,201.881,-559.268,0,0
181033.4,200.47,-557.567,0,0
181293.725,199.309,-555.687,0,0
181554.05,198.292,-553.825,0,0
181814.375,197.323,-551.996,0,0
182074.7,196.258,-550.132,0,0
182335.025,195.207,-548.229,0,0
182595.35,194.037,-546.225,0,0
182855.675,192.859,-544.116,0,0
183116.0,191.576,-541.817,0,0
183376.325,190.256,-539.212,0,0
183636.65,189.167,-536.322,0,0
183896.975,188.199,-533.272,0,0
184157.3,187.465,-530.101,0,0
184417.625,186.914,-526.893,0,0
184677.95,186.434,-523.535,0,0
184938.275,186.278,-520.035,0,0
185198.6,186.515,-516.609,0,0
185458.925,186.882,-513.456,0,0
185719.25,187.16,-510.384,0,0
185979.575,187.518,-507.16,0,0
186239.9,188.082,-503.998,0,0
186500,188.767,-500.961,0,0
186761,189.359,-498.027,0,0
187021,189.969,-495.086,0,0
187281,190.748,-492.068,0,0
187542,191.524,-489.114,0,0
187802,192.442,-486.341,0,0
188062,193.179,-483.545,0,0
188322,193.982,-480.65,0,0
188583,194.822,-477.82,0,0
188843,195.721,-474.976,0,0
189103,196.64,-472.154,0,0
189364,197.512,-469.239,0,0
189624,198.375,-466.334,0,0
189884,199.22,-463.291,0,0
190145,200.257,-460.203,0,0
190405,201.36,-457.125,0,0
190665,202.527,-454.078,0,0
190926,203.649,-451.047,0,0
191186,204.746,-447.891,0,0
191446,205.875,-444.587,0,0
191707,207.146,-441.189,0,0
191967,208.628,-437.714,0,0
192227,210.291,-434.247,0,0
192488,212.048,-430.89,0,0
192748,213.857,-427.478,0,0
193008,215.784,-424.074,0,0
193269,217.855,-420.743,0,0
193529,219.799,-417.476,0,0
193789,221.723,-414.127,0,0
194050,223.729,-410.682,0,0
194310,225.852,-407.167,0,0
194570,228.126,-403.426,0,0
194831,230.454,-399.767,0,0
195091,233.052,-395.913,0,0
195351,235.935,-392.193,0,0
195612,238.857,-388.524,0,0
195872,241.922,-384.866,0,0
196132,244.925,-381.146,0,0
196393,248.298,-377.186,0,0
196653,251.925,-373.271,0,0
196913,255.901,-369.49,0,0
197174,260.005,-365.913,0,0
197434,264.193,-362.341,0,0
197694,268.629,-358.687,0,0
197955,273.405,-355.371,0,0
198215,278.247,-352.183,0,0
198475,283.3,-349.223,0,0
198735,288.394,-346.458,0,0
198996,293.446,-343.996,0,0
199256,298.416,-341.578,0,0
199516,303.172,-339.15,0,0
199777,307.926,-336.476,0,0
200037,313.034,-333.614,0,0
200297,318.298,-330.634,0,0
200558,324.032,-327.53,0,0
200818,330.203,-324.691,0,0
201078,336.618,-321.935,0,0
201339,343.372,-319.2,0,0
201599,350.418,-316.708,0,0
201859,357.929,-314.283,0,0
202120,366.003,-312.212,0,0
202380.025,374.541,-310.648,0,0
202640.35,383.374,-309.888,0,0
202900.675,392.046,-309.678,0,0
203161.0,400.512,-309.69,0,0
203421.325,409.218,-309.731,0,0
203681.65,418.432,-309.913,0,0
203941.975,428.1,-310.894,0,0
204202.3,438.236,-312.551,0,0
204462.625,448.486,-315.181,0,0
204722.95,458.789,-318.891,0,0
204983.275,468.669,-323.815,0,0
205243.6,477.771,-329.664,0,0
205503.925,486.156,-335.919,0,0
205764.25,493.894,-342.622,0,0
206024.575,500.904,-349.679,0,0
206284.9,507.339,-356.864,0,0
206545.225,513.397,-364.358,0,0
206805.55,518.812,-372.387,0,0
207065.875,523.247,-380.683,0,0
207326.2,526.752,-388.827,0,0
207586.525,529.641,-396.625,0,0
207846.85,532.045,-404.244,0,0
208107.175,533.858,-411.727,0,0
208367.5,535.269,-418.783,0,0
208627.825,536.392,-425.681,0,0
208888.15,537.154,-432.507,0,0
209148.475,537.27,-439.071,0,0
209408.8,537.121,-445.24,0,0
209669.125,536.611,-451.233,0,0
209929.45,535.503,-456.926,0,0
210189.775,533.83,-461.89,0,0
210450.1,531.915,-466.012,0,0
210710.425,530.167,-469.33,0,0
210970.75,528.558,-472.098,0,0
211231.075,527.239,-474.326,0,0
211491.4,526.253,-476.209,0,0
211751.725,525.363,-477.743,0,0
212012.05,524.643,-478.692,0,0
212272.375,524.312,-479.065,0,0
212532.7,524.907,-478.881,0,0
212793.025,526.564,-478.684,0,0
213053.35,529.04,-478.954,0,0
213313.675,531.959,-479.899,0,0
213574.0,534.992,-481.46,0,0
213834.325,537.895,-483.437,0,0
214094.65,540.683,-485.551,0,0
214354.975,543.511,-487.795,0,0
214615.3,546.388,-490.286,0,0
214875.625,549.092,-492.893,0,0
215135.95,551.822,-495.474,0,0
215396.275,554.799,-498.044,0,0
215656.6,557.95,-501.087,0,0
215916.925,560.738,-504.588,0,0
216177.25,563.103,-507.914,0,0
216437.575,565.429,-510.956,0,0
216697.9,567.756,-513.748,0,0
216958.225,570.398,-516.208,0,0
217218.55,573.663,-518.595,0,0
217478.875,577.474,-521.402,0,0
217739.2,581.549,-524.722,0,0
217999.525,585.589,-528.544,0,0
218259.85,589.501,-532.755,0,0
218520,593.255,-537.105,0,0
218780,597.043,-541.491,0,0
219041,601.036,-545.942,0,0
219301,605.408,-550.733,0,0
219561,609.842,-556.078,0,0
219822,614.348,-561.989,0,0
220082,618.701,-568.426,0,0
220342,622.744,-575.048,0,0
220603,626.883,-581.971,0,0
220863,631.168,-589.453,0,0
221123,635.384,-597.681,0,0
221384,639.357,-606.53,0,0
221644,642.981,-616.159,0,0
221904,646,-626.53,0,0
222165,648.204,-637.528,0,0
222425,649.616,-648.979,0,0
222685,649.9,-660.678,0,0
222946,649.409,-672.464,0,0
223206,647.901,-683.948,0,0
223466,645.728,-695.185,0,0
223727,643.065,-706.102,0,0
223987,639.984,-716.746,0,0
224247,636.573,-727.273,0,0
224508,632.67,-737.742,0,0
224768,628.32,-748.276,0,0
225028,623.19,-758.572,0,0
225289,617.55,-768.534,0,0
225549,611.528,-778.041,0,0
225809,605.069,-787.223,0,0
226070,598.415,-796.239,0,0
226330,591.182,-805.091,0,0
226590,583.36,-813.511,0,0
226851,575.131,-821.558,0,0
227111,566.663,-829.152,0,0
227371,557.57,-836.293,0,0
227632,548.152,-842.884,0,0
227892,538.429,-848.861,0,0
228152,528.289,-854.16,0,0
228413,518.058,-858.729,0,0
228673,507.738,-862.487,0,0
228933,497.457,-865.514,0,0
229193,487.674,-867.776,0,0
229454,477.993,-869.771,0,0
229714,468.427,-871.363,0,0
229974,458.926,-872.364,0,0
230235,449.9,-873,0,0
230495,440.983,-873.172,0,0
230755,432.414,-872.958,0,0
231016,424.234,-872.394,0,0
231276,416.244,-871.622,0,0
231536,408.595,-870.635,0,0
231797,401.386,-869.237,0,0
232057,394.54,-867.869,0,0
232317,388.123,-866.431,0,0
232578,381.98,-865.093,0,0
232838,376.079,-863.751,0,0
233098,370.307,-862.503,0,0
233359,364.707,-861.327,0,0
233619,359.159,-860.194,0,0
233879,353.581,-859.062,0,0
234140,348.188,-857.837,0,0
234400,342.769,-856.527,0,0
234660.3,337.431,-855.182,0,0
234920.625,332.009,-853.897,0,0
235180.95,326.727,-852.391,0,0
235441.275,321.545,-850.908,0,0
235701.6,316.436,-849.105,0,0
235961.925,311.524,-847.358,0,0
236222.25,306.676,-845.516,0,0
236482.575,301.937,-843.683,0,0
236742.9,297.275,-841.717,0,0
237003.225,292.686,-839.783,0,0
237263.55,288.132,-837.682,0,0
237523.875,283.735,-835.524,0,0
237784.2,279.593,-833.258,0,0
238044.525,275.553,-831.098,0,0
238304.85,271.514,-829.022,0,0
238565.175,267.572,-826.854,0,0
238825.5,263.605,-824.565,0,0
239085.825,259.798,-822.393,0,0
239346.15,255.961,-820.003,0,0
239606.475,252.245,-817.619,0,0
239866.8,248.73,-815.095,0,0
240127.125,245.263,-812.59,0,0
240387.45,241.969,-810.162,0,0
240647.775,238.702,-807.757,0,0
240908.1,235.505,-805.412,0,0
241168.425,232.335,-802.93,0,0
241428.75,229.234,-800.428,0,0
241689.075,226.205,-797.901,0,0
241949.4,223.334,-795.285,0,0
242209.725,220.581,-792.672,0,0
242470.05,217.998,-790.137,0,0
242730.375,215.444,-787.677,0,0
242990.7,212.904,-785.246,0,0
243251.025,210.378,-782.771,0,0
243511.35,207.966,-780.307,0,0
243771.675,205.662,-777.963,0,0
244032.0,203.367,-775.577,0,0
244292.325,201.152,-773.36,0,0
244552.65,198.763,-771.13,0,0
244812.975,196.464,-768.884,0,0
245073.3,194.111,-766.539,0,0
245333.625,191.874,-764.157,0,0
245593.95,189.678,-761.739,0,0
245854.275,187.453,-759.391,0,0
246114.6,185.309,-756.952,0,0
246374.925,183.139,-754.498,0,0
246635.25,181.04,-752.03,0,0
246895.575,178.979,-749.486,0,0
247155.9,176.983,-746.874,0,0
247416.225,175.234,-744.244,0,0
247676.55,173.348,-741.69,0,0
247936.875,171.608,-739.122,0,0
248197.2,169.963,-736.522,0,0
248457.525,168.406,-733.982,0,0
248717.85,166.844,-731.398,0,0
248978.175,165.381,-728.922,0,0
249238.5,163.884,-726.369,0,0
249498.825,162.471,-723.859,0,0
249759.15,161.07,-721.351,0,0
250019.475,159.685,-718.864,0,0
250279.8,158.404,-716.421,0,0
250540,157.091,-713.912,0,0
250800,155.868,-711.407,0,0
251061,154.708,-708.901,0,0
251321,153.549,-706.418,0,0
251581,152.423,-703.938,0,0
251842,151.366,-701.466,0,0
252102,150.299,-698.942,0,0
252362,149.304,-696.465,0,0
252623,148.309,-693.956,0,0
252883,147.401,-691.397,0,0
253143,146.543,-688.862,0,0
253404,145.736,-686.307,0,0
253664,144.997,-683.76,0,0
253924,144.288,-681.192,0,0
254185,143.645,-678.628,0,0
254445,143.188,-675.988,0,0
254705,142.702,-673.488,0,0
254966,142.383,-671.001,0,0
255226,142.063,-668.628,0,0
255486,141.88,-666.258,0,0
255747,141.623,-663.967,0,0
256007,141.32,-661.708,0,0
256267,141.026,-659.418,0,0
256528,140.847,-657.034,0,0
256788,140.692,-654.749,0,0
257048,140.594,-652.494,0,0
257309,140.491,-650.214,0,0
257569,140.4,-647.955,0,0
257829,140.351,-645.651,0,0
258090,140.399,-643.338,0,0
258350,140.48,-640.987,0,0
258610,140.687,-638.634,0,0
258871,141.007,-636.254,0,0
259131,141.447,-633.922,0,0
259391,142.019,-631.673,0,0
259651,142.661,-629.442,0,0
259912,143.476,-627.295,0,0
260172,144.274,-625.189,0,0
260432,145.23,-623.322,0,0
260693,146.283,-621.451,0,0
260953,147.322,-619.711,0,0
261213,148.479,-618.077,0,0
261474,149.638,-616.609,0,0
261734,150.871,-615.248,0,0
261994,152.038,-614.056,0,0
262255,153.254,-612.916,0,0
262515,154.409,-611.922,0,0
262775,155.564,-610.997,0,0
263036,156.73,-610.161,0,0
263296,157.861,-609.386,0,0
263556,159.047,-608.722,0,0
263817,160.214,-608.162,0,0
264077,161.306,-607.704,0,0
264337,162.454,-607.347,0,0
264598,163.539,-607.077,0,0
264858,164.712,-606.839,0,0
265118,165.926,-606.874,0,0
265379,167.096,-607.046,0,0
265639,168.214,-607.491,0,0
265899,169.135,-608.21,0,0
266160,169.925,-609.052,0,0
266420,170.521,-610.095,0,0
266680.25,170.784,-611.276,0,0
266940.575,170.775,-612.533,0,0
267200.9,170.456,-613.769,0,0
267461.225,169.821,-614.925,0,0
267721.55,169.013,-616.094,0,0
267981.875,167.869,-617.062,0,0
268242.2,166.531,-617.959,0,0
268502.525,164.981,-618.631,0,0
268762.85,163.166,-619.065,0,0
269023.175,161.355,-619.192,0,0
269283.5,159.458,-619.037,0,0
269543.825,157.539,-618.699,0,0
269804.15,155.682,-618.124,0,0
270064.475,153.924,-617.324,0,0
270324.8,152.173,-616.393,0,0
270585.125,150.504,-615.267,0,0
270845.45,148.961,-613.992,0,0
271105.775,147.537,-612.566,0,0
271366.1,146.195,-611.022,0,0
271626.425,144.986,-609.395,0,0
271886.75,143.997,-607.67,0,0
272147.075,143.129,-605.968,0,0
272407.4,142.376,-604.197,0,0
272667.725,141.774,-602.369,0,0
272928.05,141.324,-600.539,0,0
273188.375,141.014,-598.77,0,0
273448.7,140.839,-597.018,0,0
273709.025,140.839,-595.307,0,0
273969.35,140.949,-593.686,0,0
274229.675,141.098,-592.221,0,0
274490.0,141.268,-590.845,0,0
274750.325,141.528,-589.545,0,0
275010.65,141.775,-588.269,0,0
275270.975,142.061,-587.083,0,0
275531.3,142.383,-585.999,0,0
275791.625,142.684,-584.925,0,0
276051.95,142.996,-583.874,0,0
276312.275,143.351,-582.835,0,0
276572.6,143.755,-581.851,0,0
276832.925,144.279,-580.916,0,0
277093.25,144.831,-580.112,0,0
277353.575,145.45,-579.461,0,0
277613.9,146.023,-578.974,0,0
277874.225,146.488,-578.607,0,0
278134.55,146.896,-578.299,0,0
278394.875,147.209,-578.03,0,0
278655.2,147.484,-577.785,0,0
278915.525,147.713,-577.589,0,0
279175.85,147.913,-577.487,0,0
279436.175,147.998,-577.413,0,0
279696.5,148.005,-577.41,0,0
279956.825,147.899,-577.41,0,0
280217.15,147.721,-577.337,0,0
280477.475,147.509,-577.303,0,0
280737.8,147.228,-577.23,0,0
280998.125,146.931,-577.151,0,0
281258.45,146.566,-577.14,0,0
281518.775,146.091,-577.173,0,0
281779.1,145.473,-577.165,0,0
282039.425,144.745,-577.032,0,0
282299.75,143.956,-576.809,0,0
282560,143.158,-576.515,0,0
282820,142.339,-576.143,0,0
283081,141.494,-575.709,0,0
283341,140.631,-575.203,0,0
283601,139.754,-574.638,0,0
283862,138.869,-574.001,0,0
284122,137.973,-573.238,0,0
284382,137.141,-572.467,0,0
284643,136.333,-571.598,0,0
284903,135.581,-570.685,0,0
285163,134.862,-569.746,0,0
285424,134.203,-568.833,0,0
285684,133.494,-567.919,0,0
285944,132.782,-567.012,0,0
286205,131.99,-566.026,0,0
286465,131.18,-564.964,0,0
286725,130.387,-563.777,0,0
286986,129.614,-562.504,0,0
287246,128.885,-561.124,0,0
287506,128.238,-559.624,0,0
287767,127.661,-558.054,0,0
288027,127.192,-556.362,0,0
288287,126.891,-554.608,0,0
288548,126.789,-552.792,0,0
288808,126.88,-551.018,0,0
289068,127.146,-549.357,0,0
289329,127.553,-547.835,0,0
289589,128.018,-546.423,0,0
289849,128.473,-545.193,0,0
290109,128.944,-544.004,0,0
290370,129.449,-542.931,0,0
290630,129.922,-541.917,0,0
290890,130.362,-540.952,0,0
291151,130.754,-540.03,0,0
291411,131.187,-539.137,0,0
291671,131.635,-538.307,0,0
291932,132.039,-537.568,0,0
292192,132.364,-536.879,0,0
292452,132.602,-536.29,0,0
292713,132.758,-535.64,0,0
292973,132.857,-534.985,0,0
293233,132.827,-534.274,0,0
293494,132.722,-533.458,0,0
293754,132.563,-532.531,0,0
294014,132.42,-531.434,0,0
294275,132.312,-530.211,0,0
294535,132.339,-528.833,0,0
294795,132.521,-527.365,0,0
295056,132.849,-525.857,0,0
295316,133.369,-524.337,0,0
295576,134.054,-522.85,0,0
295837,134.888,-521.441,0,0
296097,135.873,-520.124,0,0
296357,136.935,-518.957,0,0
296618,138.071,-517.916,0,0
296878,139.194,-517.023,0,0
297138,140.294,-516.215,0,0
297399,141.397,-515.445,0,0
297659,142.526,-514.747,0,0
297919,143.631,-514.087,0,0
298180,144.771,-513.48,0,0
298440,145.935,-512.924,0,0
298700.2,147.078,-512.431,0,0
298960.525,148.281,-512.043,0,0
299220.85,149.459,-511.647,0,0
299481.175,150.594,-511.392,0,0
299741.5,151.731,-511.137,0,0
300001.825,152.841,-510.931,0,0
300262.15,153.927,-510.763,0,0
300522.475,155.021,-510.491,0,0
300782.8,156.206,-510.254,0,0
301043.125,157.508,-510.097,0,0
301303.45,158.844,-510.028,0,0
301563.775,160.308,-509.958,0,0
301824.1,161.704,-510.157,0,0
302084.425,163.151,-510.409,0,0
302344.75,164.526,-510.848,0,0
302605.075,165.987,-511.443,0,0
302865.4,167.298,-512.172,0,0
303125.725,168.548,-512.996,0,0
303386.05,169.622,-513.828,0,0
303646.375,170.642,-514.745,0,0
303906.7,171.634,-515.691,0,0
304167.025,172.51,-516.618,0,0
304427.35,173.362,-517.72,0,0
304687.675,174.2,-518.778,0,0
304948.0,174.915,-519.857,0,0
305208.325,175.528,-521.007,0,0
305468.65,176.09,-522.164,0,0
305728.975,176.648,-523.342,0,0
305989.3,177.235,-524.677,0,0
306249.625,177.705,-525.927,0,0
306509.95,178.09,-527.31,0,0
306770.275,178.419,-528.786,0,0
307030.6,178.691,-530.302,0,0
307290.925,178.699,-531.796,0,0
307551.25,178.708,-533.414,0,0
307811.575,178.51,-534.943,0,0
308071.9,178.284,-536.502,0,0
308332.225,177.864,-537.992,0,0
308592.55,177.333,-539.454,0,0
308852.875,176.808,-540.788,0,0
309113.2,176.218,-542.064,0,0
309373.525,175.605,-543.323,0,0
309633.85,174.903,-544.498,0,0
309894.175,174.351,-545.773,0,0
310154.5,173.78,-546.966,0,0
310414.825,173.133,-548.283,0,0
310675.15,172.456,-549.583,0,0
310935.475,171.512,-551.061,0,0
311195.8,170.614,-552.497,0,0
311456.125,169.556,-553.922,0,0
311716.45,168.27,-555.345,0,0
311976.775,166.829,-556.669,0,0
312237.1,165.341,-557.861,0,0
312497.425,163.766,-559.042,0,0
312757.75,162.018,-560.051,0,0
313018.075,160.125,-560.915,0,0
313278.4,158.322,-561.588,0,0
313538.725,156.453,-562.173,0,0
313799.05,154.549,-562.594,0,0
314059.375,152.706,-562.974,0,0
314319.7,150.983,-563.191,0,0
314580,149.043,-563.263,0,0
314840,147.373,-563.366,0,0
315101,145.712,-563.351,0,0
315361,144.073,-563.4,0,0
315621,142.437,-563.3,0,0
315882,140.846,-563.245,0,0
316142,139.238,-563.071,0,0
316402,137.599,-562.93,0,0
316663,135.985,-562.696,0,0
316923,134.427,-562.384,0,0
317183,132.883,-562.041,0,0
317444,131.303,-561.723,0,0
317704,129.859,-561.301,0,0
317964,128.359,-560.891,0,0
318225,126.874,-560.339,0,0
318485,125.382,-559.849,0,0
318745,123.952,-559.325,0,0
319006,122.496,-558.69,0,0
319266,121.085,-557.989,0,0
319526,119.759,-557.372,0,0
319787,118.317,-556.644,0,0
320047,117.043,-555.897,0,0
320307,115.731,-555.089,0,0
320567,114.43,-554.182,0,0
320828,113.237,-553.308,0,0
321088,112.085,-552.414,0,0
321348,110.894,-551.455,0,0
321609,109.851,-550.494,0,0
321869,108.81,-549.561,0,0
322129,107.735,-548.513,0,0
322390,106.783,-547.484,0,0
322650,105.802,-546.397,0,0
322910,104.938,-545.334,0,0
323171,104.109,-544.264,0,0
323431,103.382,-543.151,0,0
323691,102.655,-542.037,0,0
323952,102.062,-540.899,0,0
324212,101.427,-539.794,0,0
324472,100.957,-538.756,0,0
324733,100.444,-537.714,0,0
324993,100.082,-536.707,0,0
325253,99.7213,-535.692,0,0
325514,99.3083,-534.771,0,0
325774,99.0798,-533.848,0,0
326034,98.7193,-533.01,0,0
326295,98.4687,-532.124,0,0
326555,98.2205,-531.384,0,0
326815,98.0255,-530.605,0,0
327076,97.8203,-529.879,0,0
327336,97.6413,-529.187,0,0
327596,97.4552,-528.572,0,0
327857,97.3047,-527.918,0,0
328117,97.0628,-527.438,0,0
328377,96.8614,-526.946,0,0
328638,96.6664,-526.477,0,0
328898,96.4487,-526.085,0,0
329158,96.1307,-525.65,0,0
329419,95.925,-525.344,0,0
329679,95.5361,-525.003,0,0
329939,95.2615,-524.728,0,0
330200,94.8899,-524.435,0,0
330460,94.3827,-524.154,0,0
330720.15,93.9776,-523.936,0,0
330980.475,93.4552,-523.699,0,0
331240.8,92.8934,-523.427,0,0
331501.125,92.2525,-523.122,0,0
331761.45,91.614,-522.786,0,0
332021.775,90.9742,-522.468,0,0
332282.1,90.2506,-522.152,0,0
332542.425,89.5559,-521.729,0,0
332802.75,88.8717,-521.309,0,0
333063.075,88.215,-520.937,0,0
333323.4,87.5269,-520.506,0,0
333583.725,86.6692,-520.001,0,0
333844.05,85.969,-519.575,0,0
334104.375,85.1743,-519.07,0,0
334364.7,84.3737,-518.477,0,0
334625.025,83.5833,-517.909,0,0
334885.35,82.7927,-517.292,0,0
335145.675,82.0238,-516.688,0,0
335406.0,81.2423,-515.998,0,0
335666.325,80.4928,-515.272,0,0
335926.65,79.6798,-514.417,0,0
336186.975,79.027,-513.769,0,0
336447.3,78.3524,-513.004,0,0
336707.625,77.6505,-512.202,0,0
336967.95,76.9919,-511.443,0,0
337228.275,76.4112,-510.589,0,0
337488.6,75.8165,-509.798,0,0
337748.925,75.1847,-508.993,0,0
338009.25,74.6582,-508.212,0,0
338269.575,74.056,-507.357,0,0
338529.9,73.498,-506.551,0,0
338790.225,73.0302,-505.743,0,0
339050.55,72.3469,-504.907,0,0
339310.875,71.8436,-504.099,0,0
339571.2,71.3406,-503.223,0,0
339831.525,70.9026,-502.395,0,0
340091.85,70.3993,-501.592,0,0
340352.175,69.9089,-500.639,0,0
340612.5,69.5065,-499.852,0,0
340872.825,69.0568,-499.011,0,0
341133.15,68.5872,-498.187,0,0
341393.475,68.1816,-497.429,0,0
341653.8,67.752,-496.534,0,0
341914.125,67.2957,-495.726,0,0
342174.45,66.8935,-494.91,0,0
342434.775,66.4537,-494.072,0,0
342695.1,66.01,-493.241,0,0
342955.425,65.638,-492.392,0,0
343215.75,65.2084,-491.622,0,0
343476.075,64.8514,-490.746,0,0
343736.4,64.4085,-489.967,0,0
343996.725,64.0278,-489.166,0,0
344257.05,63.6137,-488.276,0,0
344517.375,63.2056,-487.418,0,0
344777.7,62.7798,-486.567,0,0
345038.025,62.4342,-485.712,0,0
345298.35,61.9651,-484.82,0,0
345558.675,61.6758,-483.885,0,0
345819.0,61.3232,-482.97,0,0
346079.325,60.9708,-482.087,0,0
346339.65,60.5986,-481.158,0,0
346599.975,60.2772,-480.24,0,0
346860,59.9735,-479.314,0,0
347121,59.6733,-478.397,0,0
347381,59.3498,-477.394,0,0
347641,59.107,-476.457,0,0
347902,58.8806,-475.506,0,0
348162,58.7055,-474.575,0,0
348422,58.4457,-473.593,0,0
348683,58.2266,-472.664,0,0
348943,58.0213,-471.663,0,0
349203,57.8805,-470.732,0,0
349464,57.7811,-469.813,0,0
349724,57.683,-468.92,0,0
349984,57.5494,-467.937,0,0
350245,57.4162,-466.967,0,0
350505,57.3312,-466.057,0,0
350765,57.2493,-465.163,0,0
351025,57.2072,-464.245,0,0
351286,57.1503,-463.383,0,0
351546,57.1794,-462.516,0,0
351806,57.1315,-461.611,0,0
352067,57.1045,-460.806,0,0
352327,57.1054,-459.934,0,0
352587,57.0917,-459.144,0,0
352848,57.0712,-458.295,0,0
353108,57.041,-457.521,0,0
353368,57.0134,-456.685,0,0
353629,57.0736,-455.885,0,0
353889,57.0747,-455.089,0,0
354149,57.0016,-454.347,0,0
354410,57.0598,-453.548,0,0
354670,57.0518,-452.78,0,0
354930,57.0737,-451.996,0,0
355191,57.0851,-451.19,0,0
355451,57.0778,-450.383,0,0
355711,57.0758,-449.594,0,0
355972,57.1581,-448.793,0,0
356232,57.2815,-448.013,0,0
356492,57.3062,-447.273,0,0
356753,57.3948,-446.491,0,0
357013,57.4822,-445.797,0,0
357273,57.5812,-445.058,0,0
357534,57.6483,-444.381,0,0
357794,57.7036,-443.717,0,0
358054,57.78,-443.064,0,0
358315,57.8648,-442.344,0,0
358575,57.9115,-441.659,0,0
358835,57.9676,-440.941,0,0
359096,58.0773,-440.289,0,0
359356,58.1114,-439.615,0,0
359616,58.1959,-438.945,0,0
359877,58.2331,-438.288,0,0
360137,58.3202,-437.591,0,0
360397,58.362,-436.964,0,0
360658,58.4751,-436.278,0,0
360918,58.5588,-435.672,0,0
361178,58.5664,-435.023,0,0
361438,58.6566,-434.42,0,0
361699,58.729,-433.761,0,0
361959,58.7429,-433.122,0,0
362219,58.7955,-432.434,0,0
362480,58.8625,-431.747,0,0
362740.1,58.9642,-431.076,0,0
363000.425,59.0506,-430.398,0,0
363260.75,59.1024,-429.726,0,0
363521.075,59.2141,-429.124,0,0
363781.4,59.3253,-428.439,0,0
364041.725,59.4506,-427.827,0,0
364302.05,59.524,-427.227,0,0
364562.375,59.6427,-426.535,0,0
364822.7,59.6932,-425.94,0,0
365083.025,59.8202,-425.304,0,0
365343.35,59.9464,-424.697,0,0
365603.675,59.9982,-424.085,0,0
365864.0,60.0319,-423.484,0,0
366124.325,60.1282,-422.782,0,0
366384.65,60.1586,-422.115,0,0
366644.975,60.2449,-421.44,0,0
366905.3,60.2708,-420.802,0,0
367165.625,60.3178,-420.107,0,0
367425.95,60.3556,-419.443,0,0
367686.275,60.3981,-418.683,0,0
367946.6,60.4092,-417.903,0,0
368206.925,60.5271,-417.022,0,0
368467.25,60.6714,-416.148,0,0
368727.575,60.8385,-415.294,0,0
368987.9,61.0859,-414.344,0,0
369248.225,61.3317,-413.414,0,0
369508.55,61.7107,-412.481,0,0
369768.875,62.1768,-411.541,0,0
370029.2,62.7134,-410.749,0,0
370289.525,63.2293,-409.889,0,0
370549.85,63.8355,-409.118,0,0
370810.175,64.4614,-408.431,0,0
371070.5,65.1237,-407.751,0,0
371330.825,65.7899,-407.088,0,0
371591.15,66.4829,-406.504,0,0
371851.475,67.2291,-406.02,0,0
372111.8,67.8986,-405.542,0,0
372372.125,68.6632,-405.176,0,0
372632.45,69.3585,-404.802,0,0
372892.775,70.0624,-404.505,0,0
373153.1,70.7868,-404.192,0,0
373413.425,71.5168,-404.006,0,0
373673.75,72.1879,-403.89,0,0
373934.075,72.8007,-403.802,0,0
374194.4,73.4607,-403.753,0,0
374454.725,74.0306,-403.79,0,0
374715.05,74.5082,-403.854,0,0
374975.375,74.9602,-403.885,0,0
375235.7,75.3839,-403.899,0,0
375496.025,75.763,-403.981,0,0
375756.35,76.1085,-404.013,0,0
376016.675,76.4122,-404.036,0,0
376277.0,76.7169,-404.056,0,0
376537.325,76.9856,-404.047,0,0
376797.65,77.2802,-404.043,0,0
377057.975,77.6366,-404.106,0,0
377318.3,77.8923,-404.087,0,0
377578.625,78.2233,-404.136,0,0
377838.95,78.498,-404.2,0,0
378099.275,78.7088,-404.333,0,0
378359.6,78.9285,-404.378,0,0
378619.925,79.1532,-404.582,0,0
378880,79.2756,-404.675,0,0
379141,79.4309,-404.794,0,0
379401,79.5279,-404.875,0,0
379661,79.6477,-404.977,0,0
379922,79.7071,-404.984,0,0
380182,79.8576,-404.995,0,0
380442,80.0084,-405.091,0,0
380703,80.2363,-405.152,0,0
380963,80.4571,-405.318,0,0
381223,80.6636,-405.58,0,0
381483,80.8688,-405.944,0,0
381744,80.9569,-406.25,0,0
382004,80.8915,-406.651,0,0
382264,80.8223,-407.101,0,0
382525,80.7097,-407.482,0,0
382785,80.4512,-407.839,0,0
383045,80.1992,-408.245,0,0
383306,79.7971,-408.577,0,0
383566,79.417,-408.898,0,0
383826,78.9793,-409.19,0,0
384087,78.4657,-409.332,0,0
384347,77.9309,-409.533,0,0
384607,77.4185,-409.61,0,0
384868,76.834,-409.642,0,0
385128,76.2754,-409.654,0,0
385388,75.6778,-409.709,0,0
385649,75.0901,-409.603,0,0
385909,74.4568,-409.537,0,0
386169,73.8569,-409.377,0,0
386430,73.2183,-409.18,0,0
386690,72.5973,-408.907,0,0
386950,71.952,-408.599,0,0
387211,71.3308,-408.261,0,0
387471,70.7767,-407.849,0,0
387731,70.2571,-407.379,0,0
387992,69.7734,-406.871,0,0
388252,69.2767,-406.388,0,0
388512,68.9012,-405.877,0,0
388773,68.534,-405.374,0,0
389033,68.2289,-404.844,0,0
389293,67.9363,-404.327,0,0
389554,67.6357,-403.811,0,0
389814,67.4277,-403.345,0,0
390074,67.2176,-402.893,0,0
390335,66.9842,-402.479,0,0
390595,66.8213,-402.045,0,0
390855,66.6165,-401.644,0,0
391116,66.4093,-401.239,0,0
391376,66.1783,-400.867,0,0
391636,65.9938,-400.553,0,0
391896,65.7411,-400.166,0,0
392157,65.5425,-399.845,0,0
392417,65.295,-399.509,0,0
392677,65.0115,-399.223,0,0
392938,64.7065,-398.894,0,0
393198,64.3906,-398.601,0,0
393458,64.0637,-398.243,0,0
393719,63.6703,-397.896,0,0
393979,63.2504,-397.524,0,0
394239,62.8803,-397.123,0,0
394500,62.5058,-396.657,0,0
394760.05,62.0584,-396.216,0,0
395020.375,61.6211,-395.702,0,0
395280.7,61.2264,-395.157,0,0
395541.025,60.8522,-394.595,0,0
395801.35,60.5187,-393.975,0,0
396061.675,60.129,-393.417,0,0
396322.0,59.8429,-392.769,0,0
396582.325,59.5396,-392.112,0,0
396842.65,59.2677,-391.454,0,0
397102.975,59.0083,-390.804,0,0
397363.3,58.7556,-390.147,0,0
397623.625,58.5273,-389.495,0,0
397883.95,58.3106,-388.84,0,0
398144.275,58.1328,-388.153,0,0
398404.6,57.9114,-387.501,0,0
398664.925,57.7295,-386.851,0,0
398925.25,57.5741,-386.151,0,0
399185.575,57.3556,-385.473,0,0
399445.9,57.2327,-384.787,0,0
399706.225,57.0686,-384.039,0,0
399966.55,56.9605,-383.416,0,0
400006.6,56.916,-383.269,0,0