File: Accelerated corrosion test data/2025-10-12_18-00-03/sample_2.csv
Frequency (Hz),Impedance (ohms),Phase (Radians),Temperature (C),Humidity (%)
10000.0,239.996,-11299.6,0,0
10260.325,233.739,-11015.3,0,0
10520.65,228.141,-10745.6,0,0
10780.975,223.121,-10488.1,0,0
11041.3,217.746,-10243.6,0,0
11301.625,213.139,-10008.9,0,0
11561.95,209.361,-9784.21,0,0
11822.275,206.912,-9577.12,0,0
12082.6,201.4,-9369.56,0,0
12342.925,196.055,-9175.02,0,0
12603.25,191.545,-8985.76,0,0
12863.575,188.533,-8804.94,0,0
13123.9,184.983,-8633.13,0,0
13384.225,180.877,-8464.36,0,0
13644.55,178.776,-8301.63,0,0
13904.875,189.59,-8154.22,0,0
14165.2,172.786,-8005.2,0,0
14425.525,168.379,-7858.78,0,0
14685.8,170.483,-7715.2,0,0
14946.175,166.139,-7587.01,0,0
15206.5,167.765,-7467.54,0,0
15466.825,168.656,-7333.9,0,0
15727.15,157.711,-7221.98,0,0
15987.5,154.545,-7102.16,0,0
16247.8,154.683,-6990.07,0,0
16508.125,149.107,-6880.16,0,0
16768.45,146.42,-6773.56,0,0
17028.775,144.862,-6670.44,0,0
17289.1,143.023,-6571.33,0,0
17549.425,140.132,-6473.24,0,0
17809.75,138.004,-6378.25,0,0
18070.075,137.295,-6287.14,0,0
18330.4,134.856,-6197.26,0,0
18590.725,133.369,-6110.21,0,0
18851.05,132.034,-6025.47,0,0
19111.375,132.869,-5944.3,0,0
19371.7,132.425,-5867.67,0,0
19632.025,127.596,-5790.27,0,0
19892.35,125.167,-5713.59,0,0
20152.675,123.556,-5638.71,0,0
20413.0,122.682,-5565.83,0,0
20673.3,121.865,-5494.05,0,0
20933.65,122.39,-5423.34,0,0
21193.975,126.225,-5357.53,0,0
21454.3,132.089,-5297.09,0,0
21714.625,129.035,-5240.08,0,0
21974.9,125.805,-5175.25,0,0
22235.275,121.921,-5121.18,0,0
22495.6,118.406,-5062.06,0,0
22755.925,115.792,-5001.22,0,0
23016.25,115.57,-4947.07,0,0
23276.6,115.374,-4892.57,0,0
23536.9,111.97,-4838.94,0,0
23797.225,111.199,-4784.64,0,0
24057.55,109.784,-4734.43,0,0
24317.875,106.358,-4683.96,0,0
24578.2,104.832,-4633.54,0,0
24838.525,103.34,-4584.31,0,0
25098.85,102.901,-4535.96,0,0
25359.175,101.704,-4489.54,0,0
25619.5,100.689,-4443.37,0,0
25879.8,99.5615,-4397.68,0,0
26140.1,99.6895,-4353.84,0,0
26400.5,98.3876,-4310.61,0,0
26660.8,98.7326,-4269.8,0,0
26921.1,98.2378,-4227.83,0,0
27181.4,97.243,-4188.09,0,0
27441.8,94.6917,-4148.31,0,0
27702.1,93.8856,-4108.52,0,0
27962.4,92.8799,-4068.9,0,0
28222.7,93.0151,-4030.91,0,0
28483.1,92.3742,-3993.53,0,0
28743.4,91.4998,-3956.19,0,0
29003.7,93.0246,-3919.77,0,0
29264,93.1249,-3884.26,0,0
29524.4,95.857,-3849.51,0,0
29784.7,97.9219,-3820.56,0,0
30045,94.7661,-3788.71,0,0
30305.3,96.097,-3756.53,0,0
30565.7,92.5797,-3728.02,0,0
30826,89.9577,-3696.01,0,0
31086.3,88.7369,-3664.37,0,0
31346.6,87.6006,-3633.26,0,0
31607,87.3136,-3603.65,0,0
31867.3,85.0849,-3573.97,0,0
32127.6,84.1721,-3543.72,0,0
32387.9,84.8177,-3514.06,0,0
32648.3,85.9801,-3486.41,0,0
32908.6,85.0322,-3459.98,0,0
33168.9,83.8211,-3434.08,0,0
33429.2,82.2566,-3406.66,0,0
33689.6,81.9905,-3380.18,0,0
33949.9,80.7175,-3354.62,0,0
34210.2,79.13,-3328.71,0,0
34470.5,78.451,-3302.89,0,0
34730.9,77.8236,-3277.66,0,0
34991.2,77.5426,-3252.69,0,0
35251.5,76.8466,-3228.54,0,0
35511.8,76.4123,-3204.14,0,0
35772.2,75.9548,-3180.76,0,0
36032.5,75.2681,-3157.83,0,0
36292.8,74.5577,-3134.48,0,0
36553.1,74.2,-3111.63,0,0
36813.5,73.8942,-3089.35,0,0
37073.8,73.5643,-3067.28,0,0
37334.1,73.1351,-3045.53,0,0
37594.4,72.6134,-3024.18,0,0
37854.8,72.3708,-3003.05,0,0
38115.1,71.8983,-2982.75,0,0
38375.4,71.046,-2961.85,0,0
38635.7,70.8153,-2941.44,0,0
38896.1,70.4832,-2921.33,0,0
39156.4,69.866,-2901.64,0,0
39416.7,69.5253,-2882.04,0,0
39677,69.2151,-2862.69,0,0
39937.4,68.8048,-2843.61,0,0
40197.7,68.5651,-2824.98,0,0
40458,68.1349,-2806.07,0,0
40718.3,68.0312,-2787.77,0,0
40978.7,67.7821,-2769.88,0,0
41239,67.5418,-2751.86,0,0
41499.3,67.3661,-2734.32,0,0
41759.6,66.923,-2716.85,0,0
42020,66.7749,-2699.59,0,0
42280.275,66.6173,-2683,0,0
42540.6,66.3022,-2666.36,0,0
42800.925,65.651,-2649.72,0,0
43061.25,65.4774,-2633.1,0,0
43321.575,65.2292,-2616.71,0,0
43581.9,64.9311,-2600.98,0,0
43842.225,64.5157,-2584.97,0,0
44102.55,64.5965,-2569.16,0,0
44362.875,64.3316,-2553.93,0,0
44623.2,64.0062,-2538.78,0,0
44883.525,63.4229,-2523.65,0,0
45143.85,63.4499,-2508.1,0,0
45404.175,63.5913,-2493.5,0,0
45664.5,63.2359,-2479.11,0,0
45924.825,63.201,-2464.09,0,0
46185.15,63.2459,-2450.53,0,0
46445.475,62.6106,-2436.6,0,0
46705.8,62.3146,-2422.16,0,0
46966.125,62.1614,-2408.14,0,0
47226.45,62.497,-2394.29,0,0
47486.775,62.4827,-2381.38,0,0
47747.1,62.0626,-2367.99,0,0
48007.425,61.9188,-2354.33,0,0
48267.75,62.6797,-2341.04,0,0
48528.075,62.8669,-2329.25,0,0
48788.4,62.426,-2316.84,0,0
49048.725,62.1472,-2304.68,0,0
49309.05,61.3783,-2292.41,0,0
49569.375,60.8275,-2280.02,0,0
49829.7,60.3298,-2267.71,0,0
50090.025,59.8901,-2255.48,0,0
50350.35,59.3186,-2243.14,0,0
50610.675,59.2587,-2230.98,0,0
50871.0,59.2049,-2219.24,0,0
51131.325,58.9942,-2207.72,0,0
51391.65,58.669,-2196.29,0,0
51651.975,58.0948,-2184.79,0,0
51912.3,57.6522,-2173.3,0,0
52172.625,57.3018,-2161.81,0,0
52432.95,57.0391,-2150.61,0,0
52693.275,56.7214,-2139.34,0,0
52953.6,56.408,-2128.13,0,0
53213.925,56.3946,-2117,0,0
53474.25,56.185,-2106.27,0,0
53734.575,55.9362,-2095.45,0,0
53994.9,55.8032,-2084.71,0,0
54255.225,55.7675,-2074.02,0,0
54515.55,55.7526,-2063.63,0,0
54775.875,55.6266,-2053.34,0,0
55036.2,55.3804,-2043.03,0,0
55296.525,55.327,-2032.77,0,0
55556.85,55.252,-2022.54,0,0
55817.175,55.3309,-2012.64,0,0
56077.5,55.1948,-2002.72,0,0
56337.825,55.2154,-1992.9,0,0
56598.15,55.118,-1983.14,0,0
56858.475,55.1834,-1973.4,0,0
57118.8,55.2069,-1963.72,0,0
57379.125,55.2373,-1954.25,0,0
57639.45,55.2977,-1944.87,0,0
57899.775,55.3262,-1935.57,0,0
58160.1,55.3286,-1926.61,0,0
58420.4,55.2122,-1917.33,0,0
58680.7,55.2505,-1908,0,0
58941.1,55.5058,-1898.9,0,0
59201.4,55.6145,-1889.87,0,0
59461.7,55.7934,-1881.04,0,0
59722,56.207,-1872.17,0,0
59982.4,57.006,-1863.42,0,0
60242.7,57.4195,-1855.45,0,0
60503,57.4028,-1847.41,0,0
60763.3,57.4581,-1838.79,0,0
61023.7,58.0795,-1830.59,0,0
61284,58.6666,-1822.5,0,0
61544.3,59.424,-1814.8,0,0
61804.6,60.0893,-1807.74,0,0
62065,59.9359,-1801.29,0,0
62325.3,59.0844,-1793.82,0,0
62585.6,59.0872,-1786.47,0,0
62845.9,58.7229,-1779.65,0,0
63106.3,57.5318,-1772.67,0,0
63366.6,56.582,-1764.86,0,0
63626.9,56.0333,-1756.96,0,0
63887.2,55.538,-1749.5,0,0
64147.6,55.0875,-1742.04,0,0
64407.9,54.3516,-1734.56,0,0
64668.2,53.9314,-1726.96,0,0
64928.5,53.179,-1719.71,0,0
65188.9,52.0228,-1711.99,0,0
65449.2,51.5321,-1703.53,0,0
65709.5,51.573,-1695.53,0,0
65969.8,51.8727,-1687.9,0,0
66230.2,52.0797,-1680.47,0,0
66490.5,52.3442,-1673.2,0,0
66750.8,52.204,-1665.97,0,0
67011.1,52.2479,-1658.48,0,0
67271.5,52.6035,-1651.1,0,0
67531.8,53.2091,-1643.98,0,0
67792.1,53.7902,-1637.03,0,0
68052.4,54.5077,-1630.63,0,0
68312.8,54.5062,-1624.34,0,0
68573.1,54.8629,-1617.62,0,0
68833.4,55.3943,-1610.89,0,0
69093.7,56.1775,-1605.03,0,0
69354.1,56.2702,-1599.14,0,0
69614.4,56.8356,-1593.4,0,0
69874.7,56.8976,-1588.17,0,0
70135,56.6047,-1582.84,0,0
70395.4,56.0012,-1577.59,0,0
70655.7,54.8572,-1571.96,0,0
70916,53.9123,-1565.85,0,0
71176.3,53.3389,-1559.77,0,0
71436.7,52.72,-1553.8,0,0
71697,52.1446,-1547.99,0,0
71957.3,51.021,-1542.25,0,0
72217.6,49.8096,-1536.01,0,0
72478,48.9163,-1529.54,0,0
72738.3,48.1205,-1522.87,0,0
72998.6,47.6616,-1516.11,0,0
73258.9,47.363,-1509.83,0,0
73519.3,46.7604,-1503.5,0,0
73779.6,46.2777,-1496.91,0,0
74039.9,46.1466,-1490.22,0,0
74300.225,46.135,-1483.82,0,0
74560.55,46.091,-1477.52,0,0
74820.875,46.1856,-1471.13,0,0
75081.2,46.3854,-1464.88,0,0
75341.525,46.5653,-1458.71,0,0
75601.85,46.8894,-1452.63,0,0
75862.175,47.1984,-1446.56,0,0
76122.5,47.5704,-1440.64,0,0
76382.825,48.0504,-1434.82,0,0
76643.15,48.5246,-1429.14,0,0
76903.475,48.9586,-1423.46,0,0
77163.8,49.4809,-1417.79,0,0
77424.125,50.2158,-1412.22,0,0
77684.45,50.8826,-1406.9,0,0
77944.775,51.6915,-1401.73,0,0
78205.1,52.3624,-1396.78,0,0
78465.425,53.0857,-1392.03,0,0
78725.75,53.5434,-1387.44,0,0
78986.075,54.0395,-1383,0,0
79246.4,54.2914,-1378.75,0,0
79506.725,54.34,-1374.55,0,0
79767.05,54.0736,-1370.44,0,0
80027.375,53.4053,-1366.25,0,0
80287.7,52.6685,-1361.48,0,0
80548.025,52.0491,-1356.72,0,0
80808.35,51.3479,-1351.75,0,0
81068.675,50.9744,-1346.72,0,0
81329.0,50.5912,-1341.75,0,0
81589.325,50.1668,-1336.77,0,0
81849.65,49.8088,-1331.65,0,0
82109.975,49.526,-1326.52,0,0
82370.3,49.3384,-1321.43,0,0
82630.625,49.1516,-1316.23,0,0
82890.95,49.1951,-1311.16,0,0
83151.275,49.2308,-1306.04,0,0
83411.6,49.3975,-1301.05,0,0
83671.925,49.5436,-1296.21,0,0
83932.25,49.7392,-1291.4,0,0
84192.575,49.9386,-1286.6,0,0
84452.9,50.1291,-1281.93,0,0
84713.225,50.1957,-1277.28,0,0
84973.55,50.3541,-1272.62,0,0
85233.875,50.5351,-1267.92,0,0
85494.2,50.8864,-1263.3,0,0
85754.525,51.2627,-1258.84,0,0
86014.85,51.469,-1254.51,0,0
86275.175,51.7643,-1250.22,0,0
86535.5,51.8043,-1246.03,0,0
86795.825,51.8058,-1241.58,0,0
87056.15,52.1825,-1237.17,0,0
87316.475,52.5461,-1233.08,0,0
87576.8,52.545,-1229.23,0,0
87837.125,52.4614,-1224.92,0,0
88097.45,52.4743,-1220.71,0,0
88357.775,52.7688,-1216.5,0,0
88618.1,52.6155,-1212.83,0,0
88878.425,52.1569,-1208.44,0,0
89138.75,52.2202,-1203.85,0,0
89399.075,52.4861,-1199.56,0,0
89659.4,52.8738,-1195.28,0,0
89919.725,53.2121,-1191.43,0,0
90180,53.1954,-1187.8,0,0
90440.4,52.8837,-1183.81,0,0
90700.7,52.5699,-1179.43,0,0
90961,52.839,-1174.77,0,0
91221.3,53.4713,-1170.75,0,0
91481.7,53.5198,-1166.98,0,0
91742,53.5229,-1162.8,0,0
92002.3,53.8896,-1158.55,0,0
92262.6,54.4145,-1154.43,0,0
92523,54.9591,-1150.67,0,0
92783.3,55.4457,-1146.88,0,0
93043.6,55.9504,-1143.2,0,0
93303.9,56.384,-1139.72,0,0
93564.3,56.7804,-1136.06,0,0
93824.6,57.4685,-1132.95,0,0
94084.9,57.4443,-1130.05,0,0
94345.2,57.1497,-1126.75,0,0
94605.6,57.0613,-1123.06,0,0
94865.9,57.1656,-1119.78,0,0
95126.2,56.6878,-1116.74,0,0
95386.5,55.921,-1112.79,0,0
95646.9,55.7344,-1108.39,0,0
95907.2,56.3253,-1104.14,0,0
96167.5,57.1606,-1100.29,0,0
96427.8,57.936,-1097.07,0,0
96688.2,58.3438,-1093.95,0,0
96948.5,58.9204,-1090.79,0,0
97208.8,59.487,-1088.01,0,0
97469.1,59.6218,-1085.52,0,0
97729.5,59.4439,-1082.77,0,0
97989.8,59.2015,-1080.05,0,0
98250.1,58.8796,-1077.08,0,0
98510.4,58.8079,-1074.26,0,0
98770.8,58.4685,-1071.88,0,0
99031.1,57.6439,-1069.3,0,0
99291.4,56.4343,-1066.51,0,0
99551.7,55.1794,-1063.23,0,0
99812.1,54.0809,-1059.44,0,0
100072,53.4495,-1055.57,0,0
100333,53.2499,-1051.93,0,0
100593,52.8292,-1048.83,0,0
100853,51.9424,-1045.62,0,0
101114,50.9164,-1042.15,0,0
101374,49.8651,-1038.39,0,0
101634,48.9455,-1034.25,0,0
101895,48.3725,-1030.01,0,0
102155,48.0497,-1025.85,0,0
102415,47.7976,-1021.87,0,0
102676,47.4243,-1017.96,0,0
102936,47.0149,-1013.7,0,0
103196,46.8801,-1009.44,0,0
103457,46.8215,-1005.15,0,0
103717,46.923,-1000.81,0,0
103977,47.3292,-996.443,0,0
104238,47.9386,-992.222,0,0
104498,48.7299,-988.231,0,0
104758,49.5473,-984.397,0,0
105019,50.3879,-980.789,0,0
105279,51.182,-977.166,0,0
105539,52.0369,-973.571,0,0
105800,53.1887,-970.174,0,0
106060,54.3404,-967.121,0,0
106320.175,55.2946,-964.263,0,0
106580.5,56.2941,-961.595,0,0
106840.825,57.0799,-959.209,0,0
107101.15,57.5988,-956.822,0,0
107361.475,57.9743,-954.6,0,0
107621.8,58.0953,-952.288,0,0
107882.125,58.197,-950.109,0,0
108142.45,57.8099,-947.967,0,0
108402.775,57.2409,-945.35,0,0
108663.1,56.8985,-942.609,0,0
108923.425,56.3974,-939.953,0,0
109183.75,55.7091,-937.07,0,0
109444.075,55.1484,-933.949,0,0
109704.4,54.6508,-930.889,0,0
109964.725,54.0438,-927.672,0,0
110225.05,53.5253,-924.26,0,0
110485.375,53.0479,-920.727,0,0
110745.7,52.8634,-917.176,0,0
111006.025,52.8333,-913.599,0,0
111266.35,52.6885,-910.116,0,0
111526.675,52.7096,-906.572,0,0
111787.0,52.8885,-903.053,0,0
112047.325,52.9945,-899.657,0,0
112307.65,53.0815,-896.224,0,0
112567.975,53.3111,-892.734,0,0
112828.3,53.5764,-889.307,0,0
113088.625,53.8467,-885.812,0,0
113348.95,54.3175,-882.335,0,0
113609.275,54.7528,-879.028,0,0
113869.6,55.208,-875.723,0,0
114129.925,55.7166,-872.394,0,0
114390.25,56.2639,-869.112,0,0
114650.575,56.8284,-865.9,0,0
114910.9,57.4237,-862.627,0,0
115171.225,58.1809,-859.5,0,0
115431.55,58.9088,-856.512,0,0
115691.875,59.6086,-853.537,0,0
115952.2,60.3756,-850.571,0,0
116212.525,61.1064,-847.638,0,0
116472.85,61.9245,-844.821,0,0
116733.175,62.6786,-842.109,0,0
116993.5,63.4397,-839.455,0,0
117253.825,64.1482,-836.834,0,0
117514.15,64.8777,-834.233,0,0
117774.475,65.6425,-831.737,0,0
118034.8,66.3358,-829.394,0,0
118295.125,66.9344,-827.123,0,0
118555.45,67.4219,-824.759,0,0
118815.775,68.0415,-822.455,0,0
119076.1,68.513,-820.354,0,0
119336.425,68.7877,-818.139,0,0
119596.75,69.1757,-815.89,0,0
119857.075,69.5415,-813.829,0,0
120117.4,69.7117,-811.807,0,0
120377.725,69.7481,-809.771,0,0
120638.05,69.6311,-807.728,0,0
120898.375,69.3338,-805.515,0,0
121158.7,69.0671,-803.132,0,0
121419.025,68.8603,-800.708,0,0
121679.35,68.6355,-798.281,0,0
121939.675,68.3174,-795.788,0,0
122200.0,67.9659,-793.152,0,0
122460,67.6949,-790.408,0,0
122721,67.51,-787.634,0,0
122981,67.336,-784.857,0,0
123241,67.1897,-782.004,0,0
123502,67.0523,-779.203,0,0
123762,66.8994,-776.305,0,0
124022,66.8088,-773.358,0,0
124283,66.7457,-770.347,0,0
124543,66.7873,-767.316,0,0
124803,66.8697,-764.287,0,0
125064,66.9948,-761.23,0,0
125324,67.1874,-758.167,0,0
125584,67.4751,-755.144,0,0
125845,67.7891,-752.148,0,0
126105,68.139,-749.178,0,0
126365,68.5152,-746.257,0,0
126626,68.9038,-743.341,0,0
126886,69.2921,-740.418,0,0
127146,69.7348,-737.459,0,0
127406,70.2432,-734.621,0,0
127667,70.7888,-731.84,0,0
127927,71.2885,-729.116,0,0
128187,71.7459,-726.377,0,0
128448,72.2369,-723.642,0,0
128708,72.7004,-721.005,0,0
128968,73.1993,-718.337,0,0
129229,73.6297,-715.736,0,0
129489,73.98,-713.147,0,0
129749,74.3003,-710.442,0,0
130010,74.706,-707.733,0,0
130270,75.0955,-705.035,0,0
130530,75.4806,-702.345,0,0
130791,75.9085,-699.624,0,0
131051,76.3525,-696.959,0,0
131311,76.7816,-694.37,0,0
131572,77.1173,-691.708,0,0
131832,77.468,-689.079,0,0
132092,77.7718,-686.473,0,0
132353,77.9358,-683.778,0,0
132613,78.1598,-680.927,0,0
132873,78.4274,-677.999,0,0
133134,78.8026,-675.068,0,0
133394,79.2295,-672.142,0,0
133654,79.6929,-669.249,0,0
133915,80.1653,-666.402,0,0
134175,80.5726,-663.601,0,0
134435,80.8964,-660.649,0,0
134696,81.3509,-657.592,0,0
134956,81.8507,-654.568,0,0
135216,82.3835,-651.525,0,0
135477,82.9602,-648.431,0,0
135737,83.6308,-645.345,0,0
135997,84.3416,-642.303,0,0
136258,85.0973,-639.268,0,0
136518,85.9033,-636.33,0,0
136778,86.5695,-633.402,0,0
137039,87.2284,-630.354,0,0
137299,87.9612,-627.246,0,0
137559,88.7975,-624.156,0,0
137819,89.6976,-621.102,0,0
138080,90.5671,-618.133,0,0
138340.125,91.3587,-615.144,0,0
138600.45,92.1339,-612.08,0,0
138860.775,92.9828,-608.937,0,0
139121.1,93.8377,-605.795,0,0
139381.425,94.7159,-602.637,0,0
139641.75,95.5874,-599.427,0,0
139902.075,96.3908,-596.145,0,0
140162.4,97.2883,-592.626,0,0
140422.725,98.317,-589.012,0,0
140683.05,99.5475,-585.33,0,0
140943.375,100.917,-581.6,0,0
141203.7,102.497,-577.829,0,0
141464.025,104.301,-574.159,0,0
141724.35,106.193,-570.534,0,0
141984.675,108.275,-566.951,0,0
142245.0,110.49,-563.504,0,0
142505.325,112.813,-560.124,0,0
142765.65,115.292,-556.849,0,0
143025.975,117.89,-553.847,0,0
143286.3,120.379,-550.97,0,0
143546.625,122.85,-548.113,0,0
143806.95,125.383,-545.33,0,0
144067.275,127.921,-542.597,0,0
144327.6,130.506,-539.968,0,0
144587.925,132.987,-537.347,0,0
144848.25,135.585,-534.593,0,0
145108.575,138.382,-531.943,0,0
145368.9,141.224,-529.415,0,0
145629.225,144.149,-526.973,0,0
145889.55,147.089,-524.677,0,0
146149.875,149.982,-522.368,0,0
146410.2,152.997,-520.037,0,0
146670.525,156.167,-517.769,0,0
146930.85,159.413,-515.626,0,0
147191.175,162.786,-513.528,0,0
147451.5,166.383,-511.604,0,0
147711.825,169.954,-509.996,0,0
147972.15,173.377,-508.404,0,0
148232.475,176.983,-506.737,0,0
148492.8,180.779,-505.199,0,0
148753.125,184.781,-503.774,0,0
149013.45,189.101,-502.48,0,0
149273.775,193.79,-501.645,0,0
149534.1,198.64,-501.378,0,0
149794.425,203.473,-501.762,0,0
150054.75,207.999,-502.622,0,0
150315.075,212.501,-503.776,0,0
150575.4,217.078,-505.674,0,0
150835.725,221.003,-508.507,0,0
151096.05,223.906,-511.606,0,0
151356.375,226.317,-514.59,0,0
151616.7,228.399,-517.858,0,0
151877.025,229.541,-521.438,0,0
152137.35,229.809,-524.634,0,0
152397.675,229.602,-527.336,0,0
152658.0,229.126,-529.548,0,0
152918.325,228.58,-531.451,0,0
153178.65,227.929,-533.264,0,0
153438.975,227.008,-535.022,0,0
153699.3,225.572,-536.625,0,0
153959.625,223.72,-537.613,0,0
154219.95,221.814,-537.929,0,0
154480,220.114,-537.883,0,0
154741,218.459,-537.471,0,0
155001,217.029,-536.858,0,0
155261,215.752,-535.961,0,0
155522,214.714,-535.183,0,0
155782,213.703,-534.385,0,0
156042,212.448,-533.518,0,0
156303,211.111,-532.093,0,0
156563,210.195,-530.532,0,0
156823,209.357,-528.997,0,0
157084,208.372,-527.362,0,0
157344,207.336,-525.216,0,0
157604,206.763,-522.884,0,0
157864,206.622,-520.332,0,0
158125,206.816,-517.993,0,0
158385,207.334,-515.576,0,0
158645,208.152,-513.479,0,0
158906,209.122,-511.636,0,0
159166,210.164,-510.038,0,0
159426,211.1,-508.649,0,0
159687,212.233,-507.529,0,0
159947,213.053,-506.838,0,0
160207,213.427,-506.049,0,0
160468,213.57,-505.096,0,0
160728,213.865,-503.861,0,0
160988,214.095,-502.352,0,0
161249,215.156,-500.752,0,0
161509,216.382,-499.93,0,0
161769,217.435,-499.349,0,0
162030,218.486,-499.109,0,0
162290,219.314,-499.405,0,0
162550,219.672,-500.076,0,0
162811,219.463,-500.918,0,0
163071,218.298,-501.843,0,0
163331,216.512,-502.218,0,0
163592,214.535,-502.095,0,0
163852,212.339,-501.707,0,0
164112,209.661,-500.738,0,0
164373,207.037,-499.121,0,0
164633,204.734,-496.92,0,0
164893,202.628,-494.544,0,0
165154,200.79,-492.097,0,0
165414,198.73,-489.731,0,0
165674,196.466,-486.847,0,0
165935,194.363,-483.419,0,0
166195,192.606,-479.866,0,0
166455,190.999,-475.9,0,0
166716,189.607,-471.62,0,0
166976,188.738,-467.228,0,0
167236,188.191,-463.063,0,0
167497,187.564,-458.797,0,0
167757,187.104,-454.283,0,0
168017,186.931,-449.726,0,0
168277,187.005,-444.977,0,0
168538,187.467,-440.363,0,0
168798,188.101,-435.887,0,0
169058,188.738,-431.517,0,0
169319,189.359,-427.212,0,0
169579,190.077,-422.698,0,0
169839,190.956,-418.128,0,0
170100,192.06,-413.616,0,0
170360.075,193.132,-409.385,0,0
170620.4,194.023,-404.938,0,0
170880.725,194.811,-400.051,0,0
171141.05,196.078,-394.753,0,0
171401.375,197.781,-389.517,0,0
171661.7,199.78,-384.327,0,0
171922.025,202.034,-379.273,0,0
172182.35,204.327,-374.313,0,0
172442.675,206.753,-369.275,0,0
172703.0,209.456,-364.178,0,0
172963.325,212.347,-359.068,0,0
173223.65,215.4,-353.993,0,0
173483.975,218.71,-348.808,0,0
173744.3,222.34,-343.575,0,0
174004.625,226.36,-338.446,0,0
174264.95,230.745,-333.278,0,0
174525.275,235.66,-328.341,0,0
174785.6,241.081,-323.726,0,0
175045.925,246.786,-319.59,0,0
175306.25,252.808,-315.971,0,0
175566.575,258.841,-312.997,0,0
175826.9,264.823,-310.436,0,0
176087.225,270.733,-308.407,0,0
176347.55,276.213,-306.914,0,0
176607.875,281.101,-305.344,0,0
176868.2,286.086,-303.447,0,0
177128.525,291.412,-301.483,0,0
177388.85,297.193,-299.955,0,0
177649.175,303.225,-299.24,0,0
177909.5,308.741,-299.419,0,0
178169.825,313.525,-299.899,0,0
178430.15,317.826,-300.495,0,0
178690.475,321.698,-301.326,0,0
178950.8,324.845,-302.176,0,0
179211.125,327.522,-302.901,0,0
179471.45,329.203,-303.507,0,0
179731.775,331.423,-302.627,0,0
179992.1,332.394,-302.166,0,0
180252.425,333.27,-300.834,0,0
180512.75,334.223,-298.954,0,0
180773.075,335.169,-296.491,0,0
181033.4,336.188,-293.316,0,0
181293.725,337.661,-289.357,0,0
181554.05,339.745,-284.929,0,0
181814.375,342.74,-280.035,0,0
182074.7,346.735,-275.555,0,0
182335.025,350.837,-271.683,0,0
182595.35,354.774,-267.819,0,0
182855.675,358.855,-263.638,0,0
183116.0,363.284,-259.212,0,0
183376.325,368.233,-254.712,0,0
183636.65,373.65,-250.388,0,0
183896.975,379.229,-246.196,0,0
184157.3,384.995,-241.731,0,0
184417.625,391.346,-237.091,0,0
184677.95,398.611,-232.689,0,0
184938.275,406.475,-228.85,0,0
185198.6,414.56,-225.592,0,0
185458.925,422.769,-222.638,0,0
185719.25,431.226,-220.205,0,0
185979.575,439.695,-218.154,0,0
186239.9,448.286,-216.453,0,0
186500,456.772,-215.462,0,0
186761,464.681,-214.505,0,0
187021,472.481,-212.974,0,0
187281,480.971,-211.293,0,0
187542,490.227,-209.933,0,0
187802,499.704,-209.263,0,0
188062,509.126,-209.094,0,0
188322,518.511,-209.477,0,0
188583,527.813,-210.417,0,0
188843,536.339,-211.588,0,0
189103,544.485,-212.4,0,0
189364,552.619,-213.004,0,0
189624,560.803,-213.08,0,0
189884,569.536,-212.597,0,0
190145,579.276,-212.243,0,0
190405,589.514,-212.429,0,0
190665,599.83,-212.964,0,0
190926,610.449,-213.438,0,0
191186,621.849,-214.026,0,0
191446,633.95,-215.244,0,0
191707,646.369,-217.049,0,0
191967,659.312,-219.303,0,0
192227,672.848,-222.316,0,0
192488,686.769,-226.176,0,0
192748,701.081,-230.934,0,0
193008,715.819,-236.858,0,0
193269,730.671,-244.266,0,0
193529,745.123,-253.088,0,0
193789,758.889,-263.122,0,0
194050,771.795,-274.076,0,0
194310,783.945,-285.614,0,0
194570,795.549,-297.807,0,0
194831,806.496,-310.615,0,0
195091,816.541,-324.142,0,0
195351,825.664,-338.059,0,0
195612,834.008,-352.071,0,0
195872,841.711,-366.279,0,0
196132,848.759,-380.687,0,0
196393,855.064,-395.134,0,0
196653,860.857,-409.369,0,0
196913,866.48,-423.662,0,0
197174,871.79,-438.015,0,0
197434,877.06,-452.634,0,0
197694,882.47,-467.721,0,0
197955,887.684,-483.873,0,0
198215,891.847,-501.309,0,0
198475,894.353,-519.433,0,0
198735,895.245,-537.44,0,0
198996,894.994,-554.729,0,0
199256,894.15,-571.467,0,0
199516,893.098,-587.859,0,0
199777,892.012,-604.517,0,0
200037,890.457,-621.474,0,0
200297,887.864,-639.33,0,0
200558,883.851,-657.081,0,0
200818,878.666,-674.672,0,0
201078,872.289,-692.166,0,0
201339,864.488,-709.14,0,0
201599,855.224,-725.14,0,0
201859,845.213,-739.733,0,0
202120,835.09,-753.355,0,0
202380.025,824.808,-766.367,0,0
202640.35,813.709,-779.198,0,0
202900.675,801.687,-791.265,0,0
203161.0,788.714,-801.942,0,0
203421.325,775.554,-810.966,0,0
203681.65,762.846,-818.5,0,0
203941.975,750.726,-825.398,0,0
204202.3,739.014,-831.973,0,0
204462.625,727.486,-837.852,0,0
204722.95,716.331,-843.749,0,0
204983.275,704.679,-849.611,0,0
205243.6,692.329,-855.22,0,0
205503.925,679.233,-859.492,0,0
205764.25,666.318,-861.982,0,0
206024.575,654.362,-863.367,0,0
206284.9,642.871,-864.294,0,0
206545.225,632.136,-864.482,0,0
206805.55,622.088,-864.162,0,0
207065.875,612.989,-863.439,0,0
207326.2,604.545,-862.662,0,0
207586.525,596.876,-861.834,0,0
207846.85,589.895,-861.129,0,0
208107.175,583.377,-860.787,0,0
208367.5,577.12,-860.843,0,0
208627.825,571.099,-860.95,0,0
208888.15,565.538,-861.487,0,0
209148.475,559.994,-862.68,0,0
209408.8,553.97,-864.369,0,0
209669.125,547.309,-866.455,0,0
209929.45,539.708,-868.081,0,0
210189.775,532,-868.984,0,0
210450.1,524.385,-869.413,0,0
210710.425,516.746,-869.709,0,0
210970.75,508.83,-869.63,0,0
211231.075,500.831,-869.047,0,0
211491.4,492.852,-867.705,0,0
211751.725,485.242,-865.553,0,0
212012.05,478.535,-863.026,0,0
212272.375,472.405,-860.528,0,0
212532.7,466.7,-858.136,0,0
212793.025,461.124,-855.873,0,0
213053.35,455.693,-853.608,0,0
213313.675,450.388,-851.169,0,0
213574.0,445.289,-848.585,0,0
213834.325,440.471,-845.914,0,0
214094.65,435.97,-843.298,0,0
214354.975,431.61,-840.601,0,0
214615.3,427.627,-837.858,0,0
214875.625,423.786,-835.253,0,0
215135.95,420.026,-832.874,0,0
215396.275,416.197,-830.305,0,0
215656.6,412.629,-827.551,0,0
215916.925,409.308,-824.726,0,0
216177.25,406.254,-821.991,0,0
216437.575,403.317,-819.389,0,0
216697.9,400.433,-816.675,0,0
216958.225,397.796,-813.885,0,0
217218.55,395.436,-811.138,0,0
217478.875,393.322,-808.425,0,0
217739.2,391.395,-805.925,0,0
217999.525,389.589,-803.495,0,0
218259.85,387.797,-801.076,0,0
218520,386.258,-798.651,0,0
218780,384.923,-796.331,0,0
219041,383.753,-794.131,0,0
219301,382.721,-792.037,0,0
219561,381.842,-790.097,0,0
219822,381.041,-788.303,0,0
220082,380.507,-786.739,0,0
220342,379.739,-785.229,0,0
220603,379.064,-783.819,0,0
220863,378.581,-782.393,0,0
221123,378.259,-781.105,0,0
221384,378.144,-779.997,0,0
221644,378.091,-779.087,0,0
221904,378.182,-778.288,0,0
222165,378.426,-777.825,0,0
222425,378.578,-777.714,0,0
222685,378.731,-777.967,0,0
222946,378.813,-778.438,0,0
223206,378.571,-779.347,0,0
223466,377.985,-780.245,0,0
223727,377.13,-781.15,0,0
223987,376.229,-781.835,0,0
224247,375.332,-782.78,0,0
224508,374.201,-783.718,0,0
224768,372.885,-784.653,0,0
225028,371.409,-785.379,0,0
225289,369.92,-785.96,0,0
225549,368.566,-786.313,0,0
225809,367.336,-786.813,0,0
226070,366.1,-787.333,0,0
226330,365.073,-787.91,0,0
226590,364.073,-788.539,0,0
226851,363.246,-789.336,0,0
227111,362.399,-790.412,0,0
227371,361.547,-791.808,0,0
227632,360.541,-793.178,0,0
227892,359.424,-794.902,0,0
228152,358.128,-796.849,0,0
228413,356.608,-798.976,0,0
228673,354.773,-801.245,0,0
228933,352.628,-803.612,0,0
229193,350.133,-805.957,0,0
229454,347.251,-808.188,0,0
229714,344.127,-810.386,0,0
229974,340.743,-812.345,0,0
230235,337.145,-814.002,0,0
230495,333.454,-815.593,0,0
230755,329.599,-816.971,0,0
231016,325.534,-818.059,0,0
231276,321.453,-818.988,0,0
231536,317.369,-819.601,0,0
231797,313.315,-820.208,0,0
232057,309.253,-820.625,0,0
232317,305.037,-820.856,0,0
232578,300.823,-820.875,0,0
232838,296.7,-820.734,0,0
233098,292.614,-820.478,0,0
233359,288.514,-820.072,0,0
233619,284.461,-819.458,0,0
233879,280.504,-818.777,0,0
234140,276.565,-818.004,0,0
234400,272.685,-817.106,0,0
234660.3,268.848,-816.016,0,0
234920.625,265.233,-814.945,0,0
235180.95,261.58,-813.755,0,0
235441.275,257.985,-812.493,0,0
235701.6,254.454,-811.264,0,0
235961.925,251.008,-809.89,0,0
236222.25,247.599,-808.549,0,0
236482.575,244.179,-807.136,0,0
236742.9,240.759,-805.658,0,0
237003.225,237.345,-804.078,0,0
237263.55,234.038,-802.353,0,0
237523.875,230.785,-800.573,0,0
237784.2,227.657,-798.667,0,0
238044.525,224.591,-796.816,0,0
238304.85,221.611,-794.917,0,0
238565.175,218.654,-792.968,0,0
238825.5,215.746,-790.941,0,0
239085.825,212.989,-788.886,0,0
239346.15,210.216,-786.822,0,0
239606.475,207.58,-784.701,0,0
239866.8,204.978,-782.587,0,0
240127.125,202.499,-780.323,0,0
240387.45,200.065,-778.183,0,0
240647.775,197.787,-776.05,0,0
240908.1,195.454,-773.886,0,0
241168.425,193.177,-771.723,0,0
241428.75,190.933,-769.691,0,0
241689.075,188.642,-767.523,0,0
241949.4,186.43,-765.24,0,0
242209.725,184.322,-762.909,0,0
242470.05,182.363,-760.589,0,0
242730.375,180.48,-758.352,0,0
242990.7,178.672,-756.163,0,0
243251.025,176.881,-754.055,0,0
243511.35,175.007,-751.949,0,0
243771.675,173.21,-749.875,0,0
244032.0,171.362,-747.747,0,0
244292.325,169.64,-745.616,0,0
244552.65,167.905,-743.503,0,0
244812.975,166.179,-741.405,0,0
245073.3,164.416,-739.337,0,0
245333.625,162.773,-737.199,0,0
245593.95,161.134,-735.206,0,0
245854.275,159.345,-733.239,0,0
246114.6,157.586,-731.283,0,0
246374.925,155.677,-729.305,0,0
246635.25,153.687,-727.218,0,0
246895.575,151.688,-725.01,0,0
247155.9,149.672,-722.645,0,0
247416.225,147.681,-720.133,0,0
247676.55,145.801,-717.451,0,0
247936.875,144.074,-714.745,0,0
248197.2,142.43,-712.066,0,0
248457.525,140.877,-709.288,0,0
248717.85,139.346,-706.544,0,0
248978.175,137.857,-703.707,0,0
249238.5,136.464,-700.859,0,0
249498.825,135.126,-697.971,0,0
249759.15,133.905,-695.077,0,0
250019.475,132.69,-692.122,0,0
250279.8,131.531,-689.176,0,0
250540,130.42,-686.135,0,0
250800,129.377,-683.068,0,0
251061,128.494,-679.882,0,0
251321,127.743,-676.641,0,0
251581,127.142,-673.392,0,0
251842,126.664,-670.218,0,0
252102,126.34,-667.072,0,0
252362,126.104,-664.014,0,0
252623,125.938,-660.982,0,0
252883,125.824,-658.024,0,0
253143,125.71,-655.112,0,0
253404,125.635,-652.171,0,0
253664,125.63,-649.253,0,0
253924,125.663,-646.263,0,0
254185,125.831,-643.323,0,0
254445,126.073,-640.396,0,0
254705,126.29,-637.47,0,0
254966,126.699,-634.49,0,0
255226,127.19,-631.589,0,0
255486,127.815,-628.625,0,0
255747,128.585,-625.67,0,0
256007,129.569,-622.774,0,0
256267,130.668,-620.021,0,0
256528,131.906,-617.447,0,0
256788,133.167,-614.994,0,0
257048,134.479,-612.664,0,0
257309,135.794,-610.467,0,0
257569,137.087,-608.342,0,0
257829,138.429,-606.262,0,0
258090,139.777,-604.261,0,0
258350,141.192,-602.298,0,0
258610,142.61,-600.368,0,0
258871,144.087,-598.526,0,0
259131,145.615,-596.695,0,0
259391,147.252,-594.928,0,0
259651,149.021,-593.286,0,0
259912,150.82,-591.751,0,0
260172,152.652,-590.38,0,0
260432,154.486,-589.093,0,0
260693,156.423,-587.933,0,0
260953,158.37,-586.964,0,0
261213,160.356,-586.111,0,0
261474,162.347,-585.463,0,0
261734,164.249,-584.981,0,0
261994,166.101,-584.622,0,0
262255,167.88,-584.398,0,0
262515,169.589,-584.3,0,0
262775,171.221,-584.306,0,0
263036,172.781,-584.426,0,0
263296,174.245,-584.663,0,0
263556,175.605,-584.987,0,0
263817,176.841,-585.41,0,0
264077,177.987,-585.926,0,0
264337,178.899,-586.514,0,0
264598,179.722,-587.176,0,0
264858,180.329,-587.867,0,0
265118,180.753,-588.443,0,0
265379,180.956,-589.056,0,0
265639,181.015,-589.56,0,0
265899,180.96,-589.841,0,0
266160,180.874,-589.978,0,0
266420,180.753,-589.985,0,0
266680.25,180.698,-589.919,0,0
266940.575,180.652,-589.768,0,0
267200.9,180.648,-589.532,0,0
267461.225,180.648,-589.268,0,0
267721.55,180.682,-589.018,0,0
267981.875,180.669,-588.705,0,0
268242.2,180.673,-588.323,0,0
268502.525,180.64,-587.838,0,0
268762.85,180.655,-587.302,0,0
269023.175,180.675,-586.624,0,0
269283.5,180.812,-585.845,0,0
269543.825,181.066,-584.912,0,0
269804.15,181.51,-583.997,0,0
270064.475,182.099,-583.037,0,0
270324.8,182.828,-582.103,0,0
270585.125,183.606,-581.149,0,0
270845.45,184.683,-580.216,0,0
271105.775,185.94,-579.373,0,0
271366.1,187.379,-578.635,0,0
271626.425,188.928,-578.057,0,0
271886.75,190.598,-577.646,0,0
272147.075,192.343,-577.381,0,0
272407.4,194.198,-577.198,0,0
272667.725,196.207,-577.222,0,0
272928.05,198.364,-577.439,0,0
273188.375,200.54,-577.964,0,0
273448.7,202.851,-578.733,0,0
273709.025,205.149,-579.812,0,0
273969.35,207.455,-581.19,0,0
274229.675,209.741,-582.919,0,0
274490.0,211.996,-585.058,0,0
274750.325,214.049,-587.617,0,0
275010.65,215.855,-590.529,0,0
275270.975,217.329,-593.876,0,0
275531.3,218.354,-597.564,0,0
275791.625,218.875,-601.466,0,0
276051.95,218.772,-605.495,0,0
276312.275,218.085,-609.565,0,0
276572.6,216.778,-613.468,0,0
276832.925,214.982,-617.023,0,0
277093.25,212.835,-620.264,0,0
277353.575,210.393,-623.144,0,0
277613.9,207.772,-625.644,0,0
277874.225,205.021,-627.79,0,0
278134.55,202.269,-629.587,0,0
278394.875,199.505,-631.125,0,0
278655.2,196.81,-632.478,0,0
278915.525,194.128,-633.699,0,0
279175.85,191.449,-634.762,0,0
279436.175,188.723,-635.76,0,0
279696.5,185.946,-636.611,0,0
279956.825,183.059,-637.224,0,0
280217.15,180.134,-637.691,0,0
280477.475,177.356,-637.893,0,0
280737.8,174.646,-637.951,0,0
280998.125,172.09,-637.945,0,0
281258.45,169.571,-637.925,0,0
281518.775,167.063,-637.933,0,0
281779.1,164.463,-637.92,0,0
282039.425,161.755,-637.823,0,0
282299.75,158.953,-637.609,0,0
282560,156.063,-637.186,0,0
282820,153.104,-636.515,0,0
283081,150.155,-635.524,0,0
283341,147.36,-634.237,0,0
283601,144.846,-632.704,0,0
283862,142.638,-631.088,0,0
284122,140.76,-629.524,0,0
284382,139.08,-628.205,0,0
284643,137.317,-627.121,0,0
284903,135.405,-626.148,0,0
285163,133.235,-625.142,0,0
285424,130.857,-623.969,0,0
285684,128.418,-622.535,0,0
285944,125.943,-620.869,0,0
286205,123.478,-618.934,0,0
286465,121.077,-616.659,0,0
286725,118.846,-614.038,0,0
286986,116.867,-611.237,0,0
287246,115.136,-608.219,0,0
287506,113.674,-605.074,0,0
287767,112.463,-601.821,0,0
288027,111.523,-598.467,0,0
288287,110.831,-594.982,0,0
288548,110.443,-591.35,0,0
288808,110.502,-587.603,0,0
289068,111.054,-583.844,0,0
289329,112.149,-580.205,0,0
289589,113.734,-576.848,0,0
289849,115.708,-573.816,0,0
290109,118.012,-571.225,0,0
290370,120.53,-569.017,0,0
290630,123.253,-567.213,0,0
290890,126.133,-565.922,0,0
291151,129.063,-565.147,0,0
291411,131.968,-564.895,0,0
291671,134.726,-565.115,0,0
291932,137.339,-565.809,0,0
292192,139.68,-566.996,0,0
292452,141.627,-568.624,0,0
292713,143.038,-570.622,0,0
292973,143.804,-572.756,0,0
293233,143.97,-574.833,0,0
293494,143.588,-576.734,0,0
293754,142.783,-578.253,0,0
294014,141.729,-579.364,0,0
294275,140.565,-580.047,0,0
294535,139.454,-580.301,0,0
294795,138.508,-580.2,0,0
295056,137.851,-579.892,0,0
295316,137.555,-579.457,0,0
295576,137.613,-579.066,0,0
295837,138.026,-578.874,0,0
296097,138.734,-579.157,0,0
296357,139.446,-579.903,0,0
296618,139.91,-581.197,0,0
296878,139.912,-582.823,0,0
297138,139.416,-584.548,0,0
297399,138.419,-586.204,0,0
297659,137.046,-587.604,0,0
297919,135.457,-588.716,0,0
298180,133.733,-589.55,0,0
298440,131.971,-590.124,0,0
298700.2,130.213,-590.5,0,0
298960.525,128.495,-590.699,0,0
299220.85,126.819,-590.786,0,0
299481.175,125.205,-590.801,0,0
299741.5,123.545,-590.753,0,0
300001.825,121.858,-590.6,0,0
300262.15,120.166,-590.311,0,0
300522.475,118.445,-589.878,0,0
300782.8,116.818,-589.26,0,0
301043.125,115.296,-588.454,0,0
301303.45,113.971,-587.542,0,0
301563.775,112.845,-586.616,0,0
301824.1,111.903,-585.71,0,0
302084.425,111.138,-584.896,0,0
302344.75,110.473,-584.205,0,0
302605.075,109.869,-583.645,0,0
302865.4,109.273,-583.245,0,0
303125.725,108.665,-582.963,0,0
303386.05,107.979,-582.812,0,0
303646.375,107.214,-582.761,0,0
303906.7,106.321,-582.809,0,0
304167.025,105.281,-582.878,0,0
304427.35,104.062,-582.961,0,0
304687.675,102.675,-582.961,0,0
304948.0,101.178,-582.867,0,0
305208.325,99.5755,-582.624,0,0
305468.65,97.9446,-582.248,0,0
305728.975,96.2779,-581.757,0,0
305989.3,94.6055,-581.152,0,0
306249.625,92.9487,-580.418,0,0
306509.95,91.2972,-579.595,0,0
306770.275,89.6897,-578.638,0,0
307030.6,88.1202,-577.594,0,0
307290.925,86.6315,-576.441,0,0
307551.25,85.2269,-575.234,0,0
307811.575,83.9068,-573.977,0,0
308071.9,82.6667,-572.691,0,0
308332.225,81.4914,-571.36,0,0
308592.55,80.3927,-570.015,0,0
308852.875,79.3857,-568.655,0,0
309113.2,78.4497,-567.304,0,0
309373.525,77.5736,-565.982,0,0
309633.85,76.7363,-564.685,0,0
309894.175,75.904,-563.409,0,0
310154.5,75.1274,-562.151,0,0
310414.825,74.3363,-560.885,0,0
310675.15,73.5747,-559.622,0,0
310935.475,72.822,-558.338,0,0
311195.8,72.0971,-557.054,0,0
311456.125,71.4111,-555.761,0,0
311716.45,70.754,-554.45,0,0
311976.775,70.1348,-553.132,0,0
312237.1,69.5522,-551.81,0,0
312497.425,69.0037,-550.495,0,0
312757.75,68.5313,-549.173,0,0
313018.075,68.0859,-547.893,0,0
313278.4,67.674,-546.637,0,0
313538.725,67.2861,-545.405,0,0
313799.05,66.903,-544.197,0,0
314059.375,66.5201,-543.025,0,0
314319.7,66.1724,-541.831,0,0
314580,65.7969,-540.633,0,0
314840,65.4578,-539.541,0,0
315101,65.068,-538.431,0,0
315361,64.7771,-537.26,0,0
315621,64.4067,-536.068,0,0
315882,64.1118,-534.92,0,0
316142,63.812,-533.745,0,0
316402,63.5343,-532.649,0,0
316663,63.2849,-531.571,0,0
316923,63.1248,-530.376,0,0
317183,62.9048,-529.293,0,0
317444,62.7062,-528.138,0,0
317704,62.5121,-527.078,0,0
317964,62.4313,-526.112,0,0
318225,62.3121,-525.083,0,0
318485,62.1719,-524.095,0,0
318745,62.0256,-523.143,0,0
319006,61.9003,-522.161,0,0
319266,61.7272,-521.336,0,0
319526,61.5241,-520.381,0,0
319787,61.3052,-519.554,0,0
320047,61.1455,-518.603,0,0
320307,60.9001,-517.661,0,0
320567,60.6543,-516.764,0,0
320828,60.4421,-515.923,0,0
321088,60.1928,-514.959,0,0
321348,60.0102,-514.043,0,0
321609,59.7368,-513.105,0,0
321869,59.4613,-512.224,0,0
322129,59.2247,-511.163,0,0
322390,58.916,-510.196,0,0
322650,58.6108,-509.267,0,0
322910,58.3483,-508.187,0,0
323171,58.0805,-507.107,0,0
323431,57.7209,-505.994,0,0
323691,57.51,-504.792,0,0
323952,57.2793,-503.56,0,0
324212,57.1569,-502.27,0,0
324472,57.0495,-500.923,0,0
324733,57.0963,-499.614,0,0
324993,57.1943,-498.191,0,0
325253,57.4139,-496.858,0,0
325514,57.7409,-495.533,0,0
325774,58.2371,-494.256,0,0
326034,58.753,-493.138,0,0
326295,59.3403,-492.026,0,0
326555,60.0179,-491.178,0,0
326815,60.6845,-490.365,0,0
327076,61.3947,-489.716,0,0
327336,61.9578,-489.139,0,0
327596,62.4452,-488.775,0,0
327857,62.9005,-488.315,0,0
328117,63.2215,-487.944,0,0
328377,63.5836,-487.538,0,0
328638,63.7749,-487.145,0,0
328898,64.0592,-486.787,0,0
329158,64.312,-486.394,0,0
329419,64.4822,-486.071,0,0
329679,64.6737,-485.776,0,0
329939,64.8334,-485.41,0,0
330200,65.0374,-485.127,0,0
330460,65.1284,-484.935,0,0
330720.15,65.2447,-484.706,0,0
330980.475,65.2694,-484.513,0,0
331240.8,65.2956,-484.313,0,0
331501.125,65.2424,-484.186,0,0
331761.45,65.1117,-484.056,0,0
332021.775,64.96,-483.925,0,0
332282.1,64.7387,-483.825,0,0
332542.425,64.4135,-483.64,0,0
332802.75,64.0047,-483.447,0,0
333063.075,63.5497,-483.169,0,0
333323.4,63.0847,-482.848,0,0
333583.725,62.5633,-482.469,0,0
333844.05,62.0383,-481.972,0,0
334104.375,61.512,-481.482,0,0
334364.7,60.9891,-480.856,0,0
334625.025,60.5308,-480.217,0,0
334885.35,60.1594,-479.579,0,0
335145.675,59.7034,-478.811,0,0
335406.0,59.3367,-478.161,0,0
335666.325,58.9481,-477.469,0,0
335926.65,58.5872,-476.649,0,0
336186.975,58.2294,-476.009,0,0
336447.3,57.9506,-475.208,0,0
336707.625,57.5747,-474.43,0,0
336967.95,57.3084,-473.633,0,0
337228.275,57.046,-472.751,0,0
337488.6,56.7813,-471.89,0,0
337748.925,56.6009,-471.095,0,0
338009.25,56.3512,-470.233,0,0
338269.575,56.1653,-469.351,0,0
338529.9,55.98,-468.497,0,0
338790.225,55.8249,-467.638,0,0
339050.55,55.7179,-466.735,0,0
339310.875,55.5671,-465.91,0,0
339571.2,55.5602,-464.992,0,0
339831.525,55.5021,-464.119,0,0
340091.85,55.4489,-463.256,0,0
340352.175,55.4043,-462.371,0,0
340612.5,55.5211,-461.503,0,0
340872.825,55.4872,-460.648,0,0
341133.15,55.5315,-459.815,0,0
341393.475,55.5734,-458.988,0,0
341653.8,55.6883,-458.186,0,0
341914.125,55.7892,-457.386,0,0
342174.45,55.9088,-456.625,0,0
342434.775,55.9734,-455.842,0,0
342695.1,56.0767,-455.073,0,0
342955.425,56.2382,-454.337,0,0
343215.75,56.3776,-453.552,0,0
343476.075,56.486,-452.806,0,0
343736.4,56.6381,-452.073,0,0
343996.725,56.7533,-451.324,0,0
344257.05,56.9839,-450.606,0,0
344517.375,57.1301,-449.882,0,0
344777.7,57.3585,-449.162,0,0
345038.025,57.5628,-448.482,0,0
345298.35,57.7807,-447.793,0,0
345558.675,58.0533,-447.172,0,0
345819.0,58.2799,-446.5,0,0
346079.325,58.5096,-445.866,0,0
346339.65,58.7554,-445.301,0,0
346599.975,58.9873,-444.711,0,0
346860,59.2137,-444.149,0,0
347121,59.4414,-443.597,0,0
347381,59.671,-443.046,0,0
347641,59.8957,-442.471,0,0
347902,60.1164,-441.963,0,0
348162,60.3341,-441.386,0,0
348422,60.6279,-440.85,0,0
348683,60.8923,-440.294,0,0
348943,61.1243,-439.775,0,0
349203,61.4118,-439.246,0,0
349464,61.6642,-438.764,0,0
349724,61.9643,-438.279,0,0
349984,62.276,-437.845,0,0
350245,62.5498,-437.413,0,0
350505,62.9021,-437.017,0,0
350765,63.1675,-436.623,0,0
351025,63.4581,-436.285,0,0
351286,63.7394,-436,0,0
351546,63.9765,-435.661,0,0
351806,64.2535,-435.369,0,0
352067,64.4319,-435.088,0,0
352327,64.6239,-434.804,0,0
352587,64.795,-434.528,0,0
352848,64.9227,-434.258,0,0
353108,65.0539,-433.898,0,0
353368,65.2253,-433.583,0,0
353629,65.3779,-433.299,0,0
353889,65.5123,-432.981,0,0
354149,65.6327,-432.635,0,0
354410,65.8278,-432.355,0,0
354670,65.9743,-432.068,0,0
354930,66.0666,-431.758,0,0
355191,66.3019,-431.47,0,0
355451,66.383,-431.143,0,0
355711,66.5408,-430.823,0,0
355972,66.6588,-430.474,0,0
356232,66.884,-430.218,0,0
356492,67.0719,-429.857,0,0
356753,67.3132,-429.58,0,0
357013,67.5079,-429.354,0,0
357273,67.7421,-429.044,0,0
357534,67.9719,-428.848,0,0
357794,68.2497,-428.704,0,0
358054,68.5112,-428.531,0,0
358315,68.7795,-428.393,0,0
358575,68.9798,-428.356,0,0
358835,69.2182,-428.336,0,0
359096,69.4067,-428.308,0,0
359356,69.5546,-428.293,0,0
359616,69.6948,-428.411,0,0
359877,69.7659,-428.458,0,0
360137,69.7957,-428.536,0,0
360397,69.7871,-428.604,0,0
360658,69.7352,-428.651,0,0
360918,69.6866,-428.758,0,0
361178,69.5685,-428.803,0,0
361438,69.459,-428.908,0,0
361699,69.2364,-428.921,0,0
361959,69.1117,-429.001,0,0
362219,68.8854,-429.028,0,0
362480,68.641,-429.02,0,0
362740.1,68.3639,-429.002,0,0
363000.425,68.0416,-429.031,0,0
363260.75,67.6829,-428.943,0,0
363521.075,67.3049,-428.868,0,0
363781.4,67.0056,-428.743,0,0
364041.725,66.5674,-428.622,0,0
364302.05,66.2383,-428.443,0,0
364562.375,65.8479,-428.263,0,0
364822.7,65.4676,-428.026,0,0
365083.025,65.0594,-427.798,0,0
365343.35,64.636,-427.563,0,0
365603.675,64.2196,-427.25,0,0
365864.0,63.8469,-426.895,0,0
366124.325,63.4159,-426.51,0,0
366384.65,63.0093,-426.068,0,0
366644.975,62.7334,-425.608,0,0
366905.3,62.4086,-425.129,0,0
367165.625,62.1434,-424.617,0,0
367425.95,61.9475,-424.069,0,0
367686.275,61.7928,-423.604,0,0
367946.6,61.665,-423.112,0,0
368206.925,61.6103,-422.663,0,0
368467.25,61.5118,-422.238,0,0
368727.575,61.5209,-421.828,0,0
368987.9,61.4739,-421.453,0,0
369248.225,61.4571,-421.161,0,0
369508.55,61.4386,-420.919,0,0
369768.875,61.3438,-420.695,0,0
370029.2,61.2286,-420.466,0,0
370289.525,61.1168,-420.262,0,0
370549.85,60.9409,-420.084,0,0
370810.175,60.7538,-419.886,0,0
371070.5,60.5167,-419.688,0,0
371330.825,60.2823,-419.442,0,0
371591.15,59.9898,-419.215,0,0
371851.475,59.6981,-418.921,0,0
372111.8,59.4882,-418.63,0,0
372372.125,59.2378,-418.291,0,0
372632.45,58.9788,-417.96,0,0
372892.775,58.7786,-417.646,0,0
373153.1,58.5413,-417.287,0,0
373413.425,58.329,-417.006,0,0
373673.75,58.1063,-416.677,0,0
373934.075,57.8761,-416.383,0,0
374194.4,57.6267,-416.092,0,0
374454.725,57.4042,-415.824,0,0
374715.05,57.1654,-415.555,0,0
374975.375,56.8745,-415.291,0,0
375235.7,56.555,-414.982,0,0
375496.025,56.2462,-414.666,0,0
375756.35,55.9144,-414.314,0,0
376016.675,55.5848,-413.975,0,0
376277.0,55.3022,-413.522,0,0
376537.325,55.0172,-413.154,0,0
376797.65,54.7777,-412.726,0,0
377057.975,54.5088,-412.376,0,0
377318.3,54.2595,-411.993,0,0
377578.625,54.0334,-411.629,0,0
377838.95,53.8402,-411.292,0,0
378099.275,53.5421,-411.037,0,0
378359.6,53.2339,-410.787,0,0
378619.925,52.8404,-410.54,0,0
378880,52.4233,-410.283,0,0
379141,51.9269,-409.916,0,0
379401,51.3536,-409.48,0,0
379661,50.7469,-408.981,0,0
379922,50.1924,-408.361,0,0
380182,49.6953,-407.574,0,0
380442,49.3007,-406.783,0,0
380703,49.0553,-405.895,0,0
380963,48.8702,-405.065,0,0
381223,48.9065,-404.29,0,0
381483,48.9685,-403.657,0,0
381744,49.0213,-403.086,0,0
382004,49.0597,-402.638,0,0
382264,49.0734,-402.262,0,0
382525,48.9951,-401.953,0,0
382785,48.8647,-401.621,0,0
383045,48.6729,-401.277,0,0
383306,48.4495,-400.957,0,0
383566,48.2203,-400.555,0,0
383826,47.9268,-400.171,0,0
384087,47.6452,-399.739,0,0
384347,47.3539,-399.316,0,0
384607,47.0536,-398.872,0,0
384868,46.7109,-398.402,0,0
385128,46.3773,-397.881,0,0
385388,46.0904,-397.37,0,0
385649,45.7362,-396.795,0,0
385909,45.4547,-396.245,0,0
386169,45.1368,-395.647,0,0
386430,44.8703,-395.006,0,0
386690,44.6024,-394.368,0,0
386950,44.325,-393.692,0,0
387211,44.0876,-393.018,0,0
387471,43.8716,-392.366,0,0
387731,43.6751,-391.67,0,0
387992,43.5275,-390.944,0,0
388252,43.3968,-390.259,0,0
388512,43.2566,-389.534,0,0
388773,43.1509,-388.82,0,0
389033,43.092,-388.071,0,0
389293,43.0532,-387.392,0,0
389554,43.072,-386.657,0,0
389814,43.1529,-385.97,0,0
390074,43.2302,-385.37,0,0
390335,43.3061,-384.773,0,0
390595,43.4235,-384.222,0,0
390855,43.5823,-383.712,0,0
391116,43.686,-383.281,0,0
391376,43.7529,-382.87,0,0
391636,43.8336,-382.517,0,0
391896,43.7753,-382.219,0,0
392157,43.6849,-381.922,0,0
392417,43.5687,-381.589,0,0
392677,43.3735,-381.226,0,0
392938,43.1968,-380.848,0,0
393198,42.8863,-380.423,0,0
393458,42.649,-380.033,0,0
393719,42.3664,-379.536,0,0
393979,42.0495,-378.958,0,0
394239,41.7314,-378.433,0,0
394500,41.447,-377.79,0,0
394760.05,41.1866,-377.151,0,0
395020.375,40.9133,-376.453,0,0
395280.7,40.6822,-375.708,0,0
395541.025,40.5021,-374.946,0,0
395801.35,40.3682,-374.204,0,0
396061.675,40.2525,-373.424,0,0
396322.0,40.1499,-372.652,0,0
396582.325,40.0972,-371.923,0,0
396842.65,40.0627,-371.143,0,0
397102.975,40.068,-370.399,0,0
397363.3,40.0406,-369.654,0,0
397623.625,40.0656,-368.919,0,0
397883.95,40.1109,-368.193,0,0
398144.275,40.1662,-367.448,0,0
398404.6,40.2293,-366.781,0,0
398664.925,40.3274,-366.075,0,0
398925.25,40.407,-365.391,0,0
399185.575,40.5014,-364.738,0,0
399445.9,40.6024,-364.063,0,0
399706.225,40.7297,-363.406,0,0
399966.55,40.8215,-362.791,0,0
400006.6,40.8485,-362.676,0,0