File: Accelerated corrosion test data/2025-10-12_18-00-03/sample_6.csv
Frequency (Hz),Impedance (ohms),Phase (Radians),Temperature (C),Humidity (%)
10000.0,4225.74,-6344.79,0,0
10260.325,4090.83,-6274.96,0,0
10520.65,3961.26,-6204.36,0,0
10780.975,3837.64,-6134.15,0,0
11041.3,3719.64,-6063.98,0,0
11301.625,3607.03,-5995.07,0,0
11561.95,3499.24,-5925.49,0,0
11822.275,3395.35,-5857.51,0,0
12082.6,3295.99,-5789.65,0,0
12342.925,3201.07,-5722.37,0,0
12603.25,3111.7,-5654.08,0,0
12863.575,3024.78,-5589.52,0,0
13123.9,2943.06,-5526.88,0,0
13384.225,2861.77,-5464.51,0,0
13644.55,2783.46,-5402.11,0,0
13904.875,2709.12,-5340.54,0,0
14165.2,2637.93,-5279.31,0,0
14425.525,2568.2,-5219.04,0,0
14685.8,2502.49,-5159.85,0,0
14946.175,2439.85,-5101.88,0,0
15206.5,2378.66,-5044.99,0,0
15466.825,2320.13,-4988.37,0,0
15727.15,2263.3,-4933.71,0,0
15987.5,2208.53,-4879.4,0,0
16247.8,2155.6,-4825.82,0,0
16508.125,2104.74,-4773.15,0,0
16768.45,2056.12,-4721.38,0,0
17028.775,2009.64,-4670.04,0,0
17289.1,1963.65,-4620.66,0,0
17549.425,1919.5,-4572.19,0,0
17809.75,1877.61,-4523.36,0,0
18070.075,1835.24,-4475.83,0,0
18330.4,1795.25,-4428.94,0,0
18590.725,1757.15,-4383.15,0,0
18851.05,1720.3,-4337.73,0,0
19111.375,1684.96,-4293.93,0,0
19371.7,1650.24,-4250.71,0,0
19632.025,1616.1,-4208.29,0,0
19892.35,1582.4,-4166.61,0,0
20152.675,1551.46,-4124.84,0,0
20413.0,1520.57,-4085.58,0,0
20673.3,1490.4,-4045.09,0,0
20933.65,1461.26,-4005.94,0,0
21193.975,1433.12,-3966.84,0,0
21454.3,1406.3,-3928.65,0,0
21714.625,1379.39,-3891.2,0,0
21974.9,1354.4,-3855.38,0,0
22235.275,1328.62,-3818.39,0,0
22495.6,1304.23,-3782.18,0,0
22755.925,1281.96,-3746.17,0,0
23016.25,1260.77,-3712.45,0,0
23276.6,1240.2,-3680.05,0,0
23536.9,1217.96,-3648.25,0,0
23797.225,1196.06,-3615.89,0,0
24057.55,1174.94,-3583.49,0,0
24317.875,1154.78,-3552.29,0,0
24578.2,1135.04,-3521.74,0,0
24838.525,1115.95,-3490.86,0,0
25098.85,1097.34,-3460.66,0,0
25359.175,1079.64,-3430.72,0,0
25619.5,1062,-3401.59,0,0
25879.8,1044.5,-3372.75,0,0
26140.1,1028.3,-3344.54,0,0
26400.5,1011.9,-3316.29,0,0
26660.8,996.587,-3288.48,0,0
26921.1,980.804,-3261.21,0,0
27181.4,966.473,-3234.44,0,0
27441.8,951.508,-3207.97,0,0
27702.1,937.562,-3182.13,0,0
27962.4,923.922,-3157.27,0,0
28222.7,909.542,-3131.98,0,0
28483.1,896.232,-3107.15,0,0
28743.4,882.618,-3082.72,0,0
29003.7,869.517,-3058.08,0,0
29264,857.216,-3033.56,0,0
29524.4,845.171,-3009.17,0,0
29784.7,833.839,-2986.13,0,0
30045,823.088,-2962.97,0,0
30305.3,812.383,-2940.4,0,0
30565.7,801.658,-2918.42,0,0
30826,790.933,-2896.68,0,0
31086.3,780.658,-2874.95,0,0
31346.6,770.353,-2853.8,0,0
31607,760.255,-2832.06,0,0
31867.3,750.926,-2811.15,0,0
32127.6,742.131,-2790.5,0,0
32387.9,733.516,-2769.89,0,0
32648.3,725.665,-2749.82,0,0
32908.6,718.905,-2731.01,0,0
33168.9,710.943,-2713.28,0,0
33429.2,702.451,-2696.24,0,0
33689.6,693.181,-2678.47,0,0
33949.9,684.767,-2661.11,0,0
34210.2,675.523,-2643.58,0,0
34470.5,666.889,-2625.21,0,0
34730.9,658.872,-2607.2,0,0
34991.2,651.522,-2589.9,0,0
35251.5,644.071,-2573.41,0,0
35511.8,636.281,-2557.13,0,0
35772.2,627.956,-2541.16,0,0
36032.5,619.095,-2524.15,0,0
36292.8,611.17,-2506.71,0,0
36553.1,603.939,-2489.72,0,0
36813.5,597.063,-2472.9,0,0
37073.8,590.658,-2456.36,0,0
37334.1,584.215,-2440.42,0,0
37594.4,577.536,-2424.71,0,0
37854.8,570.975,-2408.85,0,0
38115.1,564.951,-2392.9,0,0
38375.4,558.86,-2377.07,0,0
38635.7,553.068,-2361.65,0,0
38896.1,547.456,-2346.17,0,0
39156.4,542.434,-2330.5,0,0
39416.7,537.923,-2315.62,0,0
39677,533.735,-2300.94,0,0
39937.4,529.921,-2287.69,0,0
40197.7,525.004,-2273.67,0,0
40458,520.78,-2260.31,0,0
40718.3,516.272,-2247.47,0,0
40978.7,512.205,-2234.97,0,0
41239,506.869,-2222.74,0,0
41499.3,501.638,-2209.92,0,0
41759.6,498.064,-2197.27,0,0
42020,493.134,-2186.24,0,0
42280.275,486.928,-2174.16,0,0
42540.6,481.343,-2161.7,0,0
42800.925,475.678,-2148.45,0,0
43061.25,471.422,-2134.65,0,0
43321.575,467.96,-2121.48,0,0
43581.9,464.496,-2109.52,0,0
43842.225,460.677,-2097.57,0,0
44102.55,456.965,-2085.16,0,0
44362.875,453.839,-2073.2,0,0
44623.2,451.058,-2061.84,0,0
44883.525,447.85,-2050.92,0,0
45143.85,444.371,-2039.72,0,0
45404.175,441.432,-2028.89,0,0
45664.5,438.55,-2018.62,0,0
45924.825,435.557,-2008.05,0,0
46185.15,432.408,-1998.39,0,0
46445.475,428.87,-1988.67,0,0
46705.8,425.159,-1978.68,0,0
46966.125,421.749,-1968.7,0,0
47226.45,418.49,-1958.54,0,0
47486.775,415.586,-1949.02,0,0
47747.1,412.31,-1938.97,0,0
48007.425,409.075,-1929.35,0,0
48267.75,406.086,-1919.93,0,0
48528.075,403.177,-1910.87,0,0
48788.4,399.989,-1901.5,0,0
49048.725,397.349,-1892.24,0,0
49309.05,394.765,-1883.93,0,0
49569.375,391.326,-1875.66,0,0
49829.7,388.217,-1867.26,0,0
50090.025,384.404,-1859.49,0,0
50350.35,380.378,-1850.72,0,0
50610.675,376.5,-1842.04,0,0
50871.0,372.571,-1833.06,0,0
51131.325,369.417,-1823.9,0,0
51391.65,365.988,-1815.24,0,0
51651.975,362.916,-1806.33,0,0
51912.3,359.575,-1797.89,0,0
52172.625,356.037,-1788.94,0,0
52432.95,352.883,-1780.02,0,0
52693.275,350.319,-1771.16,0,0
52953.6,347.798,-1763.01,0,0
53213.925,344.946,-1754.93,0,0
53474.25,341.772,-1747.01,0,0
53734.575,338.265,-1738.79,0,0
53994.9,334.812,-1729.97,0,0
54255.225,332.206,-1720.89,0,0
54515.55,329.952,-1712.42,0,0
54775.875,327.733,-1704.2,0,0
55036.2,325.504,-1696.15,0,0
55296.525,323.079,-1688.47,0,0
55556.85,320.436,-1680.76,0,0
55817.175,317.655,-1672.76,0,0
56077.5,315.019,-1664.66,0,0
56337.825,312.29,-1656.42,0,0
56598.15,309.966,-1647.64,0,0
56858.475,308.333,-1639.1,0,0
57118.8,307.03,-1630.9,0,0
57379.125,306.033,-1623.16,0,0
57639.45,305.241,-1615.69,0,0
57899.775,304.312,-1608.95,0,0
58160.1,302.946,-1602.36,0,0
58420.4,301.652,-1596.09,0,0
58680.7,299.957,-1589.93,0,0
58941.1,298.282,-1583.76,0,0
59201.4,296.308,-1577.71,0,0
59461.7,294.138,-1571.44,0,0
59722,292.082,-1565.2,0,0
59982.4,289.921,-1559.07,0,0
60242.7,287.376,-1552.86,0,0
60503,285.211,-1546.31,0,0
60763.3,283.147,-1540.23,0,0
61023.7,280.652,-1534.28,0,0
61284,278.02,-1528.21,0,0
61544.3,274.904,-1521.8,0,0
61804.6,272.026,-1514.71,0,0
62065,269.323,-1507.31,0,0
62325.3,267.218,-1499.64,0,0
62585.6,265.726,-1491.73,0,0
62845.9,265.092,-1484.47,0,0
63106.3,264.687,-1477.7,0,0
63366.6,264.469,-1471.76,0,0
63626.9,263.748,-1466.47,0,0
63887.2,262.584,-1461.25,0,0
64147.6,261.388,-1456.34,0,0
64407.9,259.136,-1451.61,0,0
64668.2,256.753,-1446.1,0,0
64928.5,254.181,-1440.47,0,0
65188.9,251.829,-1434.58,0,0
65449.2,249.659,-1428.14,0,0
65709.5,247.888,-1421.88,0,0
65969.8,246.259,-1415.58,0,0
66230.2,244.867,-1409.57,0,0
66490.5,243.338,-1403.68,0,0
66750.8,241.996,-1397.78,0,0
67011.1,240.501,-1391.93,0,0
67271.5,239.188,-1386.34,0,0
67531.8,237.928,-1380.36,0,0
67792.1,236.635,-1374.85,0,0
68052.4,235.257,-1369.55,0,0
68312.8,234.286,-1363.99,0,0
68573.1,232.971,-1358.56,0,0
68833.4,231.722,-1353.14,0,0
69093.7,230.606,-1348.01,0,0
69354.1,229.289,-1342.83,0,0
69614.4,227.968,-1337.71,0,0
69874.7,226.73,-1332.59,0,0
70135,225.311,-1327.51,0,0
70395.4,223.958,-1322.45,0,0
70655.7,222.506,-1317.49,0,0
70916,221.025,-1312.47,0,0
71176.3,219.535,-1307.36,0,0
71436.7,217.951,-1302.22,0,0
71697,216.531,-1297.03,0,0
71957.3,215.131,-1291.76,0,0
72217.6,213.815,-1286.58,0,0
72478,212.583,-1281.34,0,0
72738.3,211.434,-1276.2,0,0
72998.6,210.344,-1271.08,0,0
73258.9,209.236,-1266.02,0,0
73519.3,208.152,-1260.95,0,0
73779.6,207.119,-1256.02,0,0
74039.9,206.141,-1251,0,0
74300.225,205.15,-1246.11,0,0
74560.55,204.314,-1241.29,0,0
74820.875,203.464,-1236.6,0,0
75081.2,202.558,-1231.95,0,0
75341.525,201.66,-1227.4,0,0
75601.85,200.669,-1222.88,0,0
75862.175,199.647,-1218.36,0,0
76122.5,198.599,-1213.84,0,0
76382.825,197.595,-1209.33,0,0
76643.15,196.619,-1204.82,0,0
76903.475,195.58,-1200.26,0,0
77163.8,194.529,-1195.81,0,0
77424.125,193.473,-1191.37,0,0
77684.45,192.512,-1186.86,0,0
77944.775,191.497,-1182.41,0,0
78205.1,190.493,-1177.99,0,0
78465.425,189.536,-1173.57,0,0
78725.75,188.5,-1169.13,0,0
78986.075,187.625,-1164.77,0,0
79246.4,186.608,-1160.4,0,0
79506.725,185.699,-1156.01,0,0
79767.05,184.754,-1151.78,0,0
80027.375,183.748,-1147.49,0,0
80287.7,182.699,-1143.06,0,0
80548.025,181.743,-1138.77,0,0
80808.35,180.822,-1134.44,0,0
81068.675,179.88,-1130.02,0,0
81329.0,178.904,-1125.69,0,0
81589.325,178.065,-1121.21,0,0
81849.65,177.231,-1116.83,0,0
82109.975,176.408,-1112.46,0,0
82370.3,175.677,-1108.07,0,0
82630.625,174.94,-1103.73,0,0
82890.95,174.258,-1099.41,0,0
83151.275,173.526,-1095.07,0,0
83411.6,172.86,-1090.66,0,0
83671.925,172.169,-1086.44,0,0
83932.25,171.556,-1082.09,0,0
84192.575,170.996,-1077.68,0,0
84452.9,170.572,-1073.4,0,0
84713.225,170.089,-1069.01,0,0
84973.55,169.77,-1064.7,0,0
85233.875,169.53,-1060.43,0,0
85494.2,169.36,-1056.23,0,0
85754.525,169.236,-1052.19,0,0
86014.85,169.11,-1048.22,0,0
86275.175,168.968,-1044.21,0,0
86535.5,168.93,-1040.45,0,0
86795.825,168.782,-1036.56,0,0
87056.15,168.622,-1032.84,0,0
87316.475,168.598,-1029.07,0,0
87576.8,168.411,-1025.34,0,0
87837.125,168.282,-1021.67,0,0
88097.45,168.372,-1017.95,0,0
88357.775,168.242,-1014.3,0,0
88618.1,168.221,-1010.66,0,0
88878.425,168.302,-1007.13,0,0
89138.75,168.468,-1003.63,0,0
89399.075,168.723,-1000.28,0,0
89659.4,168.916,-997.168,0,0
89919.725,168.895,-993.972,0,0
90180,169.13,-991.249,0,0
90440.4,168.936,-988.456,0,0
90700.7,168.828,-985.849,0,0
90961,168.474,-983.06,0,0
91221.3,167.891,-980.52,0,0
91481.7,167.277,-977.754,0,0
91742,166.41,-974.87,0,0
92002.3,165.391,-971.971,0,0
92262.6,164.549,-968.397,0,0
92523,163.874,-965.071,0,0
92783.3,163.412,-961.818,0,0
93043.6,162.644,-958.485,0,0
93303.9,161.949,-955.139,0,0
93564.3,161.522,-951.436,0,0
93824.6,161.256,-948.014,0,0
94084.9,160.955,-944.608,0,0
94345.2,160.753,-941.007,0,0
94605.6,160.879,-937.522,0,0
94865.9,160.982,-934.564,0,0
95126.2,160.938,-931.575,0,0
95386.5,160.69,-928.435,0,0
95646.9,160.772,-925.24,0,0
95907.2,160.926,-922.289,0,0
96167.5,160.984,-919.673,0,0
96427.8,160.921,-917.056,0,0
96688.2,160.598,-914.438,0,0
96948.5,160.311,-911.827,0,0
97208.8,159.907,-909.2,0,0
97469.1,159.323,-906.508,0,0
97729.5,158.692,-903.583,0,0
97989.8,158.26,-900.636,0,0
98250.1,157.712,-897.487,0,0
98510.4,157.395,-894.27,0,0
98770.8,157.298,-891.049,0,0
99031.1,157.427,-887.992,0,0
99291.4,157.623,-885.129,0,0
99551.7,157.769,-882.467,0,0
99812.1,157.824,-879.835,0,0
100072,157.904,-877.254,0,0
100333,158.054,-874.767,0,0
100593,158.122,-872.519,0,0
100853,158.064,-870.302,0,0
101114,157.84,-868.185,0,0
101374,157.475,-866.103,0,0
101634,156.891,-863.846,0,0
101895,156.458,-861.493,0,0
102155,156.025,-859.187,0,0
102415,155.554,-856.814,0,0
102676,155.202,-854.509,0,0
102936,154.851,-852.4,0,0
103196,154.332,-850.371,0,0
103457,153.658,-848.356,0,0
103717,152.895,-846.323,0,0
103977,151.989,-844.338,0,0
104238,150.971,-842.319,0,0
104498,149.823,-840.353,0,0
104758,148.329,-838.232,0,0
105019,146.735,-835.971,0,0
105279,144.879,-833.379,0,0
105539,143.111,-830.481,0,0
105800,141.252,-827.406,0,0
106060,139.458,-823.824,0,0
106320.175,137.837,-820.034,0,0
106580.5,136.569,-816.048,0,0
106840.825,135.489,-811.897,0,0
107101.15,134.771,-807.617,0,0
107361.475,134.454,-803.432,0,0
107621.8,134.325,-799.361,0,0
107882.125,134.319,-795.362,0,0
108142.45,134.469,-791.43,0,0
108402.775,134.9,-787.65,0,0
108663.1,135.515,-784.166,0,0
108923.425,135.941,-780.848,0,0
109183.75,136.355,-777.574,0,0
109444.075,136.646,-774.386,0,0
109704.4,136.905,-771.007,0,0
109964.725,137.482,-767.488,0,0
110225.05,138.359,-764.161,0,0
110485.375,139.207,-761.135,0,0
110745.7,139.941,-758.101,0,0
111006.025,140.792,-755.188,0,0
111266.35,142.044,-752.345,0,0
111526.675,143.304,-749.472,0,0
111787.0,144.621,-747.217,0,0
112047.325,145.684,-745.245,0,0
112307.65,146.577,-743.484,0,0
112567.975,147.18,-741.622,0,0
112828.3,147.896,-739.781,0,0
113088.625,148.406,-738.087,0,0
113348.95,148.61,-736.461,0,0
113609.275,148.794,-734.517,0,0
113869.6,149.08,-732.662,0,0
114129.925,149.314,-730.784,0,0
114390.25,149.291,-728.829,0,0
114650.575,149.611,-726.446,0,0
114910.9,150.247,-724.31,0,0
115171.225,151.145,-722.575,0,0
115431.55,151.697,-721.073,0,0
115691.875,152.327,-719.517,0,0
115952.2,153.244,-718.519,0,0
116212.525,153.603,-718.115,0,0
116472.85,153.283,-717.866,0,0
116733.175,152.391,-717.47,0,0
116993.5,151.122,-716.716,0,0
117253.825,149.502,-715.753,0,0
117514.15,147.513,-714.261,0,0
117774.475,145.528,-712.079,0,0
118034.8,143.713,-709.616,0,0
118295.125,142.222,-706.709,0,0
118555.45,140.952,-703.643,0,0
118815.775,140.086,-700.477,0,0
119076.1,139.398,-697.339,0,0
119336.425,138.779,-694.143,0,0
119596.75,138.378,-690.849,0,0
119857.075,138.232,-687.473,0,0
120117.4,138.451,-684.082,0,0
120377.725,139.1,-681.02,0,0
120638.05,139.886,-678.269,0,0
120898.375,140.795,-675.912,0,0
121158.7,141.523,-674.009,0,0
121419.025,141.899,-672.381,0,0
121679.35,141.97,-670.765,0,0
121939.675,141.798,-669.101,0,0
122200.0,141.327,-667.283,0,0
122460,140.787,-665.176,0,0
122721,140.369,-662.858,0,0
122981,140.143,-660.445,0,0
123241,140.073,-658.126,0,0
123502,140.013,-655.933,0,0
123762,139.881,-653.766,0,0
124022,139.719,-651.625,0,0
124283,139.499,-649.437,0,0
124543,139.346,-647.274,0,0
124803,139.132,-645.173,0,0
125064,138.779,-642.99,0,0
125324,138.46,-640.777,0,0
125584,138.17,-638.573,0,0
125845,137.692,-636.326,0,0
126105,137.329,-633.935,0,0
126365,136.896,-631.561,0,0
126626,136.559,-629.058,0,0
126886,136.136,-626.49,0,0
127146,135.854,-623.991,0,0
127406,135.683,-621.215,0,0
127667,135.318,-618.438,0,0
127927,135.294,-615.591,0,0
128187,135.394,-612.795,0,0
128448,135.571,-610.025,0,0
128708,135.849,-607.417,0,0
128968,136.23,-604.781,0,0
129229,136.487,-602.36,0,0
129489,136.861,-599.962,0,0
129749,137.045,-597.741,0,0
130010,137.136,-595.434,0,0
130270,137.211,-593.049,0,0
130530,137.312,-590.631,0,0
130791,137.415,-588.202,0,0
131051,137.526,-585.722,0,0
131311,137.658,-583.22,0,0
131572,137.787,-580.645,0,0
131832,138.037,-578.071,0,0
132092,138.259,-575.546,0,0
132353,138.569,-572.928,0,0
132613,138.983,-570.35,0,0
132873,139.411,-567.838,0,0
133134,139.966,-565.353,0,0
133394,140.446,-562.935,0,0
133654,140.926,-560.584,0,0
133915,141.388,-558.244,0,0
134175,141.871,-555.858,0,0
134435,142.31,-553.534,0,0
134696,142.761,-551.18,0,0
134956,143.286,-548.831,0,0
135216,143.73,-546.512,0,0
135477,144.292,-544.156,0,0
135737,144.761,-541.792,0,0
135997,145.371,-539.313,0,0
136258,146.029,-536.942,0,0
136518,146.775,-534.492,0,0
136778,147.586,-532.164,0,0
137039,148.511,-529.867,0,0
137299,149.471,-527.732,0,0
137559,150.479,-525.715,0,0
137819,151.399,-523.877,0,0
138080,152.186,-522.172,0,0
138340.125,152.828,-520.44,0,0
138600.45,153.408,-518.644,0,0
138860.775,153.902,-516.797,0,0
139121.1,154.483,-514.96,0,0
139381.425,154.897,-513.176,0,0
139641.75,155.428,-511.237,0,0
139902.075,155.998,-509.38,0,0
140162.4,156.531,-507.445,0,0
140422.725,157.072,-505.6,0,0
140683.05,157.698,-503.656,0,0
140943.375,158.288,-501.795,0,0
141203.7,158.923,-500.057,0,0
141464.025,159.673,-498.423,0,0
141724.35,160.273,-496.91,0,0
141984.675,160.622,-495.621,0,0
142245.0,160.807,-494.098,0,0
142505.325,160.808,-492.511,0,0
142765.65,160.744,-490.801,0,0
143025.975,160.667,-488.961,0,0
143286.3,160.714,-486.938,0,0
143546.625,160.697,-484.814,0,0
143806.95,160.757,-482.68,0,0
144067.275,160.834,-480.435,0,0
144327.6,161.084,-478.13,0,0
144587.925,161.422,-475.815,0,0
144848.25,161.774,-473.558,0,0
145108.575,162.251,-471.231,0,0
145368.9,162.822,-468.992,0,0
145629.225,163.456,-466.878,0,0
145889.55,164.127,-464.839,0,0
146149.875,164.625,-462.917,0,0
146410.2,165.158,-461.032,0,0
146670.525,165.642,-459.189,0,0
146930.85,166.137,-457.368,0,0
147191.175,166.415,-455.699,0,0
147451.5,166.522,-454.007,0,0
147711.825,166.291,-452.126,0,0
147972.15,166.13,-449.97,0,0
148232.475,166.031,-447.673,0,0
148492.8,165.969,-445.354,0,0
148753.125,165.926,-442.744,0,0
149013.45,166.021,-440.058,0,0
149273.775,166.189,-437.378,0,0
149534.1,166.501,-434.613,0,0
149794.425,166.872,-431.88,0,0
150054.75,167.297,-429.065,0,0
150315.075,167.866,-426.238,0,0
150575.4,168.476,-423.442,0,0
150835.725,169.145,-420.6,0,0
151096.05,169.76,-417.742,0,0
151356.375,170.528,-414.791,0,0
151616.7,171.354,-411.803,0,0
151877.025,172.447,-408.684,0,0
152137.35,173.767,-405.629,0,0
152397.675,175.311,-402.739,0,0
152658.0,177.086,-400.143,0,0
152918.325,178.787,-397.848,0,0
153178.65,180.282,-395.699,0,0
153438.975,181.717,-393.617,0,0
153699.3,183.063,-391.606,0,0
153959.625,184.299,-389.68,0,0
154219.95,185.394,-387.677,0,0
154480,186.309,-385.596,0,0
154741,187.233,-383.329,0,0
155001,188.223,-380.859,0,0
155261,189.341,-378.292,0,0
155522,190.751,-375.63,0,0
155782,192.41,-373.107,0,0
156042,194.161,-370.83,0,0
156303,195.966,-368.692,0,0
156563,197.819,-366.756,0,0
156823,199.581,-365.093,0,0
157084,201.308,-363.604,0,0
157344,202.665,-362.399,0,0
157604,203.772,-361.046,0,0
157864,204.609,-359.472,0,0
158125,205.395,-357.695,0,0
158385,206.26,-355.812,0,0
158645,207.223,-353.945,0,0
158906,208.159,-351.983,0,0
159166,209.196,-350.122,0,0
159426,210.05,-348.178,0,0
159687,210.956,-346.159,0,0
159947,211.937,-344.074,0,0
160207,212.907,-342.068,0,0
160468,213.824,-339.991,0,0
160728,214.721,-337.835,0,0
160988,215.68,-335.616,0,0
161249,216.754,-333.411,0,0
161509,217.798,-331.235,0,0
161769,218.855,-329.132,0,0
162030,219.745,-326.971,0,0
162290,220.685,-324.62,0,0
162550,221.686,-322.202,0,0
162811,222.808,-319.818,0,0
163071,223.94,-317.415,0,0
163331,225.162,-315.03,0,0
163592,226.394,-312.756,0,0
163852,227.552,-310.495,0,0
164112,228.647,-308.254,0,0
164373,229.679,-305.904,0,0
164633,230.659,-303.497,0,0
164893,231.64,-300.965,0,0
165154,232.682,-298.32,0,0
165414,233.758,-295.6,0,0
165674,234.962,-292.82,0,0
165935,236.207,-290.086,0,0
166195,237.519,-287.278,0,0
166455,238.821,-284.54,0,0
166716,240.119,-281.683,0,0
166976,241.442,-278.788,0,0
167236,242.828,-275.82,0,0
167497,244.319,-272.801,0,0
167757,245.819,-269.736,0,0
168017,247.456,-266.658,0,0
168277,249.164,-263.615,0,0
168538,250.956,-260.548,0,0
168798,252.714,-257.55,0,0
169058,254.509,-254.568,0,0
169319,256.318,-251.556,0,0
169579,258.077,-248.502,0,0
169839,259.829,-245.406,0,0
170100,261.632,-242.149,0,0
170360.075,263.459,-238.911,0,0
170620.4,265.354,-235.628,0,0
170880.725,267.284,-232.271,0,0
171141.05,269.227,-228.806,0,0
171401.375,271.224,-225.225,0,0
171661.7,273.358,-221.607,0,0
171922.025,275.551,-217.936,0,0
172182.35,277.799,-214.221,0,0
172442.675,280.188,-210.39,0,0
172703.0,282.547,-206.525,0,0
172963.325,285.047,-202.544,0,0
173223.65,287.638,-198.501,0,0
173483.975,290.325,-194.384,0,0
173744.3,293.187,-190.121,0,0
174004.625,296.14,-185.762,0,0
174264.95,299.284,-181.356,0,0
174525.275,302.604,-176.9,0,0
174785.6,306.078,-172.377,0,0
175045.925,309.744,-167.833,0,0
175306.25,313.595,-163.205,0,0
175566.575,317.647,-158.563,0,0
175826.9,321.952,-153.892,0,0
176087.225,326.393,-149.213,0,0
176347.55,331.082,-144.54,0,0
176607.875,335.999,-139.909,0,0
176868.2,341.155,-135.207,0,0
177128.525,346.56,-130.568,0,0
177388.85,352.276,-126.03,0,0
177649.175,358.153,-121.568,0,0
177909.5,364.268,-117.222,0,0
178169.825,370.587,-112.965,0,0
178430.15,377.197,-108.732,0,0
178690.475,384.164,-104.667,0,0
178950.8,391.375,-100.852,0,0
179211.125,398.846,-97.4394,0,0
179471.45,406.369,-94.2456,0,0
179731.775,413.9,-91.281,0,0
179992.1,421.517,-88.6148,0,0
180252.425,429.071,-86.0832,0,0
180512.75,436.71,-83.6931,0,0
180773.075,444.306,-81.4609,0,0
181033.4,451.826,-79.18,0,0
181293.725,459.693,-76.8187,0,0
181554.05,467.614,-74.6612,0,0
181814.375,475.762,-72.6465,0,0
182074.7,484.035,-70.8889,0,0
182335.025,492.32,-69.3078,0,0
182595.35,500.698,-67.9464,0,0
182855.675,509.049,-66.7058,0,0
183116.0,517.301,-65.4799,0,0
183376.325,525.538,-64.4346,0,0
183636.65,533.854,-63.3184,0,0
183896.975,542.157,-62.1743,0,0
184157.3,550.626,-61.1174,0,0
184417.625,559.078,-59.8983,0,0
184677.95,567.744,-58.5211,0,0
184938.275,576.629,-57.1719,0,0
185198.6,585.996,-55.6938,0,0
185458.925,595.59,-54.1938,0,0
185719.25,605.601,-52.8574,0,0
185979.575,616.056,-51.5889,0,0
186239.9,626.909,-50.5183,0,0
186500,638.173,-49.6536,0,0
186761,649.942,-49.1042,0,0
187021,662.085,-48.9111,0,0
187281,674.54,-49.1452,0,0
187542,687.32,-49.7408,0,0
187802,700.398,-50.7697,0,0
188062,713.728,-52.1873,0,0
188322,727.359,-54.0297,0,0
188583,741.294,-56.2532,0,0
188843,755.6,-59.0425,0,0
189103,770.237,-62.4034,0,0
189364,785.118,-66.3596,0,0
189624,800.254,-70.9479,0,0
189884,815.653,-76.2877,0,0
190145,831.194,-82.4214,0,0
190405,846.85,-89.3663,0,0
190665,862.487,-97.1327,0,0
190926,878.041,-105.773,0,0
191186,893.396,-115.407,0,0
191446,908.557,-125.496,0,0
191707,923.472,-136.463,0,0
191967,938.212,-148.071,0,0
192227,952.566,-160.359,0,0
192488,966.668,-173.421,0,0
192748,980.498,-187.174,0,0
193008,994.048,-201.607,0,0
193269,1007.26,-216.832,0,0
193529,1020.12,-232.814,0,0
193789,1032.57,-249.605,0,0
194050,1044.49,-267.267,0,0
194310,1055.92,-285.715,0,0
194570,1066.41,-304.923,0,0
194831,1076.29,-325.143,0,0
195091,1085.34,-345.893,0,0
195351,1093.32,-367.355,0,0
195612,1100.23,-389.446,0,0
195872,1106.19,-411.968,0,0
196132,1111.15,-435.211,0,0
196393,1114.79,-458.854,0,0
196653,1117.27,-482.674,0,0
196913,1118.23,-506.647,0,0
197174,1118.24,-530.577,0,0
197434,1116.83,-554.738,0,0
197694,1114.05,-578.589,0,0
197955,1109.99,-602.087,0,0
198215,1104.88,-625.35,0,0
198475,1098.51,-647.938,0,0
198735,1091.24,-670.03,0,0
198996,1083.02,-691.399,0,0
199256,1073.81,-712.108,0,0
199516,1064.2,-732.791,0,0
199777,1053.6,-752.522,0,0
200037,1042.12,-771.754,0,0
200297,1029.93,-789.991,0,0
200558,1017.47,-807.855,0,0
200818,1003.65,-824.515,0,0
201078,989.453,-840.905,0,0
201339,974.616,-856.128,0,0
201599,959.258,-870.803,0,0
201859,943.458,-884.04,0,0
202120,927.491,-896.546,0,0
202380.025,911.086,-908.035,0,0
202640.35,894.777,-918.341,0,0
202900.675,878.38,-927.885,0,0
203161.0,861.924,-936.738,0,0
203421.325,845.214,-944.835,0,0
203681.65,829.23,-952.029,0,0
203941.975,812.678,-958.108,0,0
204202.3,796.835,-963.757,0,0
204462.625,780.793,-968.819,0,0
204722.95,765.266,-973.091,0,0
204983.275,750.115,-976.924,0,0
205243.6,734.736,-980.091,0,0
205503.925,719.84,-982.703,0,0
205764.25,705.028,-984.794,0,0
206024.575,690.778,-986.571,0,0
206284.9,676.55,-987.856,0,0
206545.225,662.787,-988.451,0,0
206805.55,649.469,-988.954,0,0
207065.875,636.227,-989.182,0,0
207326.2,623.28,-988.877,0,0
207586.525,610.781,-988.305,0,0
207846.85,598.447,-987.35,0,0
208107.175,586.476,-986.173,0,0
208367.5,574.751,-984.781,0,0
208627.825,563.562,-983.024,0,0
208888.15,552.399,-981.253,0,0
209148.475,541.423,-979.286,0,0
209408.8,530.957,-977.093,0,0
209669.125,520.72,-974.69,0,0
209929.45,510.808,-972.253,0,0
210189.775,501.059,-969.784,0,0
210450.1,491.624,-966.859,0,0
210710.425,482.148,-964.065,0,0
210970.75,473.056,-960.969,0,0
211231.075,463.968,-957.975,0,0
211491.4,455.25,-954.646,0,0
211751.725,446.794,-951.145,0,0
212012.05,438.568,-947.596,0,0
212272.375,430.676,-943.977,0,0
212532.7,423.231,-940.168,0,0
212793.025,415.685,-936.609,0,0
213053.35,408.391,-932.907,0,0
213313.675,401.338,-929.331,0,0
213574.0,394.344,-925.664,0,0
213834.325,387.401,-921.931,0,0
214094.65,380.543,-918.11,0,0
214354.975,374.007,-914.096,0,0
214615.3,367.495,-910.113,0,0
214875.625,361.355,-905.879,0,0
215135.95,355.268,-901.559,0,0
215396.275,349.393,-897.469,0,0
215656.6,343.812,-892.988,0,0
215916.925,338.316,-888.794,0,0
216177.25,333.066,-884.418,0,0
216437.575,327.973,-880.171,0,0
216697.9,323,-875.908,0,0
216958.225,318.182,-871.584,0,0
217218.55,313.409,-867.294,0,0
217478.875,308.802,-862.93,0,0
217739.2,304.362,-858.604,0,0
217999.525,300.1,-854.295,0,0
218259.85,295.88,-849.887,0,0
218520,291.833,-845.469,0,0
218780,287.891,-841.106,0,0
219041,284.154,-836.814,0,0
219301,280.602,-832.383,0,0
219561,277.204,-827.98,0,0
219822,273.796,-823.574,0,0
220082,270.542,-819.225,0,0
220342,267.318,-814.806,0,0
220603,264.51,-810.626,0,0
220863,261.678,-806.248,0,0
221123,258.935,-801.963,0,0
221384,256.441,-797.694,0,0
221644,253.847,-793.446,0,0
221904,251.52,-789.261,0,0
222165,249.301,-785.219,0,0
222425,247.228,-780.959,0,0
222685,245.146,-776.892,0,0
222946,243.267,-772.973,0,0
223206,241.509,-768.955,0,0
223466,239.869,-765.085,0,0
223727,238.289,-761.112,0,0
223987,236.958,-757.384,0,0
224247,235.407,-753.553,0,0
224508,234.144,-749.886,0,0
224768,232.895,-746.421,0,0
225028,231.658,-742.984,0,0
225289,230.645,-739.541,0,0
225549,229.633,-736.255,0,0
225809,228.642,-733.085,0,0
226070,227.681,-729.951,0,0
226330,226.666,-726.852,0,0
226590,225.718,-723.914,0,0
226851,224.673,-720.977,0,0
227111,223.55,-718.055,0,0
227371,222.559,-715.133,0,0
227632,221.561,-712.22,0,0
227892,220.416,-709.384,0,0
228152,219.455,-706.394,0,0
228413,218.452,-703.519,0,0
228673,217.423,-700.557,0,0
228933,216.454,-697.633,0,0
229193,215.622,-694.65,0,0
229454,214.74,-691.633,0,0
229714,213.863,-688.64,0,0
229974,212.971,-685.578,0,0
230235,212.358,-682.58,0,0
230495,211.733,-679.517,0,0
230755,211.212,-676.53,0,0
231016,210.675,-673.477,0,0
231276,210.214,-670.428,0,0
231536,209.837,-667.433,0,0
231797,209.566,-664.438,0,0
232057,209.293,-661.443,0,0
232317,209.174,-658.471,0,0
232578,209.042,-655.481,0,0
232838,208.981,-652.548,0,0
233098,209.059,-649.592,0,0
233359,209.179,-646.696,0,0
233619,209.371,-643.82,0,0
233879,209.626,-640.945,0,0
234140,210.009,-638.125,0,0
234400,210.431,-635.3,0,0
234660.3,210.879,-632.65,0,0
234920.625,211.519,-629.868,0,0
235180.95,212.103,-627.25,0,0
235441.275,212.804,-624.606,0,0
235701.6,213.598,-622.045,0,0
235961.925,214.407,-619.549,0,0
236222.25,215.342,-617.129,0,0
236482.575,216.304,-614.766,0,0
236742.9,217.325,-612.392,0,0
237003.225,218.429,-610.112,0,0
237263.55,219.593,-607.906,0,0
237523.875,220.791,-605.75,0,0
237784.2,222.096,-603.64,0,0
238044.525,223.407,-601.657,0,0
238304.85,224.843,-599.702,0,0
238565.175,226.281,-597.823,0,0
238825.5,227.735,-596.032,0,0
239085.825,229.31,-594.369,0,0
239346.15,230.974,-592.706,0,0
239606.475,232.593,-591.192,0,0
239866.8,234.349,-589.804,0,0
240127.125,235.966,-588.385,0,0
240387.45,237.703,-587.159,0,0
240647.775,239.414,-585.955,0,0
240908.1,241.338,-584.939,0,0
241168.425,243.113,-583.946,0,0
241428.75,244.985,-583.065,0,0
241689.075,246.758,-582.265,0,0
241949.4,248.61,-581.543,0,0
242209.725,250.526,-580.983,0,0
242470.05,252.32,-580.354,0,0
242730.375,254.248,-579.925,0,0
242990.7,256.256,-579.458,0,0
243251.025,258.188,-579.162,0,0
243511.35,260.287,-578.986,0,0
243771.675,262.392,-578.898,0,0
244032.0,264.565,-579.021,0,0
244292.325,266.689,-579.393,0,0
244552.65,268.857,-579.89,0,0
244812.975,271.003,-580.679,0,0
245073.3,272.911,-581.557,0,0
245333.625,274.674,-582.64,0,0
245593.95,276.436,-583.856,0,0
245854.275,277.916,-585.256,0,0
246114.6,279.262,-586.667,0,0
246374.925,280.438,-588.071,0,0
246635.25,281.545,-589.638,0,0
246895.575,282.398,-591.156,0,0
247155.9,283.147,-592.688,0,0
247416.225,283.953,-594.178,0,0
247676.55,284.542,-595.693,0,0
247936.875,285.057,-597.204,0,0
248197.2,285.556,-598.737,0,0
248457.525,285.788,-600.123,0,0
248717.85,285.989,-601.635,0,0
248978.175,286.353,-602.9,0,0
249238.5,286.438,-604.271,0,0
249498.825,286.619,-605.327,0,0
249759.15,287.014,-606.474,0,0
250019.475,287.374,-607.748,0,0
250279.8,287.843,-609.076,0,0
250540,288.225,-610.638,0,0
250800,288.707,-612.248,0,0
251061,289.1,-614.016,0,0
251321,289.344,-615.861,0,0
251581,289.508,-617.794,0,0
251842,289.617,-619.694,0,0
252102,289.57,-621.765,0,0
252362,289.533,-623.854,0,0
252623,289.4,-626.003,0,0
252883,289.234,-628.294,0,0
253143,288.913,-630.721,0,0
253404,288.405,-633.279,0,0
253664,287.777,-635.836,0,0
253924,286.87,-638.532,0,0
254185,285.752,-641.323,0,0
254445,284.318,-643.978,0,0
254705,282.698,-646.57,0,0
254966,280.963,-649.31,0,0
255226,278.862,-651.766,0,0
255486,276.664,-653.918,0,0
255747,274.17,-656.224,0,0
256007,271.729,-658.159,0,0
256267,269.034,-660.023,0,0
256528,266.349,-661.715,0,0
256788,263.565,-663.212,0,0
257048,260.744,-664.565,0,0
257309,257.905,-665.781,0,0
257569,255.022,-666.826,0,0
257829,252.145,-667.742,0,0
258090,249.259,-668.565,0,0
258350,246.417,-669.235,0,0
258610,243.526,-669.807,0,0
258871,240.689,-670.287,0,0
259131,237.796,-670.739,0,0
259391,234.956,-670.945,0,0
259651,232.103,-671.219,0,0
259912,229.404,-671.24,0,0
260172,226.681,-671.177,0,0
260432,223.781,-671.144,0,0
260693,221.089,-671.035,0,0
260953,218.363,-670.833,0,0
261213,215.659,-670.455,0,0
261474,213.041,-670.126,0,0
261734,210.409,-669.6,0,0
261994,207.861,-669.081,0,0
262255,205.309,-668.483,0,0
262515,202.894,-667.916,0,0
262775,200.472,-667.174,0,0
263036,198.133,-666.423,0,0
263296,195.786,-665.635,0,0
263556,193.473,-664.806,0,0
263817,191.292,-663.951,0,0
264077,189.069,-663.095,0,0
264337,186.928,-662.19,0,0
264598,184.886,-661.249,0,0
264858,182.668,-660.285,0,0
265118,180.707,-659.135,0,0
265379,178.68,-658.142,0,0
265639,176.774,-657.067,0,0
265899,174.91,-656.068,0,0
266160,173.006,-654.957,0,0
266420,171.196,-653.914,0,0
266680.25,169.433,-652.795,0,0
266940.575,167.639,-651.697,0,0
267200.9,165.959,-650.646,0,0
267461.225,164.245,-649.475,0,0
267721.55,162.503,-648.385,0,0
267981.875,160.816,-647.174,0,0
268242.2,159.312,-646.074,0,0
268502.525,157.585,-644.842,0,0
268762.85,156.055,-643.664,0,0
269023.175,154.494,-642.494,0,0
269283.5,152.972,-641.346,0,0
269543.825,151.498,-640.11,0,0
269804.15,150.067,-638.83,0,0
270064.475,148.597,-637.583,0,0
270324.8,147.143,-636.434,0,0
270585.125,145.81,-635.204,0,0
270845.45,144.35,-633.949,0,0
271105.775,143.022,-632.716,0,0
271366.1,141.687,-631.46,0,0
271626.425,140.381,-630.195,0,0
271886.75,139.079,-628.935,0,0
272147.075,137.86,-627.638,0,0
272407.4,136.589,-626.331,0,0
272667.725,135.388,-625.133,0,0
272928.05,134.198,-623.802,0,0
273188.375,133.056,-622.509,0,0
273448.7,131.937,-621.271,0,0
273709.025,130.777,-620.001,0,0
273969.35,129.691,-618.67,0,0
274229.675,128.632,-617.375,0,0
274490.0,127.562,-616.114,0,0
274750.325,126.457,-614.808,0,0
275010.65,125.464,-613.505,0,0
275270.975,124.454,-612.262,0,0
275531.3,123.464,-611.008,0,0
275791.625,122.516,-609.748,0,0
276051.95,121.543,-608.442,0,0
276312.275,120.591,-607.139,0,0
276572.6,119.621,-605.851,0,0
276832.925,118.716,-604.599,0,0
277093.25,117.793,-603.321,0,0
277353.575,116.923,-602.008,0,0
277613.9,116.061,-600.728,0,0
277874.225,115.208,-599.406,0,0
278134.55,114.361,-598.12,0,0
278394.875,113.523,-596.819,0,0
278655.2,112.725,-595.493,0,0
278915.525,111.917,-594.164,0,0
279175.85,111.15,-592.792,0,0
279436.175,110.418,-591.484,0,0
279696.5,109.755,-590.081,0,0
279956.825,109.083,-588.709,0,0
280217.15,108.528,-587.325,0,0
280477.475,108.001,-586.016,0,0
280737.8,107.516,-584.684,0,0
280998.125,107.055,-583.415,0,0
281258.45,106.617,-582.249,0,0
281518.775,106.177,-581.084,0,0
281779.1,105.743,-579.954,0,0
282039.425,105.278,-578.854,0,0
282299.75,104.79,-577.782,0,0
282560,104.292,-576.772,0,0
282820,103.818,-575.655,0,0
283081,103.23,-574.511,0,0
283341,102.832,-573.39,0,0
283601,102.304,-572.345,0,0
283862,101.829,-571.263,0,0
284122,101.366,-570.14,0,0
284382,100.899,-569.011,0,0
284643,100.509,-567.924,0,0
284903,100.169,-566.772,0,0
285163,99.7493,-565.71,0,0
285424,99.6137,-564.708,0,0
285684,99.2375,-563.743,0,0
285944,98.9674,-562.755,0,0
286205,98.6778,-561.879,0,0
286465,98.5034,-560.922,0,0
286725,98.1363,-560.132,0,0
286986,97.796,-559.337,0,0
287246,97.3703,-558.548,0,0
287506,96.9339,-557.73,0,0
287767,96.4857,-556.978,0,0
288027,96.0452,-556.241,0,0
288287,95.5148,-555.381,0,0
288548,95.0019,-554.527,0,0
288808,94.503,-553.673,0,0
289068,94.054,-552.809,0,0
289329,93.534,-551.93,0,0
289589,93.0905,-550.987,0,0
289849,92.5723,-550.13,0,0
290109,92.1575,-549.229,0,0
290370,91.7518,-548.351,0,0
290630,91.336,-547.484,0,0
290890,90.9079,-546.564,0,0
291151,90.4612,-545.72,0,0
291411,90.0042,-544.915,0,0
291671,89.611,-544.039,0,0
291932,89.2152,-543.229,0,0
292192,88.7915,-542.396,0,0
292452,88.4124,-541.537,0,0
292713,87.9537,-540.791,0,0
292973,87.4267,-539.926,0,0
293233,87.0211,-539.205,0,0
293494,86.5092,-538.404,0,0
293754,86.0635,-537.593,0,0
294014,85.5522,-536.749,0,0
294275,85.0049,-535.939,0,0
294535,84.5203,-535.025,0,0
294795,83.9896,-534.203,0,0
295056,83.4236,-533.353,0,0
295316,82.9074,-532.365,0,0
295576,82.3764,-531.443,0,0
295837,81.8753,-530.522,0,0
296097,81.4321,-529.549,0,0
296357,80.9173,-528.545,0,0
296618,80.4769,-527.466,0,0
296878,80.0644,-526.498,0,0
297138,79.6415,-525.404,0,0
297399,79.3276,-524.349,0,0
297659,79.0714,-523.327,0,0
297919,78.8135,-522.273,0,0
298180,78.6373,-521.311,0,0
298440,78.4026,-520.33,0,0
298700.2,78.208,-519.418,0,0
298960.525,78.1191,-518.556,0,0
299220.85,77.9253,-517.762,0,0
299481.175,77.7096,-516.964,0,0
299741.5,77.4351,-516.143,0,0
300001.825,77.2574,-515.381,0,0
300262.15,76.9872,-514.566,0,0
300522.475,76.6895,-513.846,0,0
300782.8,76.3676,-512.994,0,0
301043.125,76.0463,-512.224,0,0
301303.45,75.7712,-511.395,0,0
301563.775,75.5013,-510.67,0,0
301824.1,75.2004,-509.823,0,0
302084.425,74.9323,-508.976,0,0
302344.75,74.6229,-508.178,0,0
302605.075,74.313,-507.327,0,0
302865.4,74.0816,-506.511,0,0
303125.725,73.8432,-505.714,0,0
303386.05,73.5579,-504.879,0,0
303646.375,73.3682,-504.012,0,0
303906.7,73.1227,-503.219,0,0
304167.025,72.8604,-502.378,0,0
304427.35,72.7171,-501.563,0,0
304687.675,72.4441,-500.824,0,0
304948.0,72.293,-500.023,0,0
305208.325,72.0679,-499.305,0,0
305468.65,71.8735,-498.533,0,0
305728.975,71.7376,-497.786,0,0
305989.3,71.5165,-497.112,0,0
306249.625,71.2823,-496.34,0,0
306509.95,71.0768,-495.67,0,0
306770.275,70.8261,-494.913,0,0
307030.6,70.5432,-494.243,0,0
307290.925,70.3379,-493.523,0,0
307551.25,70.0845,-492.799,0,0
307811.575,69.8326,-492.111,0,0
308071.9,69.5711,-491.349,0,0
308332.225,69.2917,-490.593,0,0
308592.55,69.0803,-489.915,0,0
308852.875,68.8207,-489.137,0,0
309113.2,68.5801,-488.405,0,0
309373.525,68.297,-487.693,0,0
309633.85,68.0852,-486.974,0,0
309894.175,67.8583,-486.178,0,0
310154.5,67.678,-485.51,0,0
310414.825,67.4449,-484.761,0,0
310675.15,67.1713,-484.074,0,0
310935.475,66.953,-483.316,0,0
311195.8,66.7734,-482.65,0,0
311456.125,66.548,-481.884,0,0
311716.45,66.2944,-481.212,0,0
311976.775,66.1036,-480.502,0,0
312237.1,65.8227,-479.754,0,0
312497.425,65.6232,-479.073,0,0
312757.75,65.3578,-478.351,0,0
313018.075,65.0864,-477.611,0,0
313278.4,64.8859,-476.952,0,0
313538.725,64.7269,-476.191,0,0
313799.05,64.475,-475.388,0,0
314059.375,64.2674,-474.765,0,0
314319.7,64.0339,-474.003,0,0
314580,63.8315,-473.345,0,0
314840,63.6085,-472.579,0,0
315101,63.4511,-471.867,0,0
315361,63.2027,-471.138,0,0
315621,63.0303,-470.432,0,0
315882,62.8365,-469.737,0,0
316142,62.6539,-469.033,0,0
316402,62.4478,-468.371,0,0
316663,62.2725,-467.664,0,0
316923,62.1074,-466.926,0,0
317183,61.8929,-466.233,0,0
317444,61.6675,-465.531,0,0
317704,61.4795,-464.847,0,0
317964,61.3035,-464.177,0,0
318225,61.1075,-463.478,0,0
318485,60.9031,-462.782,0,0
318745,60.7033,-462.057,0,0
319006,60.5539,-461.368,0,0
319266,60.3507,-460.641,0,0
319526,60.1776,-459.972,0,0
319787,60.0253,-459.254,0,0
320047,59.8749,-458.536,0,0
320307,59.6957,-457.816,0,0
320567,59.5372,-457.184,0,0
320828,59.4464,-456.456,0,0
321088,59.2577,-455.771,0,0
321348,59.1087,-455.069,0,0
321609,58.9745,-454.409,0,0
321869,58.8474,-453.754,0,0
322129,58.678,-453.049,0,0
322390,58.5383,-452.362,0,0
322650,58.4032,-451.72,0,0
322910,58.2859,-451.086,0,0
323171,58.1955,-450.421,0,0
323431,58.041,-449.739,0,0
323691,57.9176,-449.094,0,0
323952,57.7185,-448.457,0,0
324212,57.6266,-447.794,0,0
324472,57.4636,-447.161,0,0
324733,57.3393,-446.485,0,0
324993,57.1608,-445.881,0,0
325253,57.0503,-445.276,0,0
325514,56.8518,-444.625,0,0
325774,56.7333,-443.956,0,0
326034,56.6046,-443.307,0,0
326295,56.3941,-442.667,0,0
326555,56.2606,-442.023,0,0
326815,56.1071,-441.392,0,0
327076,55.9771,-440.748,0,0
327336,55.844,-440.084,0,0
327596,55.7005,-439.405,0,0
327857,55.5277,-438.745,0,0
328117,55.4377,-438.116,0,0
328377,55.279,-437.453,0,0
328638,55.1789,-436.772,0,0
328898,55.0281,-436.151,0,0
329158,54.8875,-435.423,0,0
329419,54.7121,-434.81,0,0
329679,54.6154,-434.158,0,0
329939,54.5365,-433.477,0,0
330200,54.4092,-432.829,0,0
330460,54.303,-432.195,0,0
330720.15,54.1812,-431.523,0,0
330980.475,54.0739,-430.882,0,0
331240.8,53.9854,-430.216,0,0
331501.125,53.8808,-429.549,0,0
331761.45,53.7628,-428.959,0,0
332021.775,53.7093,-428.306,0,0
332282.1,53.5784,-427.669,0,0
332542.425,53.4937,-427.028,0,0
332802.75,53.437,-426.414,0,0
333063.075,53.3389,-425.76,0,0
333323.4,53.239,-425.086,0,0
333583.725,53.1644,-424.473,0,0
333844.05,53.1149,-423.852,0,0
334104.375,53.0128,-423.278,0,0
334364.7,52.9503,-422.608,0,0
334625.025,52.8724,-421.994,0,0
334885.35,52.7937,-421.35,0,0
335145.675,52.6926,-420.768,0,0
335406.0,52.6849,-420.125,0,0
335666.325,52.6198,-419.555,0,0
335926.65,52.5212,-418.925,0,0
336186.975,52.4884,-418.343,0,0
336447.3,52.3794,-417.72,0,0
336707.625,52.3413,-417.116,0,0
336967.95,52.2492,-416.555,0,0
337228.275,52.2257,-415.915,0,0
337488.6,52.1637,-415.315,0,0
337748.925,52.044,-414.713,0,0
338009.25,51.9516,-414.095,0,0
338269.575,51.956,-413.537,0,0
338529.9,51.8636,-412.933,0,0
338790.225,51.7978,-412.265,0,0
339050.55,51.701,-411.697,0,0
339310.875,51.6249,-411.092,0,0
339571.2,51.5998,-410.503,0,0
339831.525,51.5425,-409.92,0,0
340091.85,51.5082,-409.342,0,0
340352.175,51.4295,-408.681,0,0
340612.5,51.4154,-408.038,0,0
340872.825,51.3725,-407.468,0,0
341133.15,51.3213,-406.867,0,0
341393.475,51.293,-406.278,0,0
341653.8,51.2688,-405.646,0,0
341914.125,51.2092,-405.058,0,0
342174.45,51.2436,-404.472,0,0
342434.775,51.1543,-403.916,0,0
342695.1,51.2416,-403.293,0,0
342955.425,51.226,-402.72,0,0
343215.75,51.2332,-402.17,0,0
343476.075,51.2487,-401.65,0,0
343736.4,51.2427,-401.131,0,0
343996.725,51.1749,-400.597,0,0
344257.05,51.2116,-400.093,0,0
344517.375,51.158,-399.551,0,0
344777.7,51.1074,-399.016,0,0
345038.025,51.0882,-398.482,0,0
345298.35,50.99,-397.921,0,0
345558.675,50.9086,-397.411,0,0
345819.0,50.8676,-396.812,0,0
346079.325,50.8373,-396.29,0,0
346339.65,50.7917,-395.665,0,0
346599.975,50.7818,-395.116,0,0
346860,50.7419,-394.542,0,0
347121,50.7164,-393.985,0,0
347381,50.6751,-393.41,0,0
347641,50.6825,-392.864,0,0
347902,50.6528,-392.254,0,0
348162,50.689,-391.737,0,0
348422,50.6888,-391.193,0,0
348683,50.6743,-390.624,0,0
348943,50.7172,-390.071,0,0
349203,50.7449,-389.548,0,0
349464,50.7227,-389.003,0,0
349724,50.7628,-388.471,0,0
349984,50.7944,-387.951,0,0
350245,50.7801,-387.392,0,0
350505,50.7985,-386.909,0,0
350765,50.8111,-386.407,0,0
351025,50.8653,-385.865,0,0
351286,50.9045,-385.396,0,0
351546,50.9315,-384.855,0,0
351806,50.9181,-384.402,0,0
352067,50.9776,-383.859,0,0
352327,51.0147,-383.377,0,0
352587,51.0093,-382.922,0,0
352848,51.0885,-382.444,0,0
353108,51.0989,-381.99,0,0
353368,51.0862,-381.538,0,0
353629,51.1332,-381.067,0,0
353889,51.1613,-380.613,0,0
354149,51.1628,-380.196,0,0
354410,51.1899,-379.734,0,0
354670,51.1575,-379.311,0,0
354930,51.1503,-378.879,0,0
355191,51.1492,-378.446,0,0
355451,51.1313,-377.975,0,0
355711,51.1086,-377.549,0,0
355972,51.0572,-377.123,0,0
356232,51.0527,-376.682,0,0
356492,51.0096,-376.266,0,0
356753,50.9609,-375.812,0,0
357013,50.9294,-375.377,0,0
357273,50.9079,-374.917,0,0
357534,50.875,-374.454,0,0
357794,50.8272,-374.018,0,0
358054,50.7972,-373.539,0,0
358315,50.7546,-373.02,0,0
358575,50.7168,-372.647,0,0
358835,50.6628,-372.204,0,0
359096,50.6457,-371.767,0,0
359356,50.592,-371.303,0,0
359616,50.5811,-370.87,0,0
359877,50.5903,-370.392,0,0
360137,50.4998,-369.984,0,0
360397,50.403,-369.545,0,0
360658,50.3792,-369.079,0,0
360918,50.3039,-368.625,0,0
361178,50.2442,-368.156,0,0
361438,50.1777,-367.693,0,0
361699,50.1017,-367.243,0,0
361959,50.0427,-366.767,0,0
362219,49.999,-366.311,0,0
362480,49.9473,-365.805,0,0
362740.1,49.8909,-365.33,0,0
363000.425,49.8525,-364.876,0,0
363260.75,49.7886,-364.377,0,0
363521.075,49.7443,-363.895,0,0
363781.4,49.7012,-363.421,0,0
364041.725,49.6221,-362.95,0,0
364302.05,49.6622,-362.439,0,0
364562.375,49.5756,-361.951,0,0
364822.7,49.5818,-361.509,0,0
365083.025,49.5431,-361.003,0,0
365343.35,49.5144,-360.5,0,0
365603.675,49.4702,-360.047,0,0
365864.0,49.4766,-359.575,0,0
366124.325,49.5019,-359.07,0,0
366384.65,49.4626,-358.607,0,0
366644.975,49.4166,-358.105,0,0
366905.3,49.4214,-357.642,0,0
367165.625,49.3956,-357.194,0,0
367425.95,49.3901,-356.745,0,0
367686.275,49.3756,-356.268,0,0
367946.6,49.3634,-355.814,0,0
368206.925,49.3783,-355.349,0,0
368467.25,49.328,-354.92,0,0
368727.575,49.3097,-354.44,0,0
368987.9,49.3055,-353.99,0,0
369248.225,49.3015,-353.521,0,0
369508.55,49.266,-353.049,0,0
369768.875,49.2362,-352.601,0,0
370029.2,49.2155,-352.153,0,0
370289.525,49.2468,-351.645,0,0
370549.85,49.2158,-351.194,0,0
370810.175,49.2142,-350.729,0,0
371070.5,49.1978,-350.265,0,0
371330.825,49.2066,-349.804,0,0
371591.15,49.2116,-349.337,0,0
371851.475,49.2451,-348.904,0,0
372111.8,49.2935,-348.43,0,0
372372.125,49.2978,-348.043,0,0
372632.45,49.2791,-347.597,0,0
372892.775,49.2971,-347.165,0,0
373153.1,49.3523,-346.773,0,0
373413.425,49.3193,-346.379,0,0
373673.75,49.3684,-346.02,0,0
373934.075,49.3301,-345.594,0,0
374194.4,49.3187,-345.266,0,0
374454.725,49.262,-344.872,0,0
374715.05,49.2093,-344.497,0,0
374975.375,49.103,-344.081,0,0
375235.7,49.0459,-343.692,0,0
375496.025,48.9722,-343.278,0,0
375756.35,48.877,-342.871,0,0
376016.675,48.7687,-342.401,0,0
376277.0,48.6959,-341.945,0,0
376537.325,48.603,-341.519,0,0
376797.65,48.5218,-341.072,0,0
377057.975,48.452,-340.624,0,0
377318.3,48.3792,-340.159,0,0
377578.625,48.2742,-339.679,0,0
377838.95,48.2366,-339.209,0,0
378099.275,48.1534,-338.757,0,0
378359.6,48.077,-338.255,0,0
378619.925,47.9947,-337.784,0,0
378880,47.9603,-337.295,0,0
379141,47.9031,-336.799,0,0
379401,47.8207,-336.316,0,0
379661,47.7789,-335.854,0,0
379922,47.729,-335.333,0,0
380182,47.6499,-334.789,0,0
380442,47.6171,-334.327,0,0
380703,47.543,-333.812,0,0
380963,47.5071,-333.286,0,0
381223,47.4839,-332.73,0,0
381483,47.449,-332.205,0,0
381744,47.4329,-331.655,0,0
382004,47.4495,-331.163,0,0
382264,47.513,-330.611,0,0
382525,47.5403,-330.1,0,0
382785,47.5744,-329.59,0,0
383045,47.6676,-329.11,0,0
383306,47.7388,-328.675,0,0
383566,47.7603,-328.244,0,0
383826,47.7746,-327.832,0,0
384087,47.7654,-327.415,0,0
384347,47.7502,-327.001,0,0
384607,47.7141,-326.585,0,0
384868,47.6328,-326.156,0,0
385128,47.6099,-325.692,0,0
385388,47.5758,-325.219,0,0
385649,47.5121,-324.737,0,0
385909,47.4611,-324.234,0,0
386169,47.4574,-323.767,0,0
386430,47.3862,-323.298,0,0
386690,47.3851,-322.797,0,0
386950,47.3226,-322.292,0,0
387211,47.3152,-321.807,0,0
387471,47.2919,-321.296,0,0
387731,47.2804,-320.801,0,0
387992,47.2624,-320.317,0,0
388252,47.2586,-319.786,0,0
388512,47.2278,-319.293,0,0
388773,47.2219,-318.789,0,0
389033,47.1803,-318.331,0,0
389293,47.1937,-317.798,0,0
389554,47.1798,-317.29,0,0
389814,47.1761,-316.806,0,0
390074,47.1755,-316.284,0,0
390335,47.1648,-315.777,0,0
390595,47.1808,-315.273,0,0
390855,47.167,-314.768,0,0
391116,47.1584,-314.277,0,0
391376,47.16,-313.746,0,0
391636,47.1654,-313.25,0,0
391896,47.1705,-312.754,0,0
392157,47.148,-312.244,0,0
392417,47.1428,-311.723,0,0
392677,47.1497,-311.196,0,0
392938,47.1588,-310.678,0,0
393198,47.1567,-310.159,0,0
393458,47.1583,-309.626,0,0
393719,47.1769,-309.119,0,0
393979,47.1779,-308.601,0,0
394239,47.2086,-308.06,0,0
394500,47.2176,-307.569,0,0
394760.05,47.2262,-307.017,0,0
395020.375,47.2445,-306.483,0,0
395280.7,47.2332,-305.962,0,0
395541.025,47.2837,-305.434,0,0
395801.35,47.2922,-304.891,0,0
396061.675,47.3167,-304.352,0,0
396322.0,47.3353,-303.813,0,0
396582.325,47.3662,-303.282,0,0
396842.65,47.3998,-302.757,0,0
397102.975,47.4428,-302.193,0,0
397363.3,47.4699,-301.667,0,0
397623.625,47.4945,-301.108,0,0
397883.95,47.5323,-300.572,0,0
398144.275,47.5704,-300.015,0,0
398404.6,47.6154,-299.47,0,0
398664.925,47.6741,-298.913,0,0
398925.25,47.6953,-298.386,0,0
399185.575,47.7581,-297.827,0,0
399445.9,47.7686,-297.259,0,0
399706.225,47.8593,-296.705,0,0
399966.55,47.9329,-296.155,0,0
400006.6,47.9533,-296.064,0,0