File: Accelerated corrosion test data/2025-10-12_18-00-03/sample_8.csv
Frequency (Hz),Impedance (ohms),Phase (Radians),Temperature (C),Humidity (%)
10000.0,321.726,-10854,0,0
10260.325,313.571,-10582.2,0,0
10520.65,306.349,-10323.8,0,0
10780.975,298.437,-10077.7,0,0
11041.3,291.471,-9842.35,0,0
11301.625,285.147,-9619.98,0,0
11561.95,278.842,-9404.63,0,0
11822.275,273.038,-9200.19,0,0
12082.6,271.948,-9003.5,0,0
12342.925,266.716,-8819.56,0,0
12603.25,261.991,-8640.7,0,0
12863.575,257.013,-8473.01,0,0
13123.9,247.95,-8307.44,0,0
13384.225,242.26,-8147.71,0,0
13644.55,238.76,-7994.81,0,0
13904.875,231.832,-7846.33,0,0
14165.2,227.262,-7702.97,0,0
14425.525,222.292,-7565.74,0,0
14685.8,219.254,-7432.35,0,0
14946.175,214.874,-7304.3,0,0
15206.5,212.16,-7180.47,0,0
15466.825,208.166,-7061.41,0,0
15727.15,204.722,-6945.81,0,0
15987.5,201.266,-6833.93,0,0
16247.8,197.933,-6725.82,0,0
16508.125,195.307,-6620.55,0,0
16768.45,191.871,-6518.61,0,0
17028.775,189.262,-6419.71,0,0
17289.1,186.218,-6323.77,0,0
17549.425,183.314,-6230.54,0,0
17809.75,181.872,-6139.39,0,0
18070.075,178.641,-6052.23,0,0
18330.4,175.931,-5966.27,0,0
18590.725,173.854,-5882.44,0,0
18851.05,174.807,-5800.58,0,0
19111.375,172.537,-5722.76,0,0
19371.7,174.522,-5647.57,0,0
19632.025,170.911,-5574.06,0,0
19892.35,167.152,-5504.22,0,0
20152.675,164.931,-5431.82,0,0
20413.0,164.249,-5363.07,0,0
20673.3,163.929,-5296.92,0,0
20933.65,161.355,-5233.67,0,0
21193.975,158.176,-5170.4,0,0
21454.3,156.134,-5107.32,0,0
21714.625,154.759,-5045.79,0,0
21974.9,153.359,-4986.8,0,0
22235.275,152.783,-4929.41,0,0
22495.6,151.84,-4873.05,0,0
22755.925,149.72,-4819.54,0,0
23016.25,148.087,-4765.64,0,0
23276.6,144.4,-4713.94,0,0
23536.9,143.24,-4661.55,0,0
23797.225,140.708,-4609.84,0,0
24057.55,139.079,-4560.32,0,0
24317.875,137.663,-4511.05,0,0
24578.2,135.438,-4464.03,0,0
24838.525,134.679,-4416.27,0,0
25098.85,133.208,-4370.55,0,0
25359.175,131.896,-4325.32,0,0
25619.5,130.445,-4281.87,0,0
25879.8,129.284,-4237.87,0,0
26140.1,128.619,-4195.79,0,0
26400.5,127.469,-4154.44,0,0
26660.8,126.185,-4113.86,0,0
26921.1,125.405,-4073.03,0,0
27181.4,125.417,-4034,0,0
27441.8,124.402,-3995.68,0,0
27702.1,123.478,-3958.56,0,0
27962.4,121.893,-3921.63,0,0
28222.7,122.023,-3884.64,0,0
28483.1,121.021,-3849.06,0,0
28743.4,121.016,-3813.94,0,0
29003.7,120.748,-3779.95,0,0
29264,120.275,-3745.77,0,0
29524.4,119.864,-3712.68,0,0
29784.7,119.763,-3679.63,0,0
30045,119.367,-3648.41,0,0
30305.3,119.24,-3617.36,0,0
30565.7,119.037,-3587.03,0,0
30826,118.511,-3556.53,0,0
31086.3,117.691,-3526.95,0,0
31346.6,117.065,-3497.71,0,0
31607,116.961,-3468.73,0,0
31867.3,117.175,-3440.4,0,0
32127.6,116.314,-3412.8,0,0
32387.9,116.163,-3385.11,0,0
32648.3,116.149,-3357.75,0,0
32908.6,117.822,-3331.36,0,0
33168.9,117.638,-3305.83,0,0
33429.2,118.885,-3281.03,0,0
33689.6,120.145,-3258.27,0,0
33949.9,118.785,-3235.9,0,0
34210.2,117.368,-3212.9,0,0
34470.5,115.502,-3189.85,0,0
34730.9,114.584,-3166.11,0,0
34991.2,114.032,-3144.27,0,0
35251.5,112.392,-3122.78,0,0
35511.8,110.495,-3100.58,0,0
35772.2,108.527,-3078.5,0,0
36032.5,106.765,-3056.93,0,0
36292.8,104.778,-3034.86,0,0
36553.1,103.243,-3013.11,0,0
36813.5,101.733,-2991.9,0,0
37073.8,100.83,-2970.77,0,0
37334.1,99.333,-2950.16,0,0
37594.4,97.965,-2929.56,0,0
37854.8,96.4781,-2909.1,0,0
38115.1,95.2865,-2888.84,0,0
38375.4,94.0246,-2868.85,0,0
38635.7,93.1648,-2848.9,0,0
38896.1,91.802,-2829.45,0,0
39156.4,90.5668,-2810.13,0,0
39416.7,90.0581,-2790.85,0,0
39677,89.0443,-2772.16,0,0
39937.4,87.936,-2753.25,0,0
40197.7,87.4138,-2734.3,0,0
40458,87.2663,-2716.34,0,0
40718.3,86.8641,-2698.48,0,0
40978.7,86.0627,-2680.84,0,0
41239,85.693,-2663.47,0,0
41499.3,85.171,-2646.34,0,0
41759.6,84.8815,-2629.29,0,0
42020,84.1261,-2612.53,0,0
42280.275,83.5389,-2595.86,0,0
42540.6,83.3682,-2579.26,0,0
42800.925,83.3143,-2562.82,0,0
43061.25,83.4213,-2547.13,0,0
43321.575,83.1942,-2531.78,0,0
43581.9,83.0025,-2516.73,0,0
43842.225,82.3631,-2501.98,0,0
44102.55,81.7148,-2486.78,0,0
44362.875,81.2029,-2471.86,0,0
44623.2,80.504,-2457.06,0,0
44883.525,79.9259,-2442.62,0,0
45143.85,79.5416,-2428.09,0,0
45404.175,78.9735,-2413.46,0,0
45664.5,78.6969,-2399.63,0,0
45924.825,78.1951,-2385.71,0,0
46185.15,77.6748,-2371.67,0,0
46445.475,77.3389,-2357.94,0,0
46705.8,76.7711,-2344.22,0,0
46966.125,76.6762,-2330.72,0,0
47226.45,76.2549,-2317.4,0,0
47486.775,76.1377,-2304.32,0,0
47747.1,76.0249,-2291.68,0,0
48007.425,75.6203,-2278.79,0,0
48267.75,75.1401,-2266.1,0,0
48528.075,74.9405,-2253.78,0,0
48788.4,74.2569,-2241.47,0,0
49048.725,73.8051,-2229.05,0,0
49309.05,73.3942,-2216.88,0,0
49569.375,73.0853,-2204.75,0,0
49829.7,72.5235,-2192.72,0,0
50090.025,72.3475,-2180.6,0,0
50350.35,71.9626,-2168.78,0,0
50610.675,71.6943,-2157.02,0,0
50871.0,71.2724,-2145.47,0,0
51131.325,71.35,-2133.99,0,0
51391.65,71.1925,-2122.62,0,0
51651.975,71.3272,-2111.4,0,0
51912.3,71.0142,-2100.52,0,0
52172.625,70.9399,-2089.72,0,0
52432.95,70.7109,-2078.8,0,0
52693.275,70.8071,-2068.09,0,0
52953.6,70.7952,-2057.77,0,0
53213.925,70.7577,-2047.53,0,0
53474.25,70.7731,-2037.32,0,0
53734.575,70.5001,-2027.65,0,0
53994.9,69.8887,-2017.95,0,0
54255.225,69.2899,-2008.08,0,0
54515.55,68.7668,-1998.14,0,0
54775.875,68.337,-1988.26,0,0
55036.2,67.594,-1978.64,0,0
55296.525,66.7989,-1968.99,0,0
55556.85,66.171,-1959.09,0,0
55817.175,65.5611,-1949.22,0,0
56077.5,65.0044,-1939.41,0,0
56337.825,64.6008,-1929.67,0,0
56598.15,64.2636,-1919.88,0,0
56858.475,64.078,-1910.2,0,0
57118.8,63.8894,-1900.83,0,0
57379.125,63.8104,-1891.5,0,0
57639.45,63.5933,-1882.25,0,0
57899.775,63.4622,-1873.1,0,0
58160.1,63.2966,-1863.92,0,0
58420.4,63.2776,-1854.88,0,0
58680.7,63.4923,-1845.96,0,0
58941.1,63.5932,-1837.35,0,0
59201.4,63.4858,-1829.15,0,0
59461.7,63.1348,-1820.74,0,0
59722,62.7638,-1812.36,0,0
59982.4,62.381,-1803.78,0,0
60242.7,62.0803,-1795.34,0,0
60503,61.8368,-1786.71,0,0
60763.3,61.705,-1778.23,0,0
61023.7,61.6361,-1769.89,0,0
61284,61.682,-1761.54,0,0
61544.3,61.8831,-1753.38,0,0
61804.6,61.8554,-1745.67,0,0
62065,61.6171,-1737.68,0,0
62325.3,61.4649,-1729.62,0,0
62585.6,61.4958,-1721.57,0,0
62845.9,61.7168,-1713.58,0,0
63106.3,61.9106,-1705.9,0,0
63366.6,62.2356,-1698.27,0,0
63626.9,62.5006,-1690.76,0,0
63887.2,62.808,-1683.43,0,0
64147.6,63.1958,-1676.28,0,0
64407.9,63.5674,-1669.35,0,0
64668.2,63.6492,-1662.82,0,0
64928.5,63.4595,-1656.01,0,0
65188.9,63.2012,-1649.45,0,0
65449.2,62.7181,-1642.78,0,0
65709.5,62.3546,-1635.78,0,0
65969.8,61.9409,-1629.01,0,0
66230.2,61.5783,-1622.34,0,0
66490.5,61.021,-1615.41,0,0
66750.8,60.4799,-1608.44,0,0
67011.1,60.0897,-1601.35,0,0
67271.5,59.9189,-1594.32,0,0
67531.8,59.836,-1587.58,0,0
67792.1,59.5702,-1580.61,0,0
68052.4,59.3923,-1573.85,0,0
68312.8,59.2916,-1567.11,0,0
68573.1,59.119,-1560.49,0,0
68833.4,59.1191,-1553.69,0,0
69093.7,59.0853,-1547.13,0,0
69354.1,59.1062,-1540.48,0,0
69614.4,59.2089,-1534.07,0,0
69874.7,59.2788,-1527.69,0,0
70135,59.3103,-1521.55,0,0
70395.4,59.2271,-1515.25,0,0
70655.7,59.1602,-1509.01,0,0
70916,59.273,-1502.64,0,0
71176.3,59.344,-1496.61,0,0
71436.7,59.3515,-1490.49,0,0
71697,59.6614,-1484.58,0,0
71957.3,59.6146,-1478.85,0,0
72217.6,59.5755,-1473.13,0,0
72478,59.3992,-1467.31,0,0
72738.3,59.1787,-1461.59,0,0
72998.6,58.879,-1455.83,0,0
73258.9,58.7074,-1449.85,0,0
73519.3,58.8063,-1444.04,0,0
73779.6,58.7276,-1438.39,0,0
74039.9,58.603,-1432.64,0,0
74300.225,58.4266,-1427.05,0,0
74560.55,58.2328,-1421.32,0,0
74820.875,58.0994,-1415.6,0,0
75081.2,58.1094,-1409.87,0,0
75341.525,58.0888,-1404.22,0,0
75601.85,58.025,-1398.7,0,0
75862.175,58.1688,-1393.18,0,0
76122.5,58.1218,-1387.73,0,0
76382.825,58.1704,-1382.31,0,0
76643.15,58.1817,-1377,0,0
76903.475,58.1154,-1371.7,0,0
77163.8,57.9141,-1366.37,0,0
77424.125,57.951,-1361.04,0,0
77684.45,57.8569,-1355.73,0,0
77944.775,57.7465,-1350.47,0,0
78205.1,57.6496,-1345.2,0,0
78465.425,57.6253,-1339.91,0,0
78725.75,57.5127,-1334.65,0,0
78986.075,57.518,-1329.44,0,0
79246.4,57.4865,-1324.16,0,0
79506.725,57.4464,-1318.88,0,0
79767.05,57.516,-1313.73,0,0
80027.375,57.6133,-1308.57,0,0
80287.7,57.6645,-1303.46,0,0
80548.025,57.6711,-1298.31,0,0
80808.35,57.7331,-1293.21,0,0
81068.675,57.8164,-1287.99,0,0
81329.0,58.0686,-1282.94,0,0
81589.325,58.2601,-1277.84,0,0
81849.65,58.5673,-1272.76,0,0
82109.975,59.0686,-1267.78,0,0
82370.3,59.4195,-1263.15,0,0
82630.625,59.5821,-1258.31,0,0
82890.95,59.9644,-1253.55,0,0
83151.275,60.2922,-1248.87,0,0
83411.6,60.5617,-1244.1,0,0
83671.925,61.0615,-1239.4,0,0
83932.25,61.5206,-1234.97,0,0
84192.575,61.8805,-1230.56,0,0
84452.9,62.2338,-1226.13,0,0
84713.225,62.6939,-1221.95,0,0
84973.55,62.9295,-1218.05,0,0
85233.875,62.6711,-1214.09,0,0
85494.2,62.3554,-1209.69,0,0
85754.525,62.1466,-1205.16,0,0
86014.85,62.1001,-1200.46,0,0
86275.175,62.12,-1195.83,0,0
86535.5,62.2745,-1191.13,0,0
86795.825,62.5915,-1186.52,0,0
87056.15,62.9564,-1181.97,0,0
87316.475,63.1929,-1177.66,0,0
87576.8,63.4193,-1173.15,0,0
87837.125,63.8013,-1168.64,0,0
88097.45,64.2998,-1164.25,0,0
88357.775,64.7774,-1159.93,0,0
88618.1,65.2895,-1155.76,0,0
88878.425,65.6257,-1151.5,0,0
89138.75,66.0291,-1147.24,0,0
89399.075,66.4724,-1143,0,0
89659.4,66.9713,-1138.64,0,0
89919.725,67.675,-1134.32,0,0
90180,68.3811,-1130.25,0,0
90440.4,68.9789,-1126.16,0,0
90700.7,69.8593,-1121.99,0,0
90961,70.7914,-1118.05,0,0
91221.3,71.9077,-1114.16,0,0
91481.7,73.0964,-1110.74,0,0
91742,74.0081,-1107.52,0,0
92002.3,74.7116,-1104.4,0,0
92262.6,75.5212,-1101.25,0,0
92523,76.0413,-1098.32,0,0
92783.3,76.4875,-1095.37,0,0
93043.6,76.9344,-1092.61,0,0
93303.9,76.8068,-1089.92,0,0
93564.3,76.4862,-1087.01,0,0
93824.6,75.7573,-1083.68,0,0
94084.9,75.5107,-1079.79,0,0
94345.2,75.5076,-1076.03,0,0
94605.6,75.6943,-1072.2,0,0
94865.9,76.0273,-1068.58,0,0
95126.2,76.3709,-1064.97,0,0
95386.5,76.9154,-1061.68,0,0
95646.9,77.013,-1058.52,0,0
95907.2,77.2077,-1055.07,0,0
96167.5,77.4779,-1051.7,0,0
96427.8,77.7315,-1048.23,0,0
96688.2,78.1056,-1044.92,0,0
96948.5,78.4434,-1041.5,0,0
97208.8,78.9544,-1038.25,0,0
97469.1,79.4801,-1035.13,0,0
97729.5,79.9355,-1032.16,0,0
97989.8,80.1606,-1029.24,0,0
98250.1,80.5151,-1026.08,0,0
98510.4,81.1429,-1023.24,0,0
98770.8,81.4327,-1020.89,0,0
99031.1,81.2389,-1018.35,0,0
99291.4,80.8607,-1015.45,0,0
99551.7,80.7469,-1012.31,0,0
99812.1,80.7886,-1009.23,0,0
100072,80.8895,-1006.28,0,0
100333,80.8806,-1003.45,0,0
100593,80.8838,-1000.56,0,0
100853,80.7838,-997.767,0,0
101114,80.5442,-994.954,0,0
101374,80.2818,-991.92,0,0
101634,80.0992,-988.921,0,0
101895,79.8499,-985.875,0,0
102155,79.7436,-982.727,0,0
102415,79.6168,-979.664,0,0
102676,79.5518,-976.599,0,0
102936,79.4335,-973.679,0,0
103196,79.0804,-970.645,0,0
103457,78.8375,-967.328,0,0
103717,78.744,-964.003,0,0
103977,78.844,-960.585,0,0
104238,79.2008,-957.416,0,0
104498,79.4569,-954.453,0,0
104758,79.5669,-951.596,0,0
105019,79.4965,-948.659,0,0
105279,79.574,-945.506,0,0
105539,79.7418,-942.536,0,0
105800,79.8462,-939.637,0,0
106060,79.9294,-936.67,0,0
106320.175,80.1106,-933.721,0,0
106580.5,80.3425,-930.863,0,0
106840.825,80.4846,-928.074,0,0
107101.15,80.6401,-925.316,0,0
107361.475,80.6762,-922.638,0,0
107621.8,80.611,-919.946,0,0
107882.125,80.4935,-917.178,0,0
108142.45,80.3534,-914.319,0,0
108402.775,80.2973,-911.389,0,0
108663.1,80.2606,-908.464,0,0
108923.425,80.2802,-905.48,0,0
109183.75,80.3986,-902.509,0,0
109444.075,80.5766,-899.612,0,0
109704.4,80.7527,-896.73,0,0
109964.725,81.0071,-893.964,0,0
110225.05,81.2057,-891.367,0,0
110485.375,81.3628,-888.709,0,0
110745.7,81.3259,-886.079,0,0
111006.025,81.3036,-883.434,0,0
111266.35,81.3337,-880.667,0,0
111526.675,81.3738,-877.861,0,0
111787.0,81.4747,-875.11,0,0
112047.325,81.6084,-872.543,0,0
112307.65,81.591,-869.827,0,0
112567.975,81.7314,-867.133,0,0
112828.3,81.8046,-864.393,0,0
113088.625,81.9742,-861.846,0,0
113348.95,82.085,-859.273,0,0
113609.275,82.1165,-856.774,0,0
113869.6,82.0977,-854.295,0,0
114129.925,82.0197,-851.814,0,0
114390.25,81.87,-849.242,0,0
114650.575,81.7366,-846.585,0,0
114910.9,81.6661,-843.91,0,0
115171.225,81.6405,-841.28,0,0
115431.55,81.5833,-838.689,0,0
115691.875,81.4874,-836.096,0,0
115952.2,81.331,-833.506,0,0
116212.525,81.1504,-830.886,0,0
116472.85,80.9429,-828.162,0,0
116733.175,80.7309,-825.322,0,0
116993.5,80.6401,-822.401,0,0
117253.825,80.7655,-819.507,0,0
117514.15,80.9181,-816.748,0,0
117774.475,81.0697,-814.106,0,0
118034.8,81.1401,-811.442,0,0
118295.125,81.1848,-808.799,0,0
118555.45,81.2553,-806.04,0,0
118815.775,81.4333,-803.393,0,0
119076.1,81.6367,-800.879,0,0
119336.425,81.651,-798.406,0,0
119596.75,81.5881,-795.886,0,0
119857.075,81.5249,-793.317,0,0
120117.4,81.4451,-790.657,0,0
120377.725,81.4356,-787.947,0,0
120638.05,81.509,-785.209,0,0
120898.375,81.5736,-782.541,0,0
121158.7,81.6534,-780.033,0,0
121419.025,81.6071,-777.44,0,0
121679.35,81.5739,-774.802,0,0
121939.675,81.5594,-772.132,0,0
122200.0,81.6171,-769.385,0,0
122460,81.7358,-766.764,0,0
122721,81.7825,-764.142,0,0
122981,81.8261,-761.523,0,0
123241,81.8038,-758.838,0,0
123502,81.8363,-756.093,0,0
123762,81.8578,-753.37,0,0
124022,81.9275,-750.554,0,0
124283,82.1379,-747.761,0,0
124543,82.3482,-745.001,0,0
124803,82.6485,-742.278,0,0
125064,82.9252,-739.617,0,0
125324,83.1905,-736.995,0,0
125584,83.4671,-734.373,0,0
125845,83.7323,-731.81,0,0
126105,84.0363,-729.218,0,0
126365,84.3583,-726.679,0,0
126626,84.711,-724.221,0,0
126886,84.9324,-721.928,0,0
127146,85.0591,-719.493,0,0
127406,85.2001,-717.052,0,0
127667,85.2686,-714.567,0,0
127927,85.4154,-712.141,0,0
128187,85.448,-709.669,0,0
128448,85.4967,-707.197,0,0
128708,85.4526,-704.668,0,0
128968,85.4613,-702,0,0
129229,85.5734,-699.313,0,0
129489,85.7917,-696.719,0,0
129749,85.8372,-694.171,0,0
130010,85.8452,-691.536,0,0
130270,85.92,-688.777,0,0
130530,86.1251,-686.007,0,0
130791,86.3833,-683.295,0,0
131051,86.6315,-680.681,0,0
131311,86.8788,-678.074,0,0
131572,87.0467,-675.517,0,0
131832,87.1637,-672.887,0,0
132092,87.3623,-670.196,0,0
132353,87.4963,-667.495,0,0
132613,87.6894,-664.767,0,0
132873,87.9225,-662.081,0,0
133134,88.1251,-659.367,0,0
133394,88.2714,-656.626,0,0
133654,88.5,-653.744,0,0
133915,88.8169,-650.903,0,0
134175,89.2443,-648.078,0,0
134435,89.5901,-645.337,0,0
134696,89.9779,-642.502,0,0
134956,90.4563,-639.665,0,0
135216,91.0321,-636.948,0,0
135477,91.5388,-634.267,0,0
135737,92.1479,-631.581,0,0
135997,92.9042,-629.067,0,0
136258,93.414,-626.776,0,0
136518,93.8305,-624.496,0,0
136778,94.0558,-622.254,0,0
137039,94.0899,-619.861,0,0
137299,94.1037,-617.357,0,0
137559,94.0721,-614.779,0,0
137819,93.9505,-612.081,0,0
138080,93.8102,-609.135,0,0
138340.125,93.8797,-606.047,0,0
138600.45,94.0527,-603.018,0,0
138860.775,94.2449,-599.889,0,0
139121.1,94.5489,-596.745,0,0
139381.425,94.8705,-593.69,0,0
139641.75,95.1227,-590.5,0,0
139902.075,95.5518,-587.181,0,0
140162.4,96.0803,-583.944,0,0
140422.725,96.6291,-580.744,0,0
140683.05,97.176,-577.497,0,0
140943.375,97.8446,-574.218,0,0
141203.7,98.547,-571.018,0,0
141464.025,99.2325,-567.847,0,0
141724.35,99.8859,-564.655,0,0
141984.675,100.532,-561.406,0,0
142245.0,101.227,-558.051,0,0
142505.325,101.991,-554.706,0,0
142765.65,102.759,-551.321,0,0
143025.975,103.526,-547.836,0,0
143286.3,104.431,-544.169,0,0
143546.625,105.58,-540.579,0,0
143806.95,106.679,-536.985,0,0
144067.275,107.894,-533.357,0,0
144327.6,109.204,-529.671,0,0
144587.925,110.679,-525.925,0,0
144848.25,112.395,-522.184,0,0
145108.575,114.284,-518.595,0,0
145368.9,116.305,-515.122,0,0
145629.225,118.446,-511.898,0,0
145889.55,120.442,-508.839,0,0
146149.875,122.355,-505.789,0,0
146410.2,124.259,-502.679,0,0
146670.525,126.302,-499.574,0,0
146930.85,128.396,-496.542,0,0
147191.175,130.595,-493.591,0,0
147451.5,132.7,-491.008,0,0
147711.825,134.331,-488.37,0,0
147972.15,135.892,-485.258,0,0
148232.475,137.644,-481.846,0,0
148492.8,139.623,-478.316,0,0
148753.125,141.861,-474.681,0,0
149013.45,144.451,-471.004,0,0
149273.775,147.461,-467.339,0,0
149534.1,150.744,-463.966,0,0
149794.425,154.134,-460.807,0,0
150054.75,157.748,-457.732,0,0
150315.075,161.648,-454.821,0,0
150575.4,165.768,-452.243,0,0
150835.725,170.028,-449.84,0,0
151096.05,174.866,-447.872,0,0
151356.375,179.75,-446.973,0,0
151616.7,184.201,-446.615,0,0
151877.025,188.148,-446.658,0,0
152137.35,191.747,-447.18,0,0
152397.675,194.406,-448.076,0,0
152658.0,196.315,-448.361,0,0
152918.325,198.181,-448.275,0,0
153178.65,199.932,-448.176,0,0
153438.975,201.413,-447.723,0,0
153699.3,203.124,-446.83,0,0
153959.625,205.226,-446.155,0,0
154219.95,206.93,-445.964,0,0
154480,207.966,-445.261,0,0
154741,209.303,-443.769,0,0
155001,211.329,-442.077,0,0
155261,213.958,-440.652,0,0
155522,216.922,-439.774,0,0
155782,220.17,-439.58,0,0
156042,223.277,-440.696,0,0
156303,224.879,-442.666,0,0
156563,225.076,-444.412,0,0
156823,224.171,-445.153,0,0
157084,222.907,-444.557,0,0
157344,221.956,-442.869,0,0
157604,221.778,-440.581,0,0
157864,222.188,-437.974,0,0
158125,223.24,-435.313,0,0
158385,224.881,-432.671,0,0
158645,227.125,-430.283,0,0
158906,229.621,-428.517,0,0
159166,232.491,-427.217,0,0
159426,235.258,-426.917,0,0
159687,237.234,-427.191,0,0
159947,238.222,-427.531,0,0
160207,238.77,-427.484,0,0
160468,238.612,-426.849,0,0
160728,238.303,-425.328,0,0
160988,238.461,-422.949,0,0
161249,239.383,-419.902,0,0
161509,241.335,-417.069,0,0
161769,243.802,-414.685,0,0
162030,246.562,-412.836,0,0
162290,249.525,-411.389,0,0
162550,252.51,-410.387,0,0
162811,255.277,-409.879,0,0
163071,257.935,-409.783,0,0
163331,260.47,-410.056,0,0
163592,262.424,-410.591,0,0
163852,264.065,-411.16,0,0
164112,265.104,-411.481,0,0
164373,266.308,-411.758,0,0
164633,267.442,-412.227,0,0
164893,268.33,-412.709,0,0
165154,269.168,-413.533,0,0
165414,269.392,-414.838,0,0
165674,268.678,-415.911,0,0
165935,267.343,-416.524,0,0
166195,265.683,-416.591,0,0
166455,263.774,-416.154,0,0
166716,261.437,-415.17,0,0
166976,259.06,-413.263,0,0
167236,257.188,-410.62,0,0
167497,255.636,-407.849,0,0
167757,254.245,-404.699,0,0
168017,253.037,-401.257,0,0
168277,252.176,-397.566,0,0
168538,251.408,-393.573,0,0
168798,251.038,-389.299,0,0
169058,251.113,-384.811,0,0
169319,251.592,-380.368,0,0
169579,252.397,-376.05,0,0
169839,253.288,-371.793,0,0
170100,254.295,-367.277,0,0
170360.075,255.772,-362.742,0,0
170620.4,257.496,-358.441,0,0
170880.725,259.199,-354.137,0,0
171141.05,260.854,-349.826,0,0
171401.375,262.375,-345.197,0,0
171661.7,264.475,-339.932,0,0
171922.025,267.358,-334.734,0,0
172182.35,270.8,-329.802,0,0
172442.675,274.677,-325.184,0,0
172703.0,278.85,-321.036,0,0
172963.325,283.149,-317.335,0,0
173223.65,287.513,-314.046,0,0
173483.975,291.879,-311.141,0,0
173744.3,296.005,-308.638,0,0
174004.625,299.773,-306.276,0,0
174264.95,303.367,-304.024,0,0
174525.275,306.543,-301.855,0,0
174785.6,309.394,-299.417,0,0
175045.925,312.004,-296.697,0,0
175306.25,314.451,-293.447,0,0
175566.575,317.133,-289.478,0,0
175826.9,320.392,-285.081,0,0
176087.225,324.242,-280.575,0,0
176347.55,328.464,-275.945,0,0
176607.875,333.727,-271.272,0,0
176868.2,339.601,-267.559,0,0
177128.525,345.189,-264.567,0,0
177388.85,350.408,-261.516,0,0
177649.175,355.499,-258.112,0,0
177909.5,361.389,-254.338,0,0
178169.825,367.905,-250.963,0,0
178430.15,374.777,-248.037,0,0
178690.475,381.907,-245.742,0,0
178950.8,389.011,-243.876,0,0
179211.125,396.126,-242.444,0,0
179471.45,402.864,-241.528,0,0
179731.775,409.328,-240.528,0,0
179992.1,416.021,-239.535,0,0
180252.425,422.442,-239.277,0,0
180512.75,428.315,-238.508,0,0
180773.075,434.672,-237.511,0,0
181033.4,441.114,-236.753,0,0
181293.725,447.495,-235.834,0,0
181554.05,454.33,-234.966,0,0
181814.375,461.645,-234.304,0,0
182074.7,469.186,-234.185,0,0
182335.025,476.766,-234.885,0,0
182595.35,483.948,-236.066,0,0
182855.675,490.823,-237.42,0,0
183116.0,497.056,-239.37,0,0
183376.325,502.59,-240.985,0,0
183636.65,507.76,-242.145,0,0
183896.975,512.665,-242.828,0,0
184157.3,517.885,-242.958,0,0
184417.625,523.425,-242.87,0,0
184677.95,529.161,-242.543,0,0
184938.275,535.518,-241.85,0,0
185198.6,542.602,-240.911,0,0
185458.925,550.449,-240.581,0,0
185719.25,558.564,-240.605,0,0
185979.575,567.455,-240.86,0,0
186239.9,577.068,-242.324,0,0
186500,586.151,-245.164,0,0
186761,594.298,-248.122,0,0
187021,602.287,-251.16,0,0
187281,609.966,-254.228,0,0
187542,617.553,-256.971,0,0
187802,625.724,-259.612,0,0
188062,634.49,-263.014,0,0
188322,643.301,-267.489,0,0
188583,651.522,-272.933,0,0
188843,658.647,-278.745,0,0
189103,664.874,-284.301,0,0
189364,670.608,-289.264,0,0
189624,676.304,-293.61,0,0
189884,682.124,-297.743,0,0
190145,687.864,-301.34,0,0
190405,693.917,-304.21,0,0
190665,701.147,-306.45,0,0
190926,710.033,-309.321,0,0
191186,719.36,-313.358,0,0
191446,729.056,-318.294,0,0
191707,738.754,-324.454,0,0
191967,747.866,-331.495,0,0
192227,756.259,-338.988,0,0
192488,763.619,-346.417,0,0
192748,770.903,-352.685,0,0
193008,779.49,-358.448,0,0
193269,789.416,-364.94,0,0
193529,800.326,-372.447,0,0
193789,811.978,-381.583,0,0
194050,823.52,-392.873,0,0
194310,834.134,-405.813,0,0
194570,843.557,-419.903,0,0
194831,851.823,-434.614,0,0
195091,859.391,-449.783,0,0
195351,866.43,-465.204,0,0
195612,873.443,-481.544,0,0
195872,879.402,-499.685,0,0
196132,883.797,-518.802,0,0
196393,886.245,-538.547,0,0
196653,886.681,-558.46,0,0
196913,885.241,-577.648,0,0
197174,883.011,-596.466,0,0
197434,879.552,-615.19,0,0
197694,875.038,-632.919,0,0
197955,869.255,-650.747,0,0
198215,862.323,-667.502,0,0
198475,854.871,-683.351,0,0
198735,847.043,-698.598,0,0
198996,838.84,-713.586,0,0
199256,829.991,-728.744,0,0
199516,819.38,-744.145,0,0
199777,806.887,-758.448,0,0
200037,792.897,-770.58,0,0
200297,778.747,-780.587,0,0
200558,765.01,-788.569,0,0
200818,752.139,-795.579,0,0
201078,740.228,-802.237,0,0
201339,728.473,-809.252,0,0
201599,715.963,-816.289,0,0
201859,702.594,-822.764,0,0
202120,688.272,-828.153,0,0
202380.025,673.289,-831.549,0,0
202640.35,658.546,-832.95,0,0
202900.675,645.194,-832.546,0,0
203161.0,633.269,-831.427,0,0
203421.325,622.498,-829.811,0,0
203681.65,613.093,-828.146,0,0
203941.975,604.285,-827.168,0,0
204202.3,595.5,-826.061,0,0
204462.625,587.284,-824.782,0,0
204722.95,579.375,-823.702,0,0
204983.275,571.263,-823.054,0,0
205243.6,562.97,-822.125,0,0
205503.925,554.447,-820.746,0,0
205764.25,545.766,-818.861,0,0
206024.575,537.063,-815.896,0,0
206284.9,528.904,-811.57,0,0
206545.225,522.174,-806.53,0,0
206805.55,516.63,-801.608,0,0
207065.875,511.983,-796.69,0,0
207326.2,508.133,-792.173,0,0
207586.525,504.821,-788.038,0,0
207846.85,501.954,-784.254,0,0
208107.175,499.46,-780.95,0,0
208367.5,496.987,-778.04,0,0
208627.825,494.542,-775.236,0,0
208888.15,492.118,-772.537,0,0
209148.475,489.838,-769.816,0,0
209408.8,487.714,-766.991,0,0
209669.125,485.867,-764.043,0,0
209929.45,484.516,-761.111,0,0
210189.775,483.744,-758.263,0,0
210450.1,483.151,-755.826,0,0
210710.425,482.94,-753.596,0,0
210970.75,483.061,-751.577,0,0
211231.075,483.675,-749.931,0,0
211491.4,484.556,-748.943,0,0
211751.725,485.432,-748.625,0,0
212012.05,486.164,-748.782,0,0
212272.375,486.877,-749.319,0,0
212532.7,487.251,-750.628,0,0
212793.025,487.05,-752.297,0,0
213053.35,486.327,-754.093,0,0
213313.675,485.056,-755.729,0,0
213574.0,483.48,-757.105,0,0
213834.325,481.772,-758.346,0,0
214094.65,480.038,-759.449,0,0
214354.975,478.248,-760.447,0,0
214615.3,476.277,-761.5,0,0
214875.625,474.082,-762.514,0,0
215135.95,471.564,-763.212,0,0
215396.275,469.031,-763.57,0,0
215656.6,466.41,-763.46,0,0
215916.925,464.02,-762.967,0,0
216177.25,461.902,-762.176,0,0
216437.575,460.246,-761.043,0,0
216697.9,459.097,-759.879,0,0
216958.225,458.584,-758.833,0,0
217218.55,458.394,-758.202,0,0
217478.875,458.244,-757.918,0,0
217739.2,458.217,-757.873,0,0
217999.525,458.207,-757.949,0,0
218259.85,458.307,-758.201,0,0
218520,458.428,-758.645,0,0
218780,458.619,-759.1,0,0
219041,459.111,-759.675,0,0
219301,459.864,-760.603,0,0
219561,460.536,-761.927,0,0
219822,461.32,-763.64,0,0
220082,462.035,-765.751,0,0
220342,462.656,-768.101,0,0
220603,463.128,-770.86,0,0
220863,463.057,-774.173,0,0
221123,462.81,-777.387,0,0
221384,462.208,-780.461,0,0
221644,461.792,-783.728,0,0
221904,461.395,-787.251,0,0
222165,460.772,-791.408,0,0
222425,459.6,-796.005,0,0
222685,457.663,-800.725,0,0
222946,455.124,-805.328,0,0
223206,452.159,-809.4,0,0
223466,449.084,-813.357,0,0
223727,445.872,-817.229,0,0
223987,442.365,-821.059,0,0
224247,438.595,-824.579,0,0
224508,435.059,-827.933,0,0
224768,431.39,-831.622,0,0
225028,427.206,-835.516,0,0
225289,422.589,-839.236,0,0
225549,417.411,-842.817,0,0
225809,411.81,-845.878,0,0
226070,406.1,-848.634,0,0
226330,400.032,-851.028,0,0
226590,394.008,-852.963,0,0
226851,387.91,-854.653,0,0
227111,381.615,-855.992,0,0
227371,375.161,-856.881,0,0
227632,368.395,-857.218,0,0
227892,362.072,-856.899,0,0
228152,356.233,-856.13,0,0
228413,350.884,-855.013,0,0
228673,346.121,-853.978,0,0
228933,341.63,-853.245,0,0
229193,337.193,-852.713,0,0
229454,332.739,-852.402,0,0
229714,328.205,-852.2,0,0
229974,323.492,-851.97,0,0
230235,318.333,-851.723,0,0
230495,313.01,-851.316,0,0
230755,307.713,-850.406,0,0
231016,302.43,-849.381,0,0
231276,297.161,-848.145,0,0
231536,291.829,-846.562,0,0
231797,286.68,-844.774,0,0
232057,281.71,-842.739,0,0
232317,276.891,-840.559,0,0
232578,272.241,-838.308,0,0
232838,267.658,-835.997,0,0
233098,263.109,-833.624,0,0
233359,258.522,-831.125,0,0
233619,253.983,-828.318,0,0
233879,249.674,-825.205,0,0
234140,245.508,-821.948,0,0
234400,241.565,-818.559,0,0
234660.3,237.833,-815.003,0,0
234920.625,234.438,-811.282,0,0
235180.95,231.337,-807.387,0,0
235441.275,228.533,-803.755,0,0
235701.6,226.018,-800.143,0,0
235961.925,223.615,-796.563,0,0
236222.25,221.366,-792.969,0,0
236482.575,219.363,-789.419,0,0
236742.9,217.536,-785.987,0,0
237003.225,215.772,-782.668,0,0
237263.55,214.174,-779.336,0,0
237523.875,212.717,-776.09,0,0
237784.2,211.478,-772.954,0,0
238044.525,210.348,-769.906,0,0
238304.85,209.3,-766.986,0,0
238565.175,208.352,-764.267,0,0
238825.5,207.664,-761.62,0,0
239085.825,207.007,-759.232,0,0
239346.15,206.326,-757.182,0,0
239606.475,205.505,-755.276,0,0
239866.8,204.591,-753.472,0,0
240127.125,203.473,-751.794,0,0
240387.45,202.237,-750.119,0,0
240647.775,200.819,-748.436,0,0
240908.1,199.322,-746.704,0,0
241168.425,197.83,-744.871,0,0
241428.75,196.196,-742.913,0,0
241689.075,194.594,-740.958,0,0
241949.4,193.073,-738.874,0,0
242209.725,191.505,-736.825,0,0
242470.05,189.855,-734.593,0,0
242730.375,188.323,-732.245,0,0
242990.7,186.876,-729.75,0,0
243251.025,185.616,-727.268,0,0
243511.35,184.403,-724.805,0,0
243771.675,183.286,-722.358,0,0
244032.0,182.227,-719.861,0,0
244292.325,181.265,-717.376,0,0
244552.65,180.36,-714.975,0,0
244812.975,179.392,-712.686,0,0
245073.3,178.429,-710.211,0,0
245333.625,177.528,-707.792,0,0
245593.95,176.841,-705.208,0,0
245854.275,176.155,-702.627,0,0
246114.6,175.682,-700.144,0,0
246374.925,175.372,-697.74,0,0
246635.25,175.126,-695.43,0,0
246895.575,174.918,-693.274,0,0
247155.9,174.629,-691.305,0,0
247416.225,174.308,-689.368,0,0
247676.55,173.854,-687.48,0,0
247936.875,173.305,-685.605,0,0
248197.2,172.672,-683.725,0,0
248457.525,171.934,-681.711,0,0
248717.85,171.197,-679.636,0,0
248978.175,170.358,-677.329,0,0
249238.5,169.687,-674.863,0,0
249498.825,169.139,-672.273,0,0
249759.15,168.675,-669.552,0,0
250019.475,168.374,-666.746,0,0
250279.8,168.254,-663.892,0,0
250540,168.312,-660.951,0,0
250800,168.69,-657.99,0,0
251061,169.288,-655.06,0,0
251321,170.244,-652.244,0,0
251581,171.454,-649.612,0,0
251842,172.91,-647.338,0,0
252102,174.384,-645.431,0,0
252362,175.866,-643.755,0,0
252623,177.261,-642.415,0,0
252883,178.502,-641.245,0,0
253143,179.607,-640.243,0,0
253404,180.529,-639.324,0,0
253664,181.281,-638.42,0,0
253924,181.896,-637.504,0,0
254185,182.392,-636.549,0,0
254445,182.836,-635.467,0,0
254705,183.283,-634.329,0,0
254966,183.776,-633.211,0,0
255226,184.247,-631.978,0,0
255486,184.749,-630.701,0,0
255747,185.362,-629.419,0,0
256007,186.059,-628.123,0,0
256267,186.854,-626.854,0,0
256528,187.677,-625.686,0,0
256788,188.537,-624.543,0,0
257048,189.437,-623.464,0,0
257309,190.376,-622.418,0,0
257569,191.382,-621.436,0,0
257829,192.407,-620.521,0,0
258090,193.473,-619.652,0,0
258350,194.566,-618.847,0,0
258610,195.668,-618.135,0,0
258871,196.808,-617.465,0,0
259131,197.942,-616.88,0,0
259391,199.254,-616.384,0,0
259651,200.46,-616.038,0,0
259912,201.65,-615.831,0,0
260172,202.734,-615.825,0,0
260432,203.708,-615.769,0,0
260693,204.62,-615.801,0,0
260953,205.206,-615.888,0,0
261213,205.883,-615.687,0,0
261474,206.753,-615.626,0,0
261734,207.653,-615.716,0,0
261994,208.501,-615.976,0,0
262255,209.112,-616.326,0,0
262515,209.53,-616.609,0,0
262775,209.883,-616.754,0,0
263036,210.278,-616.793,0,0
263296,210.681,-616.867,0,0
263556,210.93,-616.94,0,0
263817,211.109,-616.826,0,0
264077,211.32,-616.563,0,0
264337,211.644,-616.093,0,0
264598,212.171,-615.519,0,0
264858,212.87,-614.906,0,0
265118,213.674,-614.231,0,0
265379,214.808,-613.572,0,0
265639,216.11,-613.018,0,0
265899,217.592,-612.508,0,0
266160,219.308,-612.115,0,0
266420,221.216,-611.846,0,0
266680.25,223.455,-611.816,0,0
266940.575,225.978,-612.042,0,0
267200.9,228.602,-612.745,0,0
267461.225,231.283,-613.878,0,0
267721.55,234.011,-615.447,0,0
267981.875,236.671,-617.49,0,0
268242.2,239.179,-620.076,0,0
268502.525,241.413,-623.047,0,0
268762.85,243.237,-626.471,0,0
269023.175,244.638,-630.157,0,0
269283.5,245.529,-634.006,0,0
269543.825,245.928,-637.872,0,0
269804.15,246.149,-641.793,0,0
270064.475,245.996,-645.747,0,0
270324.8,245.45,-649.66,0,0
270585.125,244.684,-653.662,0,0
270845.45,243.561,-657.622,0,0
271105.775,242.173,-661.585,0,0
271366.1,240.421,-665.528,0,0
271626.425,238.269,-669.389,0,0
271886.75,235.791,-673.071,0,0
272147.075,233.034,-676.647,0,0
272407.4,230.009,-680.034,0,0
272667.725,226.629,-683.312,0,0
272928.05,222.923,-686.427,0,0
273188.375,218.833,-689.233,0,0
273448.7,214.403,-691.767,0,0
273709.025,209.64,-693.834,0,0
273969.35,204.772,-695.405,0,0
274229.675,199.754,-696.444,0,0
274490.0,194.788,-697.031,0,0
274750.325,189.882,-697.161,0,0
275010.65,185.119,-696.862,0,0
275270.975,180.559,-696.19,0,0
275531.3,176.252,-695.19,0,0
275791.625,172.319,-694.014,0,0
276051.95,168.528,-692.724,0,0
276312.275,164.939,-691.363,0,0
276572.6,161.553,-689.895,0,0
276832.925,158.235,-688.424,0,0
277093.25,154.995,-686.831,0,0
277353.575,151.912,-685.126,0,0
277613.9,148.936,-683.326,0,0
277874.225,146.059,-681.467,0,0
278134.55,143.282,-679.529,0,0
278394.875,140.577,-677.484,0,0
278655.2,137.945,-675.248,0,0
278915.525,135.474,-672.841,0,0
279175.85,133.268,-670.292,0,0
279436.175,131.301,-667.641,0,0
279696.5,129.635,-664.947,0,0
279956.825,128.208,-662.334,0,0
280217.15,127.005,-659.736,0,0
280477.475,126.058,-657.258,0,0
280737.8,125.278,-654.881,0,0
280998.125,124.615,-652.628,0,0
281258.45,124.053,-650.486,0,0
281518.775,123.613,-648.492,0,0
281779.1,123.29,-646.619,0,0
282039.425,123.041,-644.855,0,0
282299.75,122.85,-643.286,0,0
282560,122.647,-641.912,0,0
282820,122.393,-640.678,0,0
283081,122.02,-639.535,0,0
283341,121.573,-638.415,0,0
283601,121.078,-637.257,0,0
283862,120.543,-636.108,0,0
284122,120.001,-634.972,0,0
284382,119.409,-633.723,0,0
284643,118.838,-632.381,0,0
284903,118.413,-630.892,0,0
285163,118.173,-629.427,0,0
285424,118.115,-628.007,0,0
285684,118.252,-626.707,0,0
285944,118.498,-625.551,0,0
286205,118.883,-624.561,0,0
286465,119.351,-623.801,0,0
286725,119.849,-623.304,0,0
286986,120.345,-623.074,0,0
287246,120.684,-623.15,0,0
287506,120.837,-623.467,0,0
287767,120.724,-623.943,0,0
288027,120.31,-624.517,0,0
288287,119.588,-625.073,0,0
288548,118.603,-625.506,0,0
288808,117.463,-625.794,0,0
289068,116.234,-625.936,0,0
289329,114.949,-625.945,0,0
289589,113.587,-625.886,0,0
289849,112.219,-625.716,0,0
290109,110.797,-625.451,0,0
290370,109.445,-625.125,0,0
290630,108.064,-624.771,0,0
290890,106.639,-624.393,0,0
291151,105.167,-624.002,0,0
291411,103.647,-623.539,0,0
291671,102.051,-622.996,0,0
291932,100.405,-622.376,0,0
292192,98.7322,-621.627,0,0
292452,97.0552,-620.762,0,0
292713,95.4276,-619.789,0,0
292973,93.8135,-618.727,0,0
293233,92.2659,-617.59,0,0
293494,90.7596,-616.387,0,0
293754,89.2606,-615.148,0,0
294014,87.8179,-613.818,0,0
294275,86.4134,-612.396,0,0
294535,85.0984,-610.906,0,0
294795,83.8771,-609.372,0,0
295056,82.7233,-607.787,0,0
295316,81.6982,-606.18,0,0
295576,80.7619,-604.602,0,0
295837,79.8969,-603.07,0,0
296097,79.1065,-601.547,0,0
296357,78.3346,-600.113,0,0
296618,77.5418,-598.694,0,0
296878,76.7601,-597.269,0,0
297138,75.9697,-595.81,0,0
297399,75.2146,-594.36,0,0
297659,74.468,-592.886,0,0
297919,73.7496,-591.396,0,0
298180,73.0846,-589.894,0,0
298440,72.4294,-588.37,0,0
298700.2,71.7519,-586.812,0,0
298960.525,71.2436,-585.284,0,0
299220.85,70.5786,-583.687,0,0
299481.175,70.2521,-582.113,0,0
299741.5,69.8521,-580.53,0,0
300001.825,69.4303,-578.921,0,0
300262.15,69.0974,-577.379,0,0
300522.475,68.9433,-575.697,0,0
300782.8,68.7046,-574.164,0,0
301043.125,68.6259,-572.624,0,0
301303.45,68.5928,-571.107,0,0
301563.775,68.5656,-569.723,0,0
301824.1,68.6058,-568.402,0,0
302084.425,68.6948,-567.022,0,0
302344.75,68.6535,-565.778,0,0
302605.075,68.8418,-564.62,0,0
302865.4,68.9438,-563.408,0,0
303125.725,68.9912,-562.263,0,0
303386.05,69.0633,-561.239,0,0
303646.375,69.1006,-560.24,0,0
303906.7,69.2651,-559.165,0,0
304167.025,69.2719,-558.097,0,0
304427.35,69.3447,-557.111,0,0
304687.675,69.5725,-556.145,0,0
304948.0,69.697,-555.196,0,0
305208.325,69.768,-554.335,0,0
305468.65,69.8727,-553.378,0,0
305728.975,69.984,-552.605,0,0
305989.3,70.1031,-551.833,0,0
306249.625,70.2778,-551.037,0,0
306509.95,70.3161,-550.353,0,0
306770.275,70.3558,-549.649,0,0
307030.6,70.4047,-548.926,0,0
307290.925,70.3991,-548.277,0,0
307551.25,70.5812,-547.581,0,0
307811.575,70.6025,-546.983,0,0
308071.9,70.718,-546.366,0,0
308332.225,70.7011,-545.846,0,0
308592.55,70.6802,-545.447,0,0
308852.875,70.6629,-545.042,0,0
309113.2,70.431,-544.6,0,0
309373.525,70.3307,-544.117,0,0
309633.85,70.0501,-543.708,0,0
309894.175,69.7553,-543.152,0,0
310154.5,69.4904,-542.562,0,0
310414.825,69.2217,-542.046,0,0
310675.15,68.956,-541.535,0,0
310935.475,68.6442,-540.922,0,0
311195.8,68.3557,-540.456,0,0
311456.125,68.0128,-539.853,0,0
311716.45,67.5968,-539.248,0,0
311976.775,67.3309,-538.692,0,0
312237.1,66.978,-538.099,0,0
312497.425,66.579,-537.487,0,0
312757.75,66.2351,-536.823,0,0
313018.075,65.8704,-536.14,0,0
313278.4,65.4999,-535.489,0,0
313538.725,65.0257,-534.819,0,0
313799.05,64.7079,-534.047,0,0
314059.375,64.3507,-533.369,0,0
314319.7,63.9591,-532.635,0,0
314580,63.6282,-531.919,0,0
314840,63.2863,-531.041,0,0
315101,63.002,-530.382,0,0
315361,62.6278,-529.634,0,0
315621,62.2759,-528.775,0,0
315882,61.9996,-527.962,0,0
316142,61.7928,-527.095,0,0
316402,61.5509,-526.29,0,0
316663,61.3626,-525.503,0,0
316923,61.1884,-524.659,0,0
317183,61.0027,-523.905,0,0
317444,60.8964,-523.126,0,0
317704,60.6984,-522.426,0,0
317964,60.5602,-521.648,0,0
318225,60.4349,-520.945,0,0
318485,60.3269,-520.247,0,0
318745,60.1809,-519.579,0,0
319006,60.0278,-518.86,0,0
319266,59.9418,-518.169,0,0
319526,59.8878,-517.533,0,0
319787,59.8213,-516.842,0,0
320047,59.731,-516.376,0,0
320307,59.6187,-515.752,0,0
320567,59.5416,-515.283,0,0
320828,59.36,-514.77,0,0
321088,59.1792,-514.212,0,0
321348,58.9585,-513.725,0,0
321609,58.7619,-513.228,0,0
321869,58.5623,-512.724,0,0
322129,58.3073,-512.213,0,0
322390,58.0691,-511.715,0,0
322650,57.8367,-511.261,0,0
322910,57.5267,-510.763,0,0
323171,57.2415,-510.322,0,0
323431,57.0287,-509.838,0,0
323691,56.5974,-509.421,0,0
323952,56.1787,-508.925,0,0
324212,55.7737,-508.463,0,0
324472,55.2975,-507.887,0,0
324733,54.8562,-507.36,0,0
324993,54.3413,-506.828,0,0
325253,53.9019,-506.143,0,0
325514,53.423,-505.468,0,0
325774,52.9758,-504.83,0,0
326034,52.5026,-504.097,0,0
326295,52.1068,-503.41,0,0
326555,51.6546,-502.695,0,0
326815,51.286,-501.982,0,0
327076,50.7933,-501.174,0,0
327336,50.4642,-500.495,0,0
327596,50.0707,-499.644,0,0
327857,49.6802,-498.893,0,0
328117,49.3025,-498.097,0,0
328377,48.9476,-497.325,0,0
328638,48.604,-496.54,0,0
328898,48.3086,-495.721,0,0
329158,47.8916,-494.908,0,0
329419,47.5724,-494.139,0,0
329679,47.2943,-493.219,0,0
329939,46.9795,-492.397,0,0
330200,46.6555,-491.562,0,0
330460,46.4035,-490.76,0,0
330720.15,46.0941,-489.918,0,0
330980.475,45.8338,-489.031,0,0
331240.8,45.593,-488.216,0,0
331501.125,45.2984,-487.315,0,0
331761.45,45.0822,-486.487,0,0
332021.775,44.8839,-485.541,0,0
332282.1,44.6364,-484.716,0,0
332542.425,44.4934,-483.836,0,0
332802.75,44.3226,-482.907,0,0
333063.075,44.1407,-481.96,0,0
333323.4,44.049,-481.103,0,0
333583.725,43.9309,-480.209,0,0
333844.05,43.8794,-479.315,0,0
334104.375,43.8536,-478.434,0,0
334364.7,43.8076,-477.56,0,0
334625.025,43.814,-476.729,0,0
334885.35,43.771,-475.912,0,0
335145.675,43.8398,-475.152,0,0
335406.0,43.827,-474.404,0,0
335666.325,43.8759,-473.625,0,0
335926.65,43.8739,-472.942,0,0
336186.975,43.8952,-472.228,0,0
336447.3,43.9423,-471.523,0,0
336707.625,43.9644,-470.902,0,0
336967.95,43.9811,-470.272,0,0
337228.275,43.9939,-469.609,0,0
337488.6,43.9039,-469.027,0,0
337748.925,43.902,-468.399,0,0
338009.25,43.8008,-467.78,0,0
338269.575,43.7981,-467.205,0,0
338529.9,43.7112,-466.571,0,0
338790.225,43.5624,-465.961,0,0
339050.55,43.4868,-465.327,0,0
339310.875,43.4109,-464.74,0,0
339571.2,43.3237,-464.148,0,0
339831.525,43.2152,-463.482,0,0
340091.85,43.0882,-462.933,0,0
340352.175,42.9745,-462.301,0,0
340612.5,42.8272,-461.666,0,0
340872.825,42.7207,-461.119,0,0
341133.15,42.5691,-460.489,0,0
341393.475,42.4256,-459.853,0,0
341653.8,42.2411,-459.211,0,0
341914.125,42.107,-458.533,0,0
342174.45,41.9246,-457.913,0,0
342434.775,41.7968,-457.2,0,0
342695.1,41.6288,-456.501,0,0
342955.425,41.4726,-455.819,0,0
343215.75,41.3886,-455.151,0,0
343476.075,41.2256,-454.411,0,0
343736.4,41.1036,-453.714,0,0
343996.725,40.965,-452.964,0,0
344257.05,40.8579,-452.257,0,0
344517.375,40.7287,-451.556,0,0
344777.7,40.6053,-450.813,0,0
345038.025,40.5435,-450.087,0,0
345298.35,40.4433,-449.282,0,0
345558.675,40.3453,-448.527,0,0
345819.0,40.3249,-447.782,0,0
346079.325,40.2684,-447.045,0,0
346339.65,40.2546,-446.271,0,0
346599.975,40.2368,-445.557,0,0
346860,40.2265,-444.752,0,0
347121,40.2337,-444.022,0,0
347381,40.266,-443.299,0,0
347641,40.2894,-442.583,0,0
347902,40.3451,-441.863,0,0
348162,40.3612,-441.177,0,0
348422,40.4038,-440.498,0,0
348683,40.4646,-439.77,0,0
348943,40.5704,-439.105,0,0
349203,40.6324,-438.427,0,0
349464,40.6173,-437.767,0,0
349724,40.6951,-437.112,0,0
349984,40.8095,-436.46,0,0
350245,40.8473,-435.791,0,0
350505,40.9685,-435.224,0,0
350765,40.9949,-434.547,0,0
351025,41.0599,-433.909,0,0
351286,41.1822,-433.309,0,0
351546,41.2476,-432.711,0,0
351806,41.3029,-432.102,0,0
352067,41.4106,-431.529,0,0
352327,41.4777,-430.885,0,0
352587,41.6011,-430.249,0,0
352848,41.6833,-429.726,0,0
353108,41.8035,-429.164,0,0
353368,41.8871,-428.572,0,0
353629,41.9489,-428.057,0,0
353889,42.0186,-427.536,0,0
354149,42.1154,-426.979,0,0
354410,42.1661,-426.459,0,0
354670,42.2699,-425.958,0,0
354930,42.2942,-425.432,0,0
355191,42.3703,-424.92,0,0
355451,42.3996,-424.419,0,0
355711,42.4791,-423.933,0,0
355972,42.4777,-423.432,0,0
356232,42.5211,-422.908,0,0
356492,42.5756,-422.461,0,0
356753,42.5759,-421.987,0,0
357013,42.5248,-421.47,0,0
357273,42.4771,-420.964,0,0
357534,42.4863,-420.459,0,0
357794,42.4402,-419.913,0,0
358054,42.4672,-419.386,0,0
358315,42.4337,-418.821,0,0
358575,42.4271,-418.234,0,0
358835,42.372,-417.695,0,0
359096,42.3877,-417.189,0,0
359356,42.3806,-416.613,0,0
359616,42.4389,-416.067,0,0
359877,42.3947,-415.511,0,0
360137,42.3882,-414.937,0,0
360397,42.4034,-414.351,0,0
360658,42.3884,-413.77,0,0
360918,42.4295,-413.209,0,0
361178,42.3817,-412.641,0,0
361438,42.4296,-412.024,0,0
361699,42.4467,-411.407,0,0
361959,42.4564,-410.834,0,0
362219,42.4803,-410.239,0,0
362480,42.5395,-409.658,0,0
362740.1,42.6197,-409.006,0,0
363000.425,42.7027,-408.429,0,0
363260.75,42.7761,-407.828,0,0
363521.075,42.854,-407.221,0,0
363781.4,42.9626,-406.64,0,0
364041.725,43.0591,-406.006,0,0
364302.05,43.1601,-405.364,0,0
364562.375,43.2897,-404.802,0,0
364822.7,43.4284,-404.225,0,0
365083.025,43.6476,-403.651,0,0
365343.35,43.8481,-403.058,0,0
365603.675,44.0169,-402.579,0,0
365864.0,44.2311,-402.068,0,0
366124.325,44.3691,-401.598,0,0
366384.65,44.5275,-401.136,0,0
366644.975,44.7196,-400.623,0,0
366905.3,44.8485,-400.131,0,0
367165.625,45.0239,-399.704,0,0
367425.95,45.1583,-399.216,0,0
367686.275,45.3057,-398.74,0,0
367946.6,45.4286,-398.278,0,0
368206.925,45.5474,-397.78,0,0
368467.25,45.7199,-397.271,0,0
368727.575,45.899,-396.755,0,0
368987.9,46.0171,-396.25,0,0
369248.225,46.2382,-395.769,0,0
369508.55,46.4617,-395.308,0,0
369768.875,46.7097,-394.819,0,0
370029.2,46.9655,-394.389,0,0
370289.525,47.2447,-393.985,0,0
370549.85,47.5317,-393.573,0,0
370810.175,47.7696,-393.264,0,0
371070.5,48.0304,-392.983,0,0
371330.825,48.2725,-392.643,0,0
371591.15,48.4729,-392.348,0,0
371851.475,48.6873,-392.105,0,0
372111.8,48.9257,-391.904,0,0
372372.125,49.0652,-391.685,0,0
372632.45,49.1998,-391.5,0,0
372892.775,49.3425,-391.333,0,0
373153.1,49.4157,-391.135,0,0
373413.425,49.4633,-390.97,0,0
373673.75,49.4988,-390.776,0,0
373934.075,49.5128,-390.534,0,0
374194.4,49.4636,-390.347,0,0
374454.725,49.4026,-390.083,0,0
374715.05,49.362,-389.8,0,0
374975.375,49.2675,-389.526,0,0
375235.7,49.2145,-389.171,0,0
375496.025,49.2044,-388.862,0,0
375756.35,49.2188,-388.521,0,0
376016.675,49.1566,-388.172,0,0
376277.0,49.1532,-387.769,0,0
376537.325,49.218,-387.402,0,0
376797.65,49.2576,-387.04,0,0
377057.975,49.3767,-386.727,0,0
377318.3,49.4149,-386.485,0,0
377578.625,49.4476,-386.249,0,0
377838.95,49.4885,-386.02,0,0
378099.275,49.4374,-385.84,0,0
378359.6,49.3758,-385.603,0,0
378619.925,49.2582,-385.376,0,0
378880,49.0705,-385.096,0,0
379141,48.9127,-384.777,0,0
379401,48.7453,-384.388,0,0
379661,48.5438,-383.909,0,0
379922,48.4759,-383.443,0,0
380182,48.4438,-382.924,0,0
380442,48.5034,-382.469,0,0
380703,48.6367,-381.988,0,0
380963,48.8152,-381.627,0,0
381223,48.9847,-381.337,0,0
381483,49.1002,-381.12,0,0
381744,49.2706,-380.979,0,0
382004,49.3142,-380.909,0,0
382264,49.2471,-380.808,0,0
382525,49.1145,-380.75,0,0
382785,48.9456,-380.644,0,0
383045,48.6856,-380.495,0,0
383306,48.3679,-380.304,0,0
383566,48.0993,-380.029,0,0
383826,47.7962,-379.788,0,0
384087,47.4329,-379.445,0,0
384347,47.1363,-379.058,0,0
384607,46.8264,-378.681,0,0
384868,46.5192,-378.213,0,0
385128,46.2268,-377.725,0,0
385388,45.9728,-377.243,0,0
385649,45.7062,-376.757,0,0
385909,45.4676,-376.188,0,0
386169,45.2265,-375.682,0,0
386430,45.0482,-375.079,0,0
386690,44.8673,-374.543,0,0
386950,44.6876,-373.953,0,0
387211,44.5369,-373.324,0,0
387471,44.3956,-372.713,0,0
387731,44.2898,-372.128,0,0
387992,44.2304,-371.494,0,0
388252,44.162,-370.879,0,0
388512,44.1281,-370.235,0,0
388773,44.1291,-369.632,0,0
389033,44.1195,-369.039,0,0
389293,44.1522,-368.445,0,0
389554,44.1941,-367.905,0,0
389814,44.2278,-367.363,0,0
390074,44.2818,-366.819,0,0
390335,44.3246,-366.319,0,0
390595,44.3858,-365.796,0,0
390855,44.392,-365.318,0,0
391116,44.4935,-364.814,0,0
391376,44.5033,-364.388,0,0
391636,44.5456,-363.9,0,0
391896,44.5595,-363.458,0,0
392157,44.5548,-363.018,0,0
392417,44.5339,-362.554,0,0
392677,44.5237,-362.067,0,0
392938,44.5255,-361.586,0,0
393198,44.5167,-361.128,0,0
393458,44.4753,-360.638,0,0
393719,44.4526,-360.109,0,0
393979,44.4634,-359.614,0,0
394239,44.4898,-359.092,0,0
394500,44.4889,-358.571,0,0
394760.05,44.4831,-358.072,0,0
395020.375,44.5264,-357.527,0,0
395280.7,44.5526,-357.008,0,0
395541.025,44.5846,-356.513,0,0
395801.35,44.6754,-355.988,0,0
396061.675,44.7221,-355.522,0,0
396322.0,44.8015,-355.034,0,0
396582.325,44.8327,-354.578,0,0
396842.65,44.9158,-354.097,0,0
397102.975,44.9707,-353.655,0,0
397363.3,44.9546,-353.181,0,0
397623.625,45.0263,-352.711,0,0
397883.95,45.0396,-352.274,0,0
398144.275,45.0638,-351.794,0,0
398404.6,45.0968,-351.321,0,0
398664.925,45.1174,-350.823,0,0
398925.25,45.1354,-350.341,0,0
399185.575,45.139,-349.865,0,0
399445.9,45.1514,-349.376,0,0
399706.225,45.1799,-348.877,0,0
399966.55,45.2255,-348.365,0,0
400006.6,45.2151,-348.275,0,0