File: Accelerated corrosion test data/2025-10-12_18-00-03/sample_3.csv
Frequency (Hz),Impedance (ohms),Phase (Radians),Temperature (C),Humidity (%)
10000.0,257.632,-11683.3,0,0
10260.325,251.36,-11389.4,0,0
10520.65,246.135,-11109.3,0,0
10780.975,241.497,-10842,0,0
11041.3,234.79,-10592.5,0,0
11301.625,229.742,-10349.7,0,0
11561.95,224.352,-10117.8,0,0
11822.275,220.097,-9896.65,0,0
12082.6,217.118,-9685.64,0,0
12342.925,215.19,-9481.21,0,0
12603.25,207.781,-9288.94,0,0
12863.575,204.392,-9101.22,0,0
13123.9,203.88,-8919.55,0,0
13384.225,196.709,-8752.66,0,0
13644.55,194.621,-8586.1,0,0
13904.875,189.071,-8424.94,0,0
14165.2,190.736,-8268.61,0,0
14425.525,185.278,-8121.61,0,0
14685.8,181.762,-7977.71,0,0
14946.175,180.18,-7840.06,0,0
15206.5,176.969,-7700.9,0,0
15466.825,184.885,-7563.61,0,0
15727.15,196.395,-7462.37,0,0
15987.5,175.886,-7349.45,0,0
16247.8,171.175,-7222.67,0,0
16508.125,165.117,-7111.2,0,0
16768.45,171.866,-6993.32,0,0
17028.775,160.701,-6894.84,0,0
17289.1,164.496,-6783.05,0,0
17549.425,159.204,-6692.17,0,0
17809.75,160.327,-6588.24,0,0
18070.075,163.956,-6503.17,0,0
18330.4,153.848,-6408.43,0,0
18590.725,151.248,-6318.86,0,0
18851.05,147.763,-6229.4,0,0
19111.375,149.142,-6141.35,0,0
19371.7,147.83,-6058.93,0,0
19632.025,149.157,-5975.49,0,0
19892.35,149.253,-5896.27,0,0
20152.675,152.542,-5821.08,0,0
20413.0,161.749,-5747.77,0,0
20673.3,163.795,-5676.68,0,0
20933.65,162.576,-5626.21,0,0
21193.975,161.23,-5558.71,0,0
21454.3,146.696,-5499.05,0,0
21714.625,140.636,-5424.62,0,0
21974.9,144.354,-5360.63,0,0
22235.275,142.03,-5302.56,0,0
22495.6,139.34,-5241.88,0,0
22755.925,131.859,-5181.03,0,0
23016.25,130.421,-5122.96,0,0
23276.6,130.448,-5061.47,0,0
23536.9,129.745,-5015.39,0,0
23797.225,123.272,-4957.4,0,0
24057.55,121.042,-4900.93,0,0
24317.875,121.725,-4846.09,0,0
24578.2,118.943,-4796.19,0,0
24838.525,120.109,-4743.81,0,0
25098.85,117.811,-4697.15,0,0
25359.175,115.798,-4648.34,0,0
25619.5,115.274,-4601.2,0,0
25879.8,112.642,-4554.66,0,0
26140.1,110.607,-4507.87,0,0
26400.5,109.774,-4461.41,0,0
26660.8,109.9,-4416.48,0,0
26921.1,110.058,-4373.31,0,0
27181.4,110.208,-4332.64,0,0
27441.8,109.323,-4289.22,0,0
27702.1,109.625,-4250.54,0,0
27962.4,106.972,-4210.44,0,0
28222.7,105.582,-4167.65,0,0
28483.1,113.471,-4126.93,0,0
28743.4,114.372,-4092.89,0,0
29003.7,116.414,-4062.33,0,0
29264,109.619,-4028.17,0,0
29524.4,109.855,-3993.26,0,0
29784.7,105.888,-3957.99,0,0
30045,103.418,-3924.2,0,0
30305.3,102.672,-3887.18,0,0
30565.7,102.709,-3853.85,0,0
30826,102.758,-3821.86,0,0
31086.3,103.734,-3789.66,0,0
31346.6,100.328,-3759.14,0,0
31607,99.3145,-3725.49,0,0
31867.3,99.4718,-3691.86,0,0
32127.6,103.313,-3658.83,0,0
32387.9,111.506,-3631.54,0,0
32648.3,112.114,-3613.36,0,0
32908.6,105.722,-3588.27,0,0
33168.9,101.757,-3561.9,0,0
33429.2,100.092,-3535.87,0,0
33689.6,94.7985,-3507.61,0,0
33949.9,92.2543,-3478.33,0,0
34210.2,92.1596,-3450.78,0,0
34470.5,91.4855,-3425.17,0,0
34730.9,88.9633,-3398.72,0,0
34991.2,87.7809,-3372.25,0,0
35251.5,87.229,-3346.41,0,0
35511.8,86.5461,-3321.81,0,0
35772.2,85.6141,-3296.47,0,0
36032.5,84.5793,-3272.02,0,0
36292.8,84.2478,-3247.87,0,0
36553.1,83.7915,-3224.56,0,0
36813.5,82.9534,-3201.33,0,0
37073.8,82.2738,-3178.08,0,0
37334.1,81.661,-3155.39,0,0
37594.4,81.286,-3132.79,0,0
37854.8,80.6709,-3111.12,0,0
38115.1,80.4762,-3089.21,0,0
38375.4,79.6812,-3067.58,0,0
38635.7,79.5081,-3046.7,0,0
38896.1,78.8854,-3025.65,0,0
39156.4,78.5195,-3004.74,0,0
39416.7,78.3477,-2984.74,0,0
39677,77.8015,-2964.89,0,0
39937.4,76.9898,-2945.09,0,0
40197.7,76.716,-2925.35,0,0
40458,76.205,-2906.13,0,0
40718.3,76.0438,-2886.73,0,0
40978.7,75.8281,-2867.77,0,0
41239,75.3984,-2848.83,0,0
41499.3,75.4282,-2830.96,0,0
41759.6,75.4093,-2812.46,0,0
42020,74.9178,-2794.97,0,0
42280.275,74.7441,-2777.01,0,0
42540.6,74.4421,-2759.63,0,0
42800.925,74.1774,-2742.73,0,0
43061.25,73.8174,-2726,0,0
43321.575,73.2885,-2708.82,0,0
43581.9,73.0774,-2691.72,0,0
43842.225,72.9931,-2675.04,0,0
44102.55,73.0743,-2658.96,0,0
44362.875,72.9254,-2643.45,0,0
44623.2,72.3264,-2627.51,0,0
44883.525,72.2432,-2611.59,0,0
45143.85,72.118,-2596.12,0,0
45404.175,71.5709,-2580.83,0,0
45664.5,71.4072,-2565.01,0,0
45924.825,71.9285,-2550.53,0,0
46185.15,71.217,-2536,0,0
46445.475,70.7579,-2521.1,0,0
46705.8,71.0728,-2506.05,0,0
46966.125,70.6184,-2492.1,0,0
47226.45,70.6638,-2477.47,0,0
47486.775,70.5144,-2463.24,0,0
47747.1,71.261,-2449.31,0,0
48007.425,71.2313,-2436.39,0,0
48267.75,71.1689,-2423.37,0,0
48528.075,70.6492,-2409.94,0,0
48788.4,70.3522,-2397.18,0,0
49048.725,69.51,-2384.04,0,0
49309.05,68.8592,-2370.81,0,0
49569.375,68.9001,-2357.59,0,0
49829.7,68.8001,-2345.16,0,0
50090.025,68.076,-2332.51,0,0
50350.35,67.5558,-2319.61,0,0
50610.675,67.3462,-2306.65,0,0
50871.0,67.2596,-2294.14,0,0
51131.325,67.349,-2281.87,0,0
51391.65,67.1436,-2269.47,0,0
51651.975,67.2049,-2257.35,0,0
51912.3,67.2016,-2245.63,0,0
52172.625,67.027,-2233.7,0,0
52432.95,66.9423,-2221.5,0,0
52693.275,67.1262,-2209.72,0,0
52953.6,67.4686,-2197.95,0,0
53213.925,68.3749,-2186.56,0,0
53474.25,69.0899,-2175.93,0,0
53734.575,69.3172,-2165.28,0,0
53994.9,69.6237,-2154.45,0,0
54255.225,70.7108,-2143.84,0,0
54515.55,71.3374,-2135.12,0,0
54775.875,70.573,-2125.81,0,0
55036.2,69.8971,-2116.18,0,0
55296.525,68.9678,-2106.75,0,0
55556.85,67.566,-2097.15,0,0
55817.175,66.1177,-2086.5,0,0
56077.5,65.1377,-2076.03,0,0
56337.825,64.4537,-2065.69,0,0
56598.15,63.42,-2055.06,0,0
56858.475,62.6032,-2044.5,0,0
57118.8,62.3136,-2033.66,0,0
57379.125,62.0247,-2023.34,0,0
57639.45,62.1202,-2012.93,0,0
57899.775,62.1284,-2002.93,0,0
58160.1,62.1057,-1992.99,0,0
58420.4,61.9397,-1983.07,0,0
58680.7,62.0992,-1973.16,0,0
58941.1,62.1348,-1963.34,0,0
59201.4,62.3019,-1953.57,0,0
59461.7,62.6508,-1944.07,0,0
59722,62.9781,-1934.65,0,0
59982.4,63.2159,-1925.32,0,0
60242.7,63.4484,-1916.15,0,0
60503,63.6576,-1906.99,0,0
60763.3,64.1577,-1897.75,0,0
61023.7,64.533,-1888.78,0,0
61284,64.99,-1879.85,0,0
61544.3,65.47,-1870.89,0,0
61804.6,65.8768,-1862.52,0,0
62065,66.1824,-1853.46,0,0
62325.3,66.6918,-1844.88,0,0
62585.6,67.2265,-1836.13,0,0
62845.9,68.0465,-1827.24,0,0
63106.3,69.1521,-1818.48,0,0
63366.6,69.9921,-1810.29,0,0
63626.9,71.3455,-1801.5,0,0
63887.2,72.4885,-1793.42,0,0
64147.6,74.313,-1784.68,0,0
64407.9,76.8471,-1776.68,0,0
64668.2,79.2829,-1769.31,0,0
64928.5,82.14,-1762.12,0,0
65188.9,85.8009,-1756.4,0,0
65449.2,88.7964,-1752.09,0,0
65709.5,90.4755,-1747.98,0,0
65969.8,93.1657,-1745.63,0,0
66230.2,91.5523,-1746.08,0,0
66490.5,85.5016,-1742.5,0,0
66750.8,80.8288,-1735.31,0,0
67011.1,78.9215,-1727.21,0,0
67271.5,76.7185,-1719.25,0,0
67531.8,75.8538,-1710.56,0,0
67792.1,75.8932,-1703.1,0,0
68052.4,75.8069,-1695.33,0,0
68312.8,76.8183,-1688.77,0,0
68573.1,76.7963,-1682.42,0,0
68833.4,76.8309,-1676.12,0,0
69093.7,77.4444,-1670.13,0,0
69354.1,77.3521,-1665.02,0,0
69614.4,76.7058,-1659.47,0,0
69874.7,75.7327,-1653.71,0,0
70135,74.8023,-1647.82,0,0
70395.4,73.9406,-1641.94,0,0
70655.7,72.5792,-1635.88,0,0
70916,71.4048,-1629.5,0,0
71176.3,70.4024,-1622.83,0,0
71436.7,69.6951,-1616.23,0,0
71697,69.0374,-1609.26,0,0
71957.3,69.273,-1602.62,0,0
72217.6,69.2235,-1596.62,0,0
72478,69.2,-1590.46,0,0
72738.3,69.1342,-1584.76,0,0
72998.6,68.7098,-1579.3,0,0
73258.9,68.0998,-1573.53,0,0
73519.3,67.6278,-1567.72,0,0
73779.6,67.1502,-1562.16,0,0
74039.9,66.5311,-1556.61,0,0
74300.225,65.7979,-1550.83,0,0
74560.55,65.112,-1545.07,0,0
74820.875,64.3743,-1539.32,0,0
75081.2,63.6642,-1533.59,0,0
75341.525,62.9386,-1527.73,0,0
75601.85,62.3018,-1521.87,0,0
75862.175,61.6121,-1516.03,0,0
76122.5,60.9527,-1510.13,0,0
76382.825,60.3951,-1504.3,0,0
76643.15,59.9114,-1498.44,0,0
76903.475,59.4425,-1492.62,0,0
77163.8,59.0715,-1486.86,0,0
77424.125,58.6351,-1481.19,0,0
77684.45,58.1856,-1475.49,0,0
77944.775,57.7318,-1469.86,0,0
78205.1,57.3119,-1464.19,0,0
78465.425,56.9141,-1458.49,0,0
78725.75,56.5358,-1452.88,0,0
78986.075,56.2068,-1447.22,0,0
79246.4,55.8575,-1441.65,0,0
79506.725,55.5627,-1436.09,0,0
79767.05,55.1913,-1430.51,0,0
80027.375,55.116,-1424.98,0,0
80287.7,54.7901,-1419.51,0,0
80548.025,54.5826,-1414.09,0,0
80808.35,54.4161,-1408.62,0,0
81068.675,54.1443,-1403.25,0,0
81329.0,54.054,-1397.84,0,0
81589.325,53.8968,-1392.51,0,0
81849.65,53.8094,-1387.2,0,0
82109.975,53.6405,-1381.99,0,0
82370.3,53.5478,-1376.7,0,0
82630.625,53.4782,-1371.46,0,0
82890.95,53.3702,-1366.3,0,0
83151.275,53.361,-1361.19,0,0
83411.6,53.2808,-1356.01,0,0
83671.925,53.2681,-1350.98,0,0
83932.25,53.2387,-1345.88,0,0
84192.575,53.2307,-1340.9,0,0
84452.9,53.1721,-1335.86,0,0
84713.225,53.1034,-1330.88,0,0
84973.55,53.1977,-1325.9,0,0
85233.875,53.2015,-1321.02,0,0
85494.2,53.2091,-1316.09,0,0
85754.525,53.3773,-1311.23,0,0
86014.85,53.3502,-1306.44,0,0
86275.175,53.3504,-1301.64,0,0
86535.5,53.413,-1296.91,0,0
86795.825,53.4071,-1291.98,0,0
87056.15,53.5162,-1287.32,0,0
87316.475,53.6184,-1282.47,0,0
87576.8,53.7031,-1277.76,0,0
87837.125,53.8714,-1273.06,0,0
88097.45,54.0629,-1268.44,0,0
88357.775,54.1881,-1263.65,0,0
88618.1,54.2739,-1258.93,0,0
88878.425,54.4585,-1254.18,0,0
89138.75,54.9805,-1249.56,0,0
89399.075,55.4356,-1244.87,0,0
89659.4,55.9758,-1240.41,0,0
89919.725,56.5397,-1236.02,0,0
90180,57.1334,-1231.87,0,0
90440.4,57.4849,-1227.73,0,0
90700.7,57.8255,-1223.47,0,0
90961,58.275,-1219.22,0,0
91221.3,58.8096,-1215.19,0,0
91481.7,59.328,-1211.12,0,0
91742,59.8226,-1207.19,0,0
92002.3,60.207,-1203.3,0,0
92262.6,60.705,-1199.32,0,0
92523,61.4554,-1195.51,0,0
92783.3,61.9219,-1192.01,0,0
93043.6,62.4118,-1188.34,0,0
93303.9,63.1477,-1184.81,0,0
93564.3,63.6714,-1181.72,0,0
93824.6,64.1788,-1178.74,0,0
94084.9,64.2703,-1176.22,0,0
94345.2,63.7937,-1173.39,0,0
94605.6,63.4996,-1170.45,0,0
94865.9,62.8409,-1167.88,0,0
95126.2,61.3449,-1164.94,0,0
95386.5,59.8039,-1161.09,0,0
95646.9,58.9106,-1156.79,0,0
95907.2,58.145,-1152.7,0,0
96167.5,57.43,-1148.32,0,0
96427.8,57.1301,-1143.93,0,0
96688.2,57.0357,-1139.71,0,0
96948.5,56.9277,-1135.65,0,0
97208.8,56.8669,-1131.62,0,0
97469.1,56.833,-1127.71,0,0
97729.5,56.7182,-1123.76,0,0
97989.8,56.6792,-1119.88,0,0
98250.1,56.642,-1116,0,0
98510.4,56.6069,-1112.15,0,0
98770.8,56.5698,-1108.41,0,0
99031.1,56.4781,-1104.66,0,0
99291.4,56.3095,-1100.97,0,0
99551.7,56.074,-1097.16,0,0
99812.1,55.9661,-1093.23,0,0
100072,55.8699,-1089.35,0,0
100333,55.7264,-1085.48,0,0
100593,55.6047,-1081.54,0,0
100853,55.57,-1077.48,0,0
101114,55.6738,-1073.48,0,0
101374,55.726,-1069.47,0,0
101634,55.9138,-1065.42,0,0
101895,56.1879,-1061.36,0,0
102155,56.5059,-1057.31,0,0
102415,57.0952,-1053.16,0,0
102676,58.0012,-1049.28,0,0
102936,58.9508,-1045.79,0,0
103196,59.5937,-1042.49,0,0
103457,60.1827,-1039.11,0,0
103717,60.8298,-1035.77,0,0
103977,61.5179,-1032.37,0,0
104238,62.5153,-1029.32,0,0
104498,63.3416,-1026.74,0,0
104758,63.6936,-1024.28,0,0
105019,63.6358,-1021.74,0,0
105279,63.5924,-1018.85,0,0
105539,63.7294,-1016.01,0,0
105800,63.7195,-1013.3,0,0
106060,63.4558,-1010.6,0,0
106320.175,63.1066,-1007.73,0,0
106580.5,62.7939,-1004.76,0,0
106840.825,62.3278,-1001.82,0,0
107101.15,61.7797,-998.639,0,0
107361.475,61.3874,-995.391,0,0
107621.8,60.9688,-992.044,0,0
107882.125,60.61,-988.603,0,0
108142.45,60.2295,-985.174,0,0
108402.775,59.9323,-981.657,0,0
108663.1,59.623,-978.076,0,0
108923.425,59.4163,-974.386,0,0
109183.75,59.3277,-970.594,0,0
109444.075,59.4744,-966.909,0,0
109704.4,59.5345,-963.312,0,0
109964.725,59.6552,-959.649,0,0
110225.05,59.737,-956.004,0,0
110485.375,60.0096,-952.159,0,0
110745.7,60.5471,-948.456,0,0
111006.025,61.2285,-945.077,0,0
111266.35,61.7769,-941.724,0,0
111526.675,62.0694,-938.339,0,0
111787.0,62.6471,-935.018,0,0
112047.325,63.2252,-931.851,0,0
112307.65,63.6851,-928.633,0,0
112567.975,64.108,-925.629,0,0
112828.3,64.4327,-922.488,0,0
113088.625,64.8598,-919.275,0,0
113348.95,65.2396,-916.127,0,0
113609.275,65.5728,-912.999,0,0
113869.6,65.957,-909.841,0,0
114129.925,66.2625,-906.615,0,0
114390.25,66.5213,-903.407,0,0
114650.575,66.9075,-900.021,0,0
114910.9,67.4279,-896.609,0,0
115171.225,68.0451,-893.271,0,0
115431.55,68.802,-890.004,0,0
115691.875,69.5422,-886.858,0,0
115952.2,70.1466,-883.704,0,0
116212.525,70.8187,-880.393,0,0
116472.85,71.8042,-877.028,0,0
116733.175,72.8794,-873.958,0,0
116993.5,73.82,-871.04,0,0
117253.825,74.688,-868.066,0,0
117514.15,75.6277,-864.755,0,0
117774.475,77.1604,-861.516,0,0
118034.8,78.8803,-858.841,0,0
118295.125,80.4749,-856.591,0,0
118555.45,81.706,-854.562,0,0
118815.775,82.5919,-852.326,0,0
119076.1,83.6249,-849.817,0,0
119336.425,85.1835,-847.287,0,0
119596.75,86.9361,-845.407,0,0
119857.075,88.5776,-843.971,0,0
120117.4,89.8621,-843.112,0,0
120377.725,90.3937,-842.408,0,0
120638.05,90.5664,-841.36,0,0
120898.375,90.5582,-840.334,0,0
121158.7,90.202,-839.186,0,0
121419.025,89.3327,-837.819,0,0
121679.35,88.2933,-835.778,0,0
121939.675,87.6102,-833.074,0,0
122200.0,87.4815,-830.31,0,0
122460,87.5414,-827.791,0,0
122721,87.5905,-825.27,0,0
122981,87.7629,-822.717,0,0
123241,88.146,-820.388,0,0
123502,88.3978,-818.163,0,0
123762,88.5303,-815.922,0,0
124022,88.8266,-813.739,0,0
124283,89.0021,-811.576,0,0
124543,89.1728,-809.397,0,0
124803,89.3747,-807.261,0,0
125064,89.6105,-805.206,0,0
125324,89.7065,-803.181,0,0
125584,89.8784,-801.196,0,0
125845,89.9639,-799.321,0,0
126105,89.8996,-797.493,0,0
126365,89.6103,-795.593,0,0
126626,89.3465,-793.57,0,0
126886,89.0431,-791.472,0,0
127146,88.7922,-789.373,0,0
127406,88.3826,-787.193,0,0
127667,87.9896,-784.971,0,0
127927,87.6106,-782.768,0,0
128187,87.166,-780.493,0,0
128448,86.5712,-778.056,0,0
128708,86.0501,-775.44,0,0
128968,85.7036,-772.719,0,0
129229,85.4859,-769.949,0,0
129489,85.3152,-767.261,0,0
129749,85.1692,-764.468,0,0
130010,85.1285,-761.534,0,0
130270,85.4582,-758.664,0,0
130530,85.9693,-756.098,0,0
130791,86.3683,-753.838,0,0
131051,86.581,-751.649,0,0
131311,86.6721,-749.51,0,0
131572,86.6697,-747.39,0,0
131832,86.5519,-745.219,0,0
132092,86.3217,-742.997,0,0
132353,86.0689,-740.591,0,0
132613,85.9623,-738.147,0,0
132873,85.9426,-735.816,0,0
133134,85.7864,-733.521,0,0
133394,85.6311,-731.311,0,0
133654,85.2721,-729.069,0,0
133915,84.819,-726.61,0,0
134175,84.5063,-724.048,0,0
134435,84.2005,-721.542,0,0
134696,83.8198,-719.038,0,0
134956,83.3895,-716.397,0,0
135216,83.0732,-713.644,0,0
135477,82.7983,-710.895,0,0
135737,82.5489,-708.233,0,0
135997,82.172,-705.489,0,0
136258,81.6943,-702.622,0,0
136518,81.3482,-699.505,0,0
136778,81.2318,-696.31,0,0
137039,81.3219,-693.15,0,0
137299,81.5124,-690.13,0,0
137559,81.7372,-687.208,0,0
137819,81.9015,-684.365,0,0
138080,82.1058,-681.441,0,0
138340.125,82.4654,-678.581,0,0
138600.45,82.8258,-676.001,0,0
138860.775,82.9478,-673.589,0,0
139121.1,82.8685,-671.06,0,0
139381.425,82.6785,-668.42,0,0
139641.75,82.4329,-665.584,0,0
139902.075,82.3011,-662.631,0,0
140162.4,82.3234,-659.586,0,0
140422.725,82.4557,-656.674,0,0
140683.05,82.4947,-653.923,0,0
140943.375,82.4132,-651.098,0,0
141203.7,82.2868,-648.174,0,0
141464.025,82.0873,-645.221,0,0
141724.35,81.8747,-642.083,0,0
141984.675,81.7856,-638.805,0,0
142245.0,81.828,-635.56,0,0
142505.325,81.8218,-632.343,0,0
142765.65,81.8075,-629.032,0,0
143025.975,81.9225,-625.666,0,0
143286.3,81.975,-622.249,0,0
143546.625,82.1162,-618.8,0,0
143806.95,82.3169,-615.331,0,0
144067.275,82.4963,-611.822,0,0
144327.6,82.7544,-608.22,0,0
144587.925,83.1139,-604.602,0,0
144848.25,83.5523,-600.97,0,0
145108.575,84.0372,-597.369,0,0
145368.9,84.4987,-593.777,0,0
145629.225,84.9563,-590.136,0,0
145889.55,85.4016,-586.381,0,0
146149.875,86.032,-582.508,0,0
146410.2,86.7771,-578.713,0,0
146670.525,87.4603,-574.907,0,0
146930.85,88.2366,-570.979,0,0
147191.175,89.0847,-567.049,0,0
147451.5,89.9904,-563.049,0,0
147711.825,91.0672,-558.941,0,0
147972.15,92.2916,-554.871,0,0
148232.475,93.6005,-550.873,0,0
148492.8,94.9363,-546.882,0,0
148753.125,96.3574,-542.822,0,0
149013.45,97.891,-538.724,0,0
149273.775,99.519,-534.563,0,0
149534.1,101.392,-530.332,0,0
149794.425,103.605,-526.193,0,0
150054.75,105.924,-522.263,0,0
150315.075,108.363,-518.489,0,0
150575.4,110.915,-514.863,0,0
150835.725,113.492,-511.448,0,0
151096.05,116.074,-508.145,0,0
151356.375,118.668,-504.922,0,0
151616.7,121.304,-501.854,0,0
151877.025,123.93,-498.881,0,0
152137.35,126.601,-496.068,0,0
152397.675,129.186,-493.446,0,0
152658.0,131.696,-490.852,0,0
152918.325,134.235,-488.44,0,0
153178.65,136.558,-486.304,0,0
153438.975,138.528,-484.069,0,0
153699.3,140.426,-481.676,0,0
153959.625,142.363,-479.224,0,0
154219.95,144.29,-476.918,0,0
154480,145.819,-474.733,0,0
154741,146.833,-472.2,0,0
155001,147.792,-468.926,0,0
155261,149.332,-465.076,0,0
155522,151.59,-461.328,0,0
155782,153.987,-458.021,0,0
156042,156.253,-454.945,0,0
156303,158.213,-451.715,0,0
156563,160.18,-447.915,0,0
156823,162.878,-443.808,0,0
157084,166.334,-440.024,0,0
157344,170.193,-436.921,0,0
157604,173.783,-434.632,0,0
157864,176.882,-432.474,0,0
158125,180.126,-430.595,0,0
158385,182.349,-429.315,0,0
158645,183.702,-427.469,0,0
158906,184.834,-425.096,0,0
159166,185.564,-421.987,0,0
159426,186.309,-418.186,0,0
159687,187.094,-413.467,0,0
159947,188.631,-407.499,0,0
160207,191.833,-401.151,0,0
160468,195.819,-395.357,0,0
160728,200.563,-389.936,0,0
160988,205.366,-385.539,0,0
161249,209.403,-380.735,0,0
161509,214.169,-374.93,0,0
161769,220.461,-369.39,0,0
162030,227.177,-364.979,0,0
162290,233.762,-360.688,0,0
162550,240.848,-356.751,0,0
162811,247.795,-353.032,0,0
163071,255.252,-349.044,0,0
163331,263.57,-345.305,0,0
163592,272.501,-342.38,0,0
163852,281.687,-339.937,0,0
164112,291.169,-338.201,0,0
164373,300.757,-336.839,0,0
164633,311.115,-335.663,0,0
164893,322.705,-335.683,0,0
165154,334.273,-338.176,0,0
165414,344.332,-341.72,0,0
165674,353.662,-344.999,0,0
165935,363.448,-348.721,0,0
166195,373.277,-353.826,0,0
166455,382.656,-360.161,0,0
166716,390.865,-367.785,0,0
166976,397.505,-375.868,0,0
167236,402.833,-383.918,0,0
167497,407.341,-391.523,0,0
167757,411.509,-398.794,0,0
168017,415.566,-406.452,0,0
168277,418.816,-414.59,0,0
168538,421.328,-422.788,0,0
168798,423.332,-431.135,0,0
169058,424.562,-440.068,0,0
169319,424.108,-449.383,0,0
169579,421.538,-458.316,0,0
169839,417.18,-465.471,0,0
170100,412.537,-470.48,0,0
170360.075,408.346,-474.166,0,0
170620.4,404.524,-476.981,0,0
170880.725,400.871,-479.207,0,0
171141.05,397.201,-480.645,0,0
171401.375,393.956,-480.776,0,0
171661.7,392.078,-480.338,0,0
171922.025,390.764,-480.292,0,0
172182.35,389.567,-479.964,0,0
172442.675,388.719,-479.01,0,0
172703.0,389.312,-477.162,0,0
172963.325,392.026,-476.333,0,0
173223.65,395.2,-477.682,0,0
173483.975,397.23,-480.431,0,0
173744.3,397.998,-483.046,0,0
174004.625,398.619,-484.888,0,0
174264.95,400.193,-487.034,0,0
174525.275,401.497,-490.546,0,0
174785.6,401.493,-494.368,0,0
175045.925,400.73,-497.742,0,0
175306.25,399.531,-500.361,0,0
175566.575,398.959,-502.487,0,0
175826.9,398.756,-505.064,0,0
176087.225,398.201,-508.228,0,0
176347.55,397.232,-511.288,0,0
176607.875,396.328,-514.841,0,0
176868.2,394.228,-519.389,0,0
177128.525,390.177,-523.251,0,0
177388.85,385.575,-525.48,0,0
177649.175,381.172,-526.8,0,0
177909.5,376.721,-527.748,0,0
178169.825,371.856,-527.769,0,0
178430.15,367.312,-526.558,0,0
178690.475,363.468,-524.579,0,0
178950.8,360.552,-522.201,0,0
179211.125,358.29,-519.937,0,0
179471.45,356.168,-517.5,0,0
179731.775,354.645,-514.493,0,0
179992.1,354.275,-511.71,0,0
180252.425,354.298,-509.62,0,0
180512.75,354.27,-507.778,0,0
180773.075,354.622,-505.973,0,0
181033.4,355.338,-504.392,0,0
181293.725,356.528,-503.492,0,0
181554.05,357.836,-503.311,0,0
181814.375,359.013,-504.34,0,0
182074.7,358.816,-506.069,0,0
182335.025,357.325,-507.538,0,0
182595.35,355.274,-508.198,0,0
182855.675,353.234,-508.167,0,0
183116.0,351.379,-508.015,0,0
183376.325,349.302,-508.027,0,0
183636.65,346.541,-507.796,0,0
183896.975,343.284,-506.658,0,0
184157.3,340.386,-504.478,0,0
184417.625,338.247,-502.155,0,0
184677.95,336.117,-499.898,0,0
184938.275,333.938,-497.305,0,0
185198.6,331.867,-494.404,0,0
185458.925,329.914,-491.081,0,0
185719.25,328.235,-487.405,0,0
185979.575,326.762,-483.288,0,0
186239.9,325.937,-478.658,0,0
186500,325.754,-473.841,0,0
186761,326.503,-468.978,0,0
187021,327.859,-464.751,0,0
187281,329.389,-460.79,0,0
187542,331.227,-457.065,0,0
187802,333.531,-453.805,0,0
188062,335.846,-451.055,0,0
188322,338.071,-448.631,0,0
188583,340.085,-446.867,0,0
188843,341.319,-445.262,0,0
189103,342.135,-443.072,0,0
189364,343.144,-440.235,0,0
189624,344.761,-437.328,0,0
189884,346.744,-434.663,0,0
190145,348.577,-432.297,0,0
190405,350.356,-429.966,0,0
190665,352.227,-427.636,0,0
190926,353.975,-425.4,0,0
191186,355.722,-423.265,0,0
191446,357.145,-420.788,0,0
191707,358.737,-418.05,0,0
191967,360.639,-415.268,0,0
192227,362.384,-412.637,0,0
192488,363.997,-409.599,0,0
192748,365.74,-405.924,0,0
193008,368.166,-401.823,0,0
193269,371.177,-397.497,0,0
193529,375.131,-393.408,0,0
193789,379.447,-389.731,0,0
194050,384.047,-386.019,0,0
194310,389.255,-382.494,0,0
194570,395.147,-379.404,0,0
194831,401.496,-376.861,0,0
195091,408.158,-374.796,0,0
195351,415.365,-373.521,0,0
195612,422.866,-373.296,0,0
195872,429.966,-374.213,0,0
196132,436.867,-375.825,0,0
196393,443.531,-378.42,0,0
196653,448.949,-381.907,0,0
196913,453.114,-385.72,0,0
197174,455.979,-389.065,0,0
197434,458.329,-391.577,0,0
197694,460.768,-393.497,0,0
197955,463.419,-395.322,0,0
198215,466.088,-397.149,0,0
198475,468.656,-399.369,0,0
198735,470.359,-401.81,0,0
198996,471.4,-403.322,0,0
199256,472.96,-404.109,0,0
199516,475.042,-405.241,0,0
199777,476.694,-407.084,0,0
200037,477.188,-408.703,0,0
200297,477.032,-409.408,0,0
200558,476.732,-408.71,0,0
200818,477.149,-406.918,0,0
201078,478.571,-404.624,0,0
201339,480.89,-402.308,0,0
201599,483.728,-400.119,0,0
201859,486.981,-397.897,0,0
202120,490.817,-395.603,0,0
202380.025,495.538,-393.43,0,0
202640.35,500.943,-391.798,0,0
202900.675,506.824,-390.824,0,0
203161.0,512.937,-390.409,0,0
203421.325,519.288,-390.65,0,0
203681.65,525.661,-391.545,0,0
203941.975,531.954,-392.88,0,0
204202.3,538.316,-394.941,0,0
204462.625,544.247,-397.697,0,0
204722.95,549.742,-400.838,0,0
204983.275,554.948,-404.376,0,0
205243.6,559.698,-408.31,0,0
205503.925,563.683,-412.642,0,0
205764.25,566.792,-417.163,0,0
206024.575,568.461,-421.174,0,0
206284.9,569.586,-423.754,0,0
206545.225,571.066,-425.099,0,0
206805.55,573.221,-425.739,0,0
207065.875,576.178,-425.896,0,0
207326.2,579.634,-426.26,0,0
207586.525,584.39,-426.754,0,0
207846.85,589.42,-427.717,0,0
208107.175,594.911,-428.942,0,0
208367.5,600.749,-430.855,0,0
208627.825,606.614,-433.275,0,0
208888.15,612.477,-436.054,0,0
209148.475,618.351,-439.236,0,0
209408.8,624.334,-442.771,0,0
209669.125,630.319,-446.737,0,0
209929.45,636.228,-451.223,0,0
210189.775,641.912,-456.091,0,0
210450.1,647.505,-461.351,0,0
210710.425,652.899,-466.929,0,0
210970.75,658.036,-473.007,0,0
211231.075,662.761,-479.274,0,0
211491.4,667.1,-485.784,0,0
211751.725,671.098,-492.228,0,0
212012.05,675.003,-498.638,0,0
212272.375,678.883,-505.173,0,0
212532.7,682.591,-511.838,0,0
212793.025,686.411,-518.595,0,0
213053.35,690.351,-525.779,0,0
213313.675,693.979,-533.604,0,0
213574.0,697.015,-541.754,0,0
213834.325,699.542,-549.918,0,0
214094.65,701.795,-558.01,0,0
214354.975,704.05,-566.044,0,0
214615.3,706.21,-574.406,0,0
214875.625,708.39,-583.127,0,0
215135.95,710.108,-592.452,0,0
215396.275,711.116,-602.188,0,0
215656.6,711.192,-611.83,0,0
215916.925,710.838,-621.228,0,0
216177.25,710.432,-630.55,0,0
216437.575,709.516,-640.095,0,0
216697.9,707.995,-649.854,0,0
216958.225,705.465,-659.298,0,0
217218.55,702.425,-668.05,0,0
217478.875,699.421,-676.114,0,0
217739.2,696.579,-684.007,0,0
217999.525,693.715,-692.127,0,0
218259.85,690.279,-700.31,0,0
218520,686.289,-708.261,0,0
218780,681.806,-715.419,0,0
219041,677.736,-721.826,0,0
219301,674.037,-728.055,0,0
219561,670.851,-734.52,0,0
219822,667.652,-741.355,0,0
220082,664.193,-748.807,0,0
220342,659.878,-756.421,0,0
220603,655.029,-763.737,0,0
220863,650.031,-770.747,0,0
221123,644.657,-777.52,0,0
221384,639.342,-784.308,0,0
221644,633.769,-791.316,0,0
221904,627.316,-798.578,0,0
222165,619.917,-805.246,0,0
222425,612.066,-811.22,0,0
222685,604.028,-816.924,0,0
222946,594.962,-821.849,0,0
223206,585.454,-825.823,0,0
223466,575.818,-828.43,0,0
223727,566.628,-829.696,0,0
223987,558.092,-830.094,0,0
224247,550.165,-829.661,0,0
224508,543.437,-828.624,0,0
224768,537.741,-827.367,0,0
225028,533.127,-826.175,0,0
225289,529.149,-825.434,0,0
225549,525.776,-825.029,0,0
225809,523.127,-825.312,0,0
226070,520.756,-826.602,0,0
226330,517.833,-828.432,0,0
226590,514.739,-830.528,0,0
226851,511.517,-832.806,0,0
227111,508.253,-835.54,0,0
227371,504.573,-838.637,0,0
227632,500.17,-842.011,0,0
227892,495.237,-845.122,0,0
228152,489.949,-847.913,0,0
228413,484.382,-850.517,0,0
228673,478.495,-852.751,0,0
228933,472.57,-854.438,0,0
229193,466.75,-855.882,0,0
229454,461.09,-857.148,0,0
229714,455.3,-858.276,0,0
229974,449.613,-859.339,0,0
230235,443.89,-860.243,0,0
230495,438.167,-861.258,0,0
230755,432.283,-861.717,0,0
231016,426.419,-861.986,0,0
231276,420.729,-862.122,0,0
231536,415.092,-862.059,0,0
231797,409.594,-861.871,0,0
232057,404.155,-861.667,0,0
232317,398.778,-861.303,0,0
232578,393.537,-860.853,0,0
232838,388.212,-860.473,0,0
233098,382.911,-859.861,0,0
233359,377.742,-859.108,0,0
233619,372.677,-858.342,0,0
233879,367.607,-857.591,0,0
234140,362.435,-856.669,0,0
234400,357.392,-855.612,0,0
234660.3,352.434,-854.389,0,0
234920.625,347.601,-853.221,0,0
235180.95,342.857,-852.191,0,0
235441.275,337.906,-851.108,0,0
235701.6,332.887,-849.87,0,0
235961.925,327.822,-848.558,0,0
236222.25,322.661,-846.97,0,0
236482.575,317.577,-845.158,0,0
236742.9,312.691,-843.218,0,0
237003.225,307.795,-841.248,0,0
237263.55,302.873,-839.159,0,0
237523.875,297.792,-836.903,0,0
237784.2,292.749,-834.351,0,0
238044.525,287.842,-831.447,0,0
238304.85,283.068,-828.275,0,0
238565.175,278.507,-824.832,0,0
238825.5,274.172,-821.018,0,0
239085.825,270.268,-817.199,0,0
239346.15,266.79,-813.215,0,0
239606.475,263.701,-809.415,0,0
239866.8,260.528,-805.65,0,0
240127.125,257.787,-801.957,0,0
240387.45,255.051,-798.379,0,0
240647.775,252.395,-794.698,0,0
240908.1,249.937,-791.101,0,0
241168.425,247.547,-787.422,0,0
241428.75,245.162,-783.773,0,0
241689.075,243.062,-779.695,0,0
241949.4,241.639,-775.724,0,0
242209.725,240.277,-772.072,0,0
242470.05,239.149,-768.462,0,0
242730.375,238.148,-765.2,0,0
242990.7,237.25,-762.024,0,0
243251.025,236.512,-758.914,0,0
243511.35,235.795,-756.076,0,0
243771.675,235.16,-753.254,0,0
244032.0,234.549,-750.694,0,0
244292.325,233.969,-748.318,0,0
244552.65,233.333,-746.064,0,0
244812.975,232.759,-743.797,0,0
245073.3,232.062,-741.883,0,0
245333.625,231.127,-740.035,0,0
245593.95,230.115,-737.941,0,0
245854.275,229.21,-735.83,0,0
246114.6,228.214,-733.734,0,0
246374.925,227.315,-731.631,0,0
246635.25,226.506,-729.545,0,0
246895.575,225.753,-727.527,0,0
247155.9,224.917,-725.544,0,0
247416.225,224.139,-723.629,0,0
247676.55,223.252,-721.64,0,0
247936.875,222.447,-719.529,0,0
248197.2,221.758,-717.357,0,0
248457.525,221.262,-715.265,0,0
248717.85,220.951,-713.24,0,0
248978.175,220.735,-711.499,0,0
249238.5,220.434,-709.905,0,0
249498.825,220.11,-708.543,0,0
249759.15,219.641,-707.272,0,0
250019.475,219.044,-706.05,0,0
250279.8,218.293,-704.97,0,0
250540,217.415,-703.8,0,0
250800,216.331,-702.692,0,0
251061,215.113,-701.435,0,0
251321,213.751,-700.089,0,0
251581,212.388,-698.525,0,0
251842,210.975,-696.935,0,0
252102,209.495,-695.274,0,0
252362,207.866,-693.328,0,0
252623,206.247,-691.197,0,0
252883,204.732,-688.748,0,0
253143,203.444,-686.138,0,0
253404,202.31,-683.386,0,0
253664,201.251,-680.593,0,0
253924,200.404,-677.666,0,0
254185,199.695,-674.644,0,0
254445,199.301,-671.499,0,0
254705,199.096,-668.379,0,0
254966,199.062,-665.211,0,0
255226,199.248,-662.082,0,0
255486,199.61,-658.927,0,0
255747,200.282,-655.753,0,0
256007,201.273,-652.682,0,0
256267,202.583,-649.744,0,0
256528,204.153,-647.112,0,0
256788,205.912,-644.815,0,0
257048,207.622,-642.834,0,0
257309,209.351,-641.028,0,0
257569,211.021,-639.478,0,0
257829,212.613,-638.081,0,0
258090,214.119,-636.804,0,0
258350,215.544,-635.508,0,0
258610,216.921,-634.099,0,0
258871,218.516,-632.569,0,0
259131,220.363,-630.976,0,0
259391,222.645,-629.641,0,0
259651,225.164,-628.532,0,0
259912,227.85,-627.873,0,0
260172,230.583,-627.649,0,0
260432,233.376,-627.757,0,0
260693,236.26,-628.303,0,0
260953,239.07,-629.403,0,0
261213,241.624,-631.118,0,0
261474,243.755,-633.201,0,0
261734,245.441,-635.612,0,0
261994,246.684,-638.233,0,0
262255,247.425,-641.062,0,0
262515,247.642,-643.906,0,0
262775,247.355,-646.702,0,0
263036,246.677,-649.331,0,0
263296,245.652,-651.877,0,0
263556,244.387,-654.092,0,0
263817,242.802,-656.388,0,0
264077,240.844,-658.479,0,0
264337,238.558,-660.219,0,0
264598,236.01,-661.609,0,0
264858,233.374,-662.585,0,0
265118,230.661,-663.342,0,0
265379,227.943,-663.692,0,0
265639,225.274,-663.862,0,0
265899,222.533,-663.726,0,0
266160,219.826,-663.457,0,0
266420,217.11,-662.807,0,0
266680.25,214.527,-661.914,0,0
266940.575,212.062,-660.748,0,0
267200.9,209.769,-659.392,0,0
267461.225,207.623,-657.888,0,0
267721.55,205.612,-656.189,0,0
267981.875,203.844,-654.342,0,0
268242.2,202.325,-652.434,0,0
268502.525,200.973,-650.48,0,0
268762.85,199.879,-648.502,0,0
269023.175,198.963,-646.62,0,0
269283.5,198.164,-644.87,0,0
269543.825,197.362,-643.031,0,0
269804.15,196.611,-641.223,0,0
270064.475,195.931,-639.325,0,0
270324.8,195.445,-637.314,0,0
270585.125,195.196,-635.407,0,0
270845.45,195.204,-633.477,0,0
271105.775,195.286,-631.652,0,0
271366.1,195.564,-630.035,0,0
271626.425,195.889,-628.592,0,0
271886.75,196.278,-627.27,0,0
272147.075,196.721,-626.054,0,0
272407.4,197.079,-625.104,0,0
272667.725,197.237,-624.275,0,0
272928.05,197.198,-623.352,0,0
273188.375,197.089,-622.26,0,0
273448.7,197.098,-620.99,0,0
273709.025,197.198,-619.633,0,0
273969.35,197.53,-618.179,0,0
274229.675,198.075,-616.774,0,0
274490.0,198.741,-615.434,0,0
274750.325,199.594,-614.214,0,0
275010.65,200.553,-613.065,0,0
275270.975,201.711,-612.064,0,0
275531.3,202.967,-611.265,0,0
275791.625,204.303,-610.645,0,0
276051.95,205.753,-610.255,0,0
276312.275,207.201,-610.055,0,0
276572.6,208.709,-610.121,0,0
276832.925,210.194,-610.44,0,0
277093.25,211.581,-611.076,0,0
277353.575,212.79,-611.929,0,0
277613.9,213.867,-612.964,0,0
277874.225,214.781,-614.156,0,0
278134.55,215.489,-615.521,0,0
278394.875,216.034,-617.017,0,0
278655.2,216.299,-618.661,0,0
278915.525,216.338,-620.382,0,0
279175.85,216.062,-622.133,0,0
279436.175,215.571,-623.841,0,0
279696.5,214.837,-625.557,0,0
279956.825,213.874,-627.213,0,0
280217.15,212.62,-628.844,0,0
280477.475,211.089,-630.209,0,0
280737.8,209.412,-631.376,0,0
280998.125,207.687,-632.35,0,0
281258.45,205.892,-633.21,0,0
281518.775,203.995,-633.928,0,0
281779.1,201.979,-634.479,0,0
282039.425,199.915,-634.831,0,0
282299.75,197.834,-634.989,0,0
282560,195.785,-634.989,0,0
282820,193.751,-634.845,0,0
283081,191.668,-634.585,0,0
283341,189.677,-634.172,0,0
283601,187.633,-633.672,0,0
283862,185.652,-632.998,0,0
284122,183.706,-632.184,0,0
284382,181.837,-631.249,0,0
284643,180.049,-630.142,0,0
284903,178.373,-628.999,0,0
285163,176.753,-627.729,0,0
285424,175.216,-626.338,0,0
285684,173.796,-624.87,0,0
285944,172.547,-623.375,0,0
286205,171.403,-621.787,0,0
286465,170.35,-620.191,0,0
286725,169.411,-618.509,0,0
286986,168.661,-616.796,0,0
287246,168.046,-615.053,0,0
287506,167.598,-613.358,0,0
287767,167.316,-611.705,0,0
288027,167.198,-610.129,0,0
288287,167.178,-608.679,0,0
288548,167.227,-607.318,0,0
288808,167.382,-606.077,0,0
289068,167.594,-605.002,0,0
289329,167.762,-604.076,0,0
289589,167.865,-603.249,0,0
289849,167.91,-602.417,0,0
290109,167.986,-601.593,0,0
290370,168.107,-600.819,0,0
290630,168.221,-600.166,0,0
290890,168.288,-599.581,0,0
291151,168.275,-599.032,0,0
291411,168.167,-598.513,0,0
291671,168.021,-597.937,0,0
291932,167.816,-597.305,0,0
292192,167.579,-596.582,0,0
292452,167.393,-595.762,0,0
292713,167.288,-594.834,0,0
292973,167.339,-593.891,0,0
293233,167.525,-592.877,0,0
293494,167.922,-591.927,0,0
293754,168.436,-591.076,0,0
294014,169.082,-590.339,0,0
294275,169.806,-589.775,0,0
294535,170.612,-589.365,0,0
294795,171.45,-589.15,0,0
295056,172.337,-589.083,0,0
295316,173.179,-589.261,0,0
295576,173.975,-589.614,0,0
295837,174.651,-590.134,0,0
296097,175.232,-590.844,0,0
296357,175.624,-591.66,0,0
296618,175.883,-592.588,0,0
296878,175.967,-593.606,0,0
297138,175.877,-594.687,0,0
297399,175.578,-595.784,0,0
297659,175.09,-596.901,0,0
297919,174.41,-597.956,0,0
298180,173.556,-598.927,0,0
298440,172.582,-599.815,0,0
298700.2,171.52,-600.594,0,0
298960.525,170.371,-601.278,0,0
299220.85,169.133,-601.887,0,0
299481.175,167.841,-602.387,0,0
299741.5,166.506,-602.804,0,0
300001.825,165.118,-603.136,0,0
300262.15,163.7,-603.377,0,0
300522.475,162.262,-603.528,0,0
300782.8,160.794,-603.582,0,0
301043.125,159.318,-603.572,0,0
301303.45,157.818,-603.495,0,0
301563.775,156.318,-603.306,0,0
301824.1,154.791,-603.037,0,0
302084.425,153.32,-602.65,0,0
302344.75,151.88,-602.189,0,0
302605.075,150.481,-601.669,0,0
302865.4,149.137,-601.136,0,0
303125.725,147.82,-600.537,0,0
303386.05,146.498,-599.925,0,0
303646.375,145.218,-599.247,0,0
303906.7,143.968,-598.525,0,0
304167.025,142.725,-597.745,0,0
304427.35,141.529,-596.941,0,0
304687.675,140.397,-596.066,0,0
304948.0,139.301,-595.166,0,0
305208.325,138.263,-594.239,0,0
305468.65,137.247,-593.277,0,0
305728.975,136.303,-592.297,0,0
305989.3,135.438,-591.254,0,0
306249.625,134.635,-590.232,0,0
306509.95,133.919,-589.224,0,0
306770.275,133.258,-588.241,0,0
307030.6,132.648,-587.283,0,0
307290.925,132.101,-586.356,0,0
307551.25,131.615,-585.485,0,0
307811.575,131.155,-584.698,0,0
308071.9,130.679,-583.973,0,0
308332.225,130.181,-583.328,0,0
308592.55,129.648,-582.7,0,0
308852.875,129.084,-582.085,0,0
309113.2,128.486,-581.496,0,0
309373.525,127.894,-580.922,0,0
309633.85,127.233,-580.357,0,0
309894.175,126.582,-579.805,0,0
310154.5,125.859,-579.257,0,0
310414.825,125.1,-578.717,0,0
310675.15,124.281,-578.138,0,0
310935.475,123.449,-577.526,0,0
311195.8,122.55,-576.894,0,0
311456.125,121.635,-576.202,0,0
311716.45,120.663,-575.455,0,0
311976.775,119.663,-574.607,0,0
312237.1,118.695,-573.697,0,0
312497.425,117.716,-572.676,0,0
312757.75,116.804,-571.589,0,0
313018.075,115.943,-570.404,0,0
313278.4,115.138,-569.185,0,0
313538.725,114.416,-567.91,0,0
313799.05,113.754,-566.619,0,0
314059.375,113.172,-565.287,0,0
314319.7,112.667,-563.914,0,0
314580,112.238,-562.546,0,0
314840,111.946,-561.065,0,0
315101,111.682,-559.66,0,0
315361,111.694,-558.272,0,0
315621,111.656,-557.004,0,0
315882,111.75,-555.689,0,0
316142,111.986,-554.525,0,0
316402,112.28,-553.52,0,0
316663,112.497,-552.556,0,0
316923,112.802,-551.759,0,0
317183,113.133,-551.065,0,0
317444,113.316,-550.42,0,0
317704,113.49,-549.802,0,0
317964,113.575,-549.374,0,0
318225,113.63,-548.888,0,0
318485,113.68,-548.301,0,0
318745,113.655,-547.878,0,0
319006,113.628,-547.376,0,0
319266,113.563,-546.939,0,0
319526,113.422,-546.457,0,0
319787,113.329,-545.985,0,0
320047,113.237,-545.42,0,0
320307,113.159,-544.943,0,0
320567,113.081,-544.406,0,0
320828,112.989,-543.905,0,0
321088,112.976,-543.334,0,0
321348,112.925,-542.75,0,0
321609,113.122,-542.302,0,0
321869,113.189,-541.915,0,0
322129,113.301,-541.58,0,0
322390,113.422,-541.342,0,0
322650,113.426,-541.191,0,0
322910,113.515,-541.05,0,0
323171,113.452,-541.006,0,0
323431,113.42,-540.943,0,0
323691,113.273,-540.905,0,0
323952,113.092,-540.945,0,0
324212,112.823,-541.05,0,0
324472,112.518,-541.08,0,0
324733,112.238,-541.2,0,0
324993,111.789,-541.265,0,0
325253,111.172,-541.391,0,0
325514,110.599,-541.481,0,0
325774,109.953,-541.526,0,0
326034,109.286,-541.488,0,0
326295,108.488,-541.446,0,0
326555,107.655,-541.36,0,0
326815,106.859,-541.18,0,0
327076,105.932,-541.003,0,0
327336,105.018,-540.691,0,0
327596,104.109,-540.39,0,0
327857,103.254,-539.981,0,0
328117,102.393,-539.536,0,0
328377,101.508,-539.002,0,0
328638,100.687,-538.503,0,0
328898,99.882,-537.947,0,0
329158,99.0275,-537.414,0,0
329419,98.1972,-536.878,0,0
329679,97.4483,-536.337,0,0
329939,96.7434,-535.695,0,0
330200,95.8988,-535.085,0,0
330460,95.1284,-534.481,0,0
330720.15,94.2937,-533.92,0,0
330980.475,93.4694,-533.287,0,0
331240.8,92.6679,-532.65,0,0
331501.125,91.8147,-531.967,0,0
331761.45,90.9957,-531.209,0,0
332021.775,90.2041,-530.495,0,0
332282.1,89.3113,-529.742,0,0
332542.425,88.537,-528.941,0,0
332802.75,87.671,-528.093,0,0
333063.075,86.8121,-527.313,0,0
333323.4,85.975,-526.446,0,0
333583.725,85.1722,-525.424,0,0
333844.05,84.3399,-524.422,0,0
334104.375,83.525,-523.457,0,0
334364.7,82.7455,-522.295,0,0
334625.025,81.9737,-521.223,0,0
334885.35,81.3178,-520.13,0,0
335145.675,80.6732,-518.846,0,0
335406.0,80.1098,-517.673,0,0
335666.325,79.5153,-516.43,0,0
335926.65,79.0187,-515.164,0,0
336186.975,78.4998,-513.933,0,0
336447.3,78.1217,-512.716,0,0
336707.625,77.7699,-511.467,0,0
336967.95,77.4041,-510.245,0,0
337228.275,77.0178,-508.995,0,0
337488.6,76.668,-507.729,0,0
337748.925,76.4111,-506.506,0,0
338009.25,76.196,-505.159,0,0
338269.575,75.9405,-503.895,0,0
338529.9,75.7781,-502.665,0,0
338790.225,75.6331,-501.304,0,0
339050.55,75.5243,-499.974,0,0
339310.875,75.4461,-498.644,0,0
339571.2,75.5088,-497.332,0,0
339831.525,75.5949,-496.008,0,0
340091.85,75.7963,-494.674,0,0
340352.175,76.0873,-493.444,0,0
340612.5,76.3378,-492.184,0,0
340872.825,76.8438,-491.021,0,0
341133.15,77.2303,-489.965,0,0
341393.475,77.7445,-488.875,0,0
341653.8,78.2278,-487.936,0,0
341914.125,78.8096,-487.049,0,0
342174.45,79.3596,-486.32,0,0
342434.775,79.8744,-485.67,0,0
342695.1,80.4222,-485.012,0,0
342955.425,80.8799,-484.507,0,0
343215.75,81.3356,-484.016,0,0
343476.075,81.7328,-483.551,0,0
343736.4,82.1179,-483.205,0,0
343996.725,82.389,-482.938,0,0
344257.05,82.632,-482.693,0,0
344517.375,82.7126,-482.374,0,0
344777.7,82.8699,-482.12,0,0
345038.025,82.8731,-481.866,0,0
345298.35,82.8413,-481.515,0,0
345558.675,82.83,-481.184,0,0
345819.0,82.751,-480.774,0,0
346079.325,82.6442,-480.386,0,0
346339.65,82.5358,-479.955,0,0
346599.975,82.4378,-479.567,0,0
346860,82.3095,-479.129,0,0
347121,82.2325,-478.679,0,0
347381,82.0703,-478.162,0,0
347641,81.9134,-477.743,0,0
347902,81.7114,-477.217,0,0
348162,81.5741,-476.589,0,0
348422,81.3558,-476.123,0,0
348683,81.211,-475.451,0,0
348943,81.0496,-474.751,0,0
349203,80.9698,-474.026,0,0
349464,80.8662,-473.265,0,0
349724,80.882,-472.549,0,0
349984,80.9582,-471.735,0,0
350245,81.0895,-471.079,0,0
350505,81.3308,-470.335,0,0
350765,81.594,-469.652,0,0
351025,81.909,-469.104,0,0
351286,82.2919,-468.553,0,0
351546,82.6514,-468.209,0,0
351806,83.0839,-467.929,0,0
352067,83.3755,-467.747,0,0
352327,83.5946,-467.621,0,0
352587,83.7125,-467.582,0,0
352848,83.7774,-467.612,0,0
353108,83.7339,-467.559,0,0
353368,83.5801,-467.531,0,0
353629,83.3551,-467.485,0,0
353889,83.0179,-467.431,0,0
354149,82.6672,-467.229,0,0
354410,82.2889,-466.992,0,0
354670,81.8937,-466.699,0,0
354930,81.4948,-466.383,0,0
355191,81.1011,-465.951,0,0
355451,80.6996,-465.554,0,0
355711,80.2882,-465.026,0,0
355972,79.9149,-464.513,0,0
356232,79.5824,-464.035,0,0
356492,79.1987,-463.48,0,0
356753,78.8733,-462.891,0,0
357013,78.5412,-462.307,0,0
357273,78.1876,-461.644,0,0
357534,77.897,-460.966,0,0
357794,77.5877,-460.26,0,0
358054,77.324,-459.482,0,0
358315,77.1637,-458.731,0,0
358575,77.0591,-457.961,0,0
358835,76.9373,-457.19,0,0
359096,76.9418,-456.482,0,0
359356,76.869,-455.753,0,0
359616,76.875,-455.058,0,0
359877,76.9309,-454.398,0,0
360137,76.9936,-453.731,0,0
360397,77.0144,-453.101,0,0
360658,77.0656,-452.555,0,0
360918,77.0569,-451.928,0,0
361178,77.1195,-451.429,0,0
361438,77.1117,-450.861,0,0
361699,77.134,-450.324,0,0
361959,77.1437,-449.777,0,0
362219,77.1597,-449.174,0,0
362480,77.1405,-448.56,0,0
362740.1,77.1825,-447.962,0,0
363000.425,77.2634,-447.312,0,0
363260.75,77.4574,-446.666,0,0
363521.075,77.5695,-446.052,0,0
363781.4,77.8659,-445.456,0,0
364041.725,78.1638,-444.92,0,0
364302.05,78.5789,-444.497,0,0
364562.375,78.905,-444.156,0,0
364822.7,79.256,-443.903,0,0
365083.025,79.579,-443.745,0,0
365343.35,79.8268,-443.686,0,0
365603.675,79.9464,-443.727,0,0
365864.0,79.9863,-443.808,0,0
366124.325,79.8657,-443.872,0,0
366384.65,79.7387,-443.899,0,0
366644.975,79.4734,-443.881,0,0
366905.3,79.1211,-443.907,0,0
367165.625,78.7212,-443.782,0,0
367425.95,78.2438,-443.588,0,0
367686.275,77.661,-443.309,0,0
367946.6,77.1372,-442.934,0,0
368206.925,76.5976,-442.519,0,0
368467.25,76.0296,-441.96,0,0
368727.575,75.4752,-441.272,0,0
368987.9,75.0325,-440.521,0,0
369248.225,74.6861,-439.646,0,0
369508.55,74.4284,-438.65,0,0
369768.875,74.2887,-437.752,0,0
370029.2,74.2804,-436.835,0,0
370289.525,74.4481,-435.953,0,0
370549.85,74.7385,-435.134,0,0
370810.175,75.0384,-434.438,0,0
371070.5,75.4312,-433.839,0,0
371330.825,75.8627,-433.434,0,0
371591.15,76.2021,-433.134,0,0
371851.475,76.4849,-432.97,0,0
372111.8,76.7246,-432.862,0,0
372372.125,76.8143,-432.835,0,0
372632.45,76.7882,-432.874,0,0
372892.775,76.6968,-432.824,0,0
373153.1,76.3892,-432.78,0,0
373413.425,76.0366,-432.63,0,0
373673.75,75.6857,-432.405,0,0
373934.075,75.2457,-432.101,0,0
374194.4,74.8477,-431.742,0,0
374454.725,74.4424,-431.349,0,0
374715.05,74.0213,-430.856,0,0
374975.375,73.6708,-430.323,0,0
375235.7,73.2571,-429.732,0,0
375496.025,72.8903,-429.037,0,0
375756.35,72.5793,-428.335,0,0
376016.675,72.3226,-427.594,0,0
376277.0,72.1774,-426.828,0,0
376537.325,72.0581,-426.075,0,0
376797.65,71.9647,-425.322,0,0
377057.975,71.9298,-424.602,0,0
377318.3,71.9125,-423.812,0,0
377578.625,72.0052,-423.115,0,0
377838.95,72.0605,-422.422,0,0
378099.275,72.143,-421.741,0,0
378359.6,72.3305,-421.116,0,0
378619.925,72.4746,-420.509,0,0
378880,72.6635,-419.96,0,0
379141,72.8433,-419.428,0,0
379401,73.0768,-418.917,0,0
379661,73.2218,-418.43,0,0
379922,73.4877,-418.034,0,0
380182,73.6261,-417.68,0,0
380442,73.8285,-417.375,0,0
380703,73.9699,-417.084,0,0
380963,74.0496,-416.779,0,0
381223,74.0458,-416.461,0,0
381483,74.1186,-416.178,0,0
381744,74.1837,-415.877,0,0
382004,74.1867,-415.53,0,0
382264,74.2078,-415.253,0,0
382525,74.1993,-414.973,0,0
382785,74.1945,-414.706,0,0
383045,74.1509,-414.457,0,0
383306,74.1033,-414.168,0,0
383566,74.0298,-413.961,0,0
383826,73.9537,-413.691,0,0
384087,73.7645,-413.467,0,0
384347,73.5987,-413.245,0,0
384607,73.3487,-412.873,0,0
384868,73.2028,-412.593,0,0
385128,72.9658,-412.242,0,0
385388,72.7398,-411.9,0,0
385649,72.5038,-411.485,0,0
385909,72.2991,-411.082,0,0
386169,72.0138,-410.654,0,0
386430,71.7523,-410.222,0,0
386690,71.4534,-409.753,0,0
386950,71.1942,-409.27,0,0
387211,70.946,-408.733,0,0
387471,70.6301,-408.163,0,0
387731,70.419,-407.592,0,0
387992,70.142,-406.972,0,0
388252,69.885,-406.331,0,0
388512,69.6041,-405.663,0,0
388773,69.4251,-404.963,0,0
389033,69.2544,-404.158,0,0
389293,69.0731,-403.363,0,0
389554,68.9631,-402.546,0,0
389814,68.8885,-401.674,0,0
390074,68.8911,-400.892,0,0
390335,68.9109,-399.969,0,0
390595,68.9882,-399.129,0,0
390855,69.1219,-398.256,0,0
391116,69.2905,-397.391,0,0
391376,69.5671,-396.55,0,0
391636,69.8542,-395.716,0,0
391896,70.2415,-394.908,0,0
392157,70.622,-394.153,0,0
392417,71.0686,-393.447,0,0
392677,71.5463,-392.793,0,0
392938,72.0476,-392.208,0,0
393198,72.5782,-391.65,0,0
393458,73.1247,-391.164,0,0
393719,73.6581,-390.741,0,0
393979,74.1901,-390.358,0,0
394239,74.7325,-390.032,0,0
394500,75.2352,-389.778,0,0
394760.05,75.7849,-389.557,0,0
395020.375,76.26,-389.343,0,0
395280.7,76.7004,-389.212,0,0
395541.025,77.1471,-389.106,0,0
395801.35,77.5769,-389.019,0,0
396061.675,77.9396,-388.994,0,0
396322.0,78.2639,-388.988,0,0
396582.325,78.6176,-389.048,0,0
396842.65,78.9248,-389.075,0,0
397102.975,79.1379,-389.188,0,0
397363.3,79.357,-389.319,0,0
397623.625,79.5183,-389.461,0,0
397883.95,79.5774,-389.644,0,0
398144.275,79.5362,-389.811,0,0
398404.6,79.504,-389.903,0,0
398664.925,79.4038,-390.03,0,0
398925.25,79.2574,-390.087,0,0
399185.575,79.0983,-390.114,0,0
399445.9,78.9036,-390.126,0,0
399706.225,78.6941,-390.154,0,0
399966.55,78.4891,-390.055,0,0
400006.6,78.4527,-390.083,0,0