File: Accelerated corrosion test data/2025-10-12_18-00-03/sample_7.csv
Frequency (Hz),Impedance (ohms),Phase (Radians),Temperature (C),Humidity (%)
10000.0,280.222,-11997.3,0,0
10260.325,272.958,-11708.9,0,0
10520.65,263.519,-11414,0,0
10780.975,258.122,-11135.4,0,0
11041.3,255.636,-10870.6,0,0
11301.625,251.984,-10616.1,0,0
11561.95,256.936,-10369.1,0,0
11822.275,267.033,-10140.8,0,0
12082.6,280.566,-9912.07,0,0
12342.925,304.416,-9778.93,0,0
12603.25,263.567,-9561.6,0,0
12863.575,262.37,-9395.78,0,0
13123.9,241.2,-9202.35,0,0
13384.225,228.934,-9029.34,0,0
13644.55,224.896,-8858.56,0,0
13904.875,215.806,-8685.39,0,0
14165.2,224.268,-8516.62,0,0
14425.525,207.868,-8373.82,0,0
14685.8,205.422,-8229.56,0,0
14946.175,203.154,-8083.44,0,0
15206.5,195.758,-7954.79,0,0
15466.825,192.162,-7814.59,0,0
15727.15,185.596,-7685.36,0,0
15987.5,185.008,-7556.23,0,0
16247.8,180.05,-7439.42,0,0
16508.125,175.418,-7317.96,0,0
16768.45,176.116,-7201.15,0,0
17028.775,174.495,-7092.69,0,0
17289.1,169.897,-6982.91,0,0
17549.425,169.096,-6874.86,0,0
17809.75,176.097,-6769.52,0,0
18070.075,173.67,-6669.83,0,0
18330.4,188.701,-6567.92,0,0
18590.725,204.612,-6492.69,0,0
18851.05,197.137,-6414.68,0,0
19111.375,186.781,-6322.14,0,0
19371.7,197.449,-6270.62,0,0
19632.025,166.959,-6185.04,0,0
19892.35,164.398,-6085.24,0,0
20152.675,171.52,-6011.49,0,0
20413.0,168.466,-5939.27,0,0
20673.3,174.5,-5860.01,0,0
20933.65,178.172,-5806.24,0,0
21193.975,162.339,-5737.26,0,0
21454.3,156.215,-5661.9,0,0
21714.625,157.105,-5600.74,0,0
21974.9,147.884,-5534.67,0,0
22235.275,144.698,-5467.29,0,0
22495.6,140.997,-5405.6,0,0
22755.925,135.924,-5342.1,0,0
23016.25,133.284,-5278.2,0,0
23276.6,131.84,-5216.3,0,0
23536.9,132.87,-5158.28,0,0
23797.225,129.803,-5102.69,0,0
24057.55,126.479,-5045.2,0,0
24317.875,126.329,-4987.83,0,0
24578.2,126.052,-4935.04,0,0
24838.525,124.937,-4881.04,0,0
25098.85,122.933,-4830.24,0,0
25359.175,122.082,-4778.18,0,0
25619.5,121.897,-4726.57,0,0
25879.8,121.035,-4676.69,0,0
26140.1,122.926,-4625.69,0,0
26400.5,125.919,-4580.99,0,0
26660.8,123.819,-4532.13,0,0
26921.1,126.3,-4482.78,0,0
27181.4,131.896,-4436.93,0,0
27441.8,135.877,-4388.68,0,0
27702.1,148.236,-4344.72,0,0
27962.4,166.448,-4305.16,0,0
28222.7,180.939,-4287.03,0,0
28483.1,180.847,-4265.13,0,0
28743.4,171.741,-4247.6,0,0
29003.7,156.706,-4217.52,0,0
29264,142.86,-4177.67,0,0
29524.4,137.555,-4137.71,0,0
29784.7,129.647,-4098.9,0,0
30045,131.917,-4057.24,0,0
30305.3,133.912,-4023.82,0,0
30565.7,134.248,-3989.33,0,0
30826,135.372,-3957.05,0,0
31086.3,137.107,-3929.8,0,0
31346.6,135.791,-3901.11,0,0
31607,130.273,-3877.24,0,0
31867.3,122.329,-3844.68,0,0
32127.6,119.568,-3813.57,0,0
32387.9,115.984,-3783.55,0,0
32648.3,112.665,-3752.88,0,0
32908.6,109.763,-3723.48,0,0
33168.9,106.501,-3693.25,0,0
33429.2,103.422,-3663.66,0,0
33689.6,101.382,-3634.01,0,0
33949.9,99.3555,-3605.38,0,0
34210.2,97.7621,-3576.4,0,0
34470.5,95.828,-3547.95,0,0
34730.9,94.6133,-3520.27,0,0
34991.2,93.7549,-3493.21,0,0
35251.5,92.4427,-3465.87,0,0
35511.8,91.7084,-3439.35,0,0
35772.2,90.969,-3413.1,0,0
36032.5,90.7542,-3388.02,0,0
36292.8,89.6343,-3363.09,0,0
36553.1,88.8165,-3337.94,0,0
36813.5,88.5159,-3313.31,0,0
37073.8,88.2539,-3288.95,0,0
37334.1,88.2362,-3265.23,0,0
37594.4,87.5794,-3242.13,0,0
37854.8,87.0178,-3218.35,0,0
38115.1,87.2316,-3195.08,0,0
38375.4,87.4437,-3172.05,0,0
38635.7,88.1992,-3149.1,0,0
38896.1,89.9857,-3127.15,0,0
39156.4,91.0363,-3105.33,0,0
39416.7,94.5476,-3084.23,0,0
39677,97.19,-3066.69,0,0
39937.4,98.2836,-3049.79,0,0
40197.7,98.428,-3034.08,0,0
40458,95.5394,-3017.23,0,0
40718.3,92.7078,-2999.72,0,0
40978.7,90.2786,-2980.83,0,0
41239,87.9461,-2961.8,0,0
41499.3,86.722,-2942.51,0,0
41759.6,85.478,-2924.07,0,0
42020,83.6965,-2905.28,0,0
42280.275,82.1676,-2885.99,0,0
42540.6,82.2466,-2866.77,0,0
42800.925,81.9943,-2849.14,0,0
43061.25,82.5807,-2830.9,0,0
43321.575,82.0268,-2814.91,0,0
43581.9,81.3693,-2796.91,0,0
43842.225,81.3242,-2778.83,0,0
44102.55,83.0336,-2762.11,0,0
44362.875,83.1577,-2747.39,0,0
44623.2,83.7664,-2732.21,0,0
44883.525,82.4855,-2717.05,0,0
45143.85,81.7726,-2701.89,0,0
45404.175,80.807,-2685.51,0,0
45664.5,82.182,-2670.26,0,0
45924.825,82.28,-2657.43,0,0
46185.15,80.7341,-2644.25,0,0
46445.475,78.2823,-2630.36,0,0
46705.8,75.7087,-2615.1,0,0
46966.125,74.036,-2599.56,0,0
47226.45,73.5939,-2584.23,0,0
47486.775,72.8155,-2568.91,0,0
47747.1,72.8164,-2554.36,0,0
48007.425,72.185,-2540.38,0,0
48267.75,71.6067,-2526.57,0,0
48528.075,70.7034,-2512.29,0,0
48788.4,70.1028,-2498.37,0,0
49048.725,69.7144,-2484.48,0,0
49309.05,69.4262,-2471.18,0,0
49569.375,68.947,-2457.63,0,0
49829.7,68.3585,-2444.34,0,0
50090.025,68.0469,-2431.28,0,0
50350.35,67.6877,-2418.15,0,0
50610.675,67.4803,-2405.3,0,0
50871.0,67.0382,-2392.61,0,0
51131.325,66.8002,-2380.01,0,0
51391.65,66.3559,-2367.37,0,0
51651.975,66.0093,-2354.88,0,0
51912.3,65.7726,-2342.76,0,0
52172.625,65.5677,-2330.54,0,0
52432.95,65.3126,-2318.57,0,0
52693.275,65.1148,-2306.53,0,0
52953.6,65.2636,-2294.96,0,0
53213.925,65.0466,-2283.63,0,0
53474.25,64.5467,-2272.15,0,0
53734.575,64.3618,-2260.93,0,0
53994.9,64.0343,-2249.59,0,0
54255.225,63.7777,-2238.34,0,0
54515.55,63.6152,-2227.43,0,0
54775.875,63.2969,-2216.3,0,0
55036.2,63.1109,-2205.51,0,0
55296.525,62.8935,-2194.7,0,0
55556.85,62.6479,-2184.06,0,0
55817.175,62.345,-2173.43,0,0
56077.5,62.1882,-2162.82,0,0
56337.825,62.2294,-2152.55,0,0
56598.15,62.102,-2142.41,0,0
56858.475,61.7939,-2132.19,0,0
57118.8,61.544,-2122.01,0,0
57379.125,61.3116,-2112.02,0,0
57639.45,61.0294,-2101.95,0,0
57899.775,61.0991,-2091.76,0,0
58160.1,61.319,-2082.03,0,0
58420.4,61.5181,-2072.62,0,0
58680.7,61.4541,-2063.3,0,0
58941.1,60.9584,-2053.82,0,0
59201.4,61.0999,-2044.15,0,0
59461.7,61.5648,-2035.05,0,0
59722,61.3467,-2026.29,0,0
59982.4,61.4145,-2017.31,0,0
60242.7,61.4217,-2008.59,0,0
60503,61.1296,-2000.2,0,0
60763.3,60.624,-1991.51,0,0
61023.7,60.3556,-1982.73,0,0
61284,60.0471,-1974.34,0,0
61544.3,59.5147,-1965.73,0,0
61804.6,58.9202,-1957.22,0,0
62065,58.6024,-1948.39,0,0
62325.3,58.249,-1940.01,0,0
62585.6,57.9461,-1931.42,0,0
62845.9,57.7858,-1922.88,0,0
63106.3,57.5068,-1914.33,0,0
63366.6,57.6647,-1905.88,0,0
63626.9,57.4613,-1897.95,0,0
63887.2,57.1324,-1889.91,0,0
64147.6,56.984,-1881.88,0,0
64407.9,56.7112,-1873.77,0,0
64668.2,56.6843,-1865.68,0,0
64928.5,56.5745,-1857.66,0,0
65188.9,56.7243,-1849.9,0,0
65449.2,56.6326,-1842.41,0,0
65709.5,56.6946,-1834.87,0,0
65969.8,56.6078,-1827.47,0,0
66230.2,56.5006,-1820.21,0,0
66490.5,56.1817,-1812.99,0,0
66750.8,55.64,-1805.82,0,0
67011.1,55.1788,-1798.34,0,0
67271.5,54.8782,-1790.88,0,0
67531.8,54.5562,-1783.64,0,0
67792.1,54.2634,-1776.23,0,0
68052.4,53.9387,-1768.82,0,0
68312.8,53.7556,-1761.7,0,0
68573.1,53.5921,-1754.4,0,0
68833.4,53.4493,-1747.21,0,0
69093.7,53.4331,-1740.18,0,0
69354.1,53.3536,-1733.18,0,0
69614.4,53.3272,-1726.16,0,0
69874.7,53.2503,-1719.4,0,0
70135,53.1929,-1712.53,0,0
70395.4,53.0197,-1705.86,0,0
70655.7,53.1067,-1699.2,0,0
70916,53.0607,-1692.71,0,0
71176.3,52.9527,-1686.29,0,0
71436.7,52.7571,-1679.81,0,0
71697,52.4288,-1673.31,0,0
71957.3,52.1479,-1666.85,0,0
72217.6,51.985,-1660.46,0,0
72478,51.7166,-1654.01,0,0
72738.3,51.4745,-1647.56,0,0
72998.6,51.4031,-1641.14,0,0
73258.9,51.1826,-1634.9,0,0
73519.3,51.1191,-1628.72,0,0
73779.6,50.9258,-1622.34,0,0
74039.9,50.8253,-1616.17,0,0
74300.225,50.7365,-1610.06,0,0
74560.55,50.6648,-1603.98,0,0
74820.875,50.4198,-1597.81,0,0
75081.2,50.3918,-1591.78,0,0
75341.525,50.2849,-1585.82,0,0
75601.85,50.1917,-1579.94,0,0
75862.175,50.0596,-1574.02,0,0
76122.5,49.9024,-1568.04,0,0
76382.825,49.9064,-1562.25,0,0
76643.15,49.8695,-1556.42,0,0
76903.475,49.7819,-1550.64,0,0
77163.8,49.6815,-1544.96,0,0
77424.125,49.653,-1539.24,0,0
77684.45,49.6108,-1533.63,0,0
77944.775,49.4733,-1528.03,0,0
78205.1,49.3925,-1522.4,0,0
78465.425,49.3655,-1516.84,0,0
78725.75,49.3241,-1511.31,0,0
78986.075,49.3186,-1505.86,0,0
79246.4,49.2245,-1500.35,0,0
79506.725,49.2225,-1494.84,0,0
79767.05,49.2025,-1489.54,0,0
80027.375,49.1549,-1484.24,0,0
80287.7,49.1194,-1478.93,0,0
80548.025,49.0177,-1473.73,0,0
80808.35,48.9382,-1468.46,0,0
81068.675,48.8035,-1463.13,0,0
81329.0,48.8073,-1457.9,0,0
81589.325,48.7687,-1452.8,0,0
81849.65,48.7476,-1447.66,0,0
82109.975,48.6855,-1442.52,0,0
82370.3,48.6828,-1437.41,0,0
82630.625,48.6522,-1432.4,0,0
82890.95,48.5469,-1427.39,0,0
83151.275,48.5309,-1422.28,0,0
83411.6,48.4734,-1417.26,0,0
83671.925,48.4907,-1412.2,0,0
83932.25,48.6173,-1407.29,0,0
84192.575,48.5235,-1402.4,0,0
84452.9,48.5561,-1397.51,0,0
84713.225,48.7245,-1392.72,0,0
84973.55,48.7396,-1387.89,0,0
85233.875,48.7903,-1383.17,0,0
85494.2,48.7446,-1378.52,0,0
85754.525,48.694,-1373.74,0,0
86014.85,48.7091,-1368.97,0,0
86275.175,48.8993,-1364.43,0,0
86535.5,48.8235,-1359.79,0,0
86795.825,48.815,-1355.22,0,0
87056.15,48.9025,-1350.57,0,0
87316.475,48.9061,-1346.03,0,0
87576.8,48.952,-1341.6,0,0
87837.125,48.939,-1337.08,0,0
88097.45,48.8275,-1332.66,0,0
88357.775,48.8843,-1328.23,0,0
88618.1,48.8429,-1323.77,0,0
88878.425,48.855,-1319.35,0,0
89138.75,48.6915,-1314.95,0,0
89399.075,48.6595,-1310.43,0,0
89659.4,48.6821,-1306.04,0,0
89919.725,48.6234,-1301.58,0,0
90180,48.7452,-1297.08,0,0
90440.4,48.9532,-1292.78,0,0
90700.7,48.8996,-1288.6,0,0
90961,48.9331,-1284.24,0,0
91221.3,48.9639,-1279.91,0,0
91481.7,49.0905,-1275.55,0,0
91742,49.2469,-1271.27,0,0
92002.3,49.5535,-1267.16,0,0
92262.6,49.6338,-1263.05,0,0
92523,49.6593,-1258.9,0,0
92783.3,49.7218,-1254.66,0,0
93043.6,49.8872,-1250.59,0,0
93303.9,49.9637,-1246.46,0,0
93564.3,50.2049,-1242.21,0,0
93824.6,50.5918,-1238.25,0,0
94084.9,50.8834,-1234.46,0,0
94345.2,51.0203,-1230.51,0,0
94605.6,51.2224,-1226.58,0,0
94865.9,51.6673,-1222.87,0,0
95126.2,51.6986,-1219.45,0,0
95386.5,51.5987,-1215.85,0,0
95646.9,51.4507,-1212.11,0,0
95907.2,51.466,-1208.29,0,0
96167.5,51.3744,-1204.61,0,0
96427.8,51.1062,-1200.84,0,0
96688.2,51.0279,-1197,0,0
96948.5,50.8447,-1193.08,0,0
97208.8,50.714,-1189.09,0,0
97469.1,50.8315,-1184.91,0,0
97729.5,51.0503,-1181.08,0,0
97989.8,51.2104,-1177.23,0,0
98250.1,51.5661,-1173.46,0,0
98510.4,51.7547,-1169.95,0,0
98770.8,51.7302,-1166.51,0,0
99031.1,51.525,-1162.87,0,0
99291.4,51.3348,-1159.04,0,0
99551.7,51.2625,-1155.02,0,0
99812.1,51.42,-1150.97,0,0
100072,51.9252,-1147.1,0,0
100333,52.1927,-1143.61,0,0
100593,52.2645,-1139.86,0,0
100853,52.6197,-1135.98,0,0
101114,53.0295,-1132.48,0,0
101374,53.2139,-1128.95,0,0
101634,53.4327,-1125.34,0,0
101895,53.675,-1121.65,0,0
102155,54.0676,-1118.01,0,0
102415,54.4938,-1114.38,0,0
102676,55.0104,-1110.79,0,0
102936,55.7191,-1107.44,0,0
103196,56.2726,-1104.28,0,0
103457,56.7176,-1101.19,0,0
103717,57.1069,-1098.26,0,0
103977,57.1402,-1095.18,0,0
104238,57.3606,-1091.86,0,0
104498,57.8492,-1088.72,0,0
104758,58.039,-1085.91,0,0
105019,57.9793,-1082.94,0,0
105279,57.8894,-1079.88,0,0
105539,57.8013,-1076.67,0,0
105800,57.7151,-1073.41,0,0
106060,57.7096,-1069.85,0,0
106320.175,58.0576,-1066.48,0,0
106580.5,58.312,-1063.19,0,0
106840.825,58.6686,-1060,0,0
107101.15,58.8516,-1057.02,0,0
107361.475,58.8776,-1053.9,0,0
107621.8,58.9902,-1050.61,0,0
107882.125,59.2534,-1047.38,0,0
108142.45,59.4349,-1044.22,0,0
108402.775,59.6787,-1041.07,0,0
108663.1,59.8424,-1037.89,0,0
108923.425,60.0558,-1034.81,0,0
109183.75,60.1265,-1031.81,0,0
109444.075,60.0606,-1028.48,0,0
109704.4,60.1064,-1025.22,0,0
109964.725,60.1619,-1021.57,0,0
110225.05,60.4827,-1017.86,0,0
110485.375,61.105,-1014.26,0,0
110745.7,62.0523,-1010.88,0,0
111006.025,62.775,-1007.9,0,0
111266.35,63.1528,-1004.75,0,0
111526.675,63.7535,-1001.43,0,0
111787.0,64.5572,-998.228,0,0
112047.325,65.4554,-995.024,0,0
112307.65,66.3684,-991.886,0,0
112567.975,67.1548,-988.915,0,0
112828.3,68.244,-985.904,0,0
113088.625,69.3418,-983.168,0,0
113348.95,70.2938,-980.581,0,0
113609.275,71.1229,-977.937,0,0
113869.6,72.039,-975.23,0,0
114129.925,73.0864,-972.524,0,0
114390.25,74.0952,-969.972,0,0
114650.575,75.0426,-967.35,0,0
114910.9,76.2833,-964.837,0,0
115171.225,77.4669,-962.391,0,0
115431.55,78.8483,-959.995,0,0
115691.875,80.3222,-957.944,0,0
115952.2,81.7211,-956.018,0,0
116212.525,83.3323,-954.437,0,0
116472.85,84.6108,-953.402,0,0
116733.175,85.3053,-952.305,0,0
116993.5,86.0339,-950.904,0,0
117253.825,86.8384,-949.767,0,0
117514.15,87.2232,-948.777,0,0
117774.475,87.4904,-947.46,0,0
118034.8,87.9508,-945.988,0,0
118295.125,88.6779,-944.786,0,0
118555.45,89.2961,-944.011,0,0
118815.775,89.6233,-943.4,0,0
119076.1,89.6965,-942.951,0,0
119336.425,89.5884,-942.489,0,0
119596.75,89.2019,-942.299,0,0
119857.075,88.2144,-942.016,0,0
120117.4,87.1676,-941.663,0,0
120377.725,85.3799,-941.236,0,0
120638.05,83.2656,-940.242,0,0
120898.375,81.0045,-938.759,0,0
121158.7,78.8877,-936.546,0,0
121419.025,77.3661,-934.18,0,0
121679.35,75.9046,-932.022,0,0
121939.675,74.336,-929.714,0,0
122200.0,72.8886,-927.305,0,0
122460,71.3993,-924.836,0,0
122721,69.88,-922.159,0,0
122981,68.5321,-919.254,0,0
123241,67.347,-916.248,0,0
123502,66.4332,-913.13,0,0
123762,65.7356,-910.152,0,0
124022,65.0382,-907.334,0,0
124283,64.4773,-904.48,0,0
124543,63.9698,-901.868,0,0
124803,63.218,-899.347,0,0
125064,62.2669,-896.69,0,0
125324,61.3983,-893.775,0,0
125584,60.7198,-890.8,0,0
125845,60.0985,-887.916,0,0
126105,59.4248,-885.031,0,0
126365,58.7191,-881.986,0,0
126626,58.2752,-878.935,0,0
126886,57.8256,-876.003,0,0
127146,57.3344,-872.836,0,0
127406,57.1194,-869.829,0,0
127667,56.9041,-867.049,0,0
127927,56.6091,-864.237,0,0
128187,56.2826,-861.416,0,0
128448,55.9111,-858.527,0,0
128708,55.5698,-855.606,0,0
128968,55.3682,-852.586,0,0
129229,55.2443,-849.746,0,0
129489,54.9822,-846.957,0,0
129749,54.7291,-844.03,0,0
130010,54.5551,-841.104,0,0
130270,54.4233,-838.283,0,0
130530,54.1882,-835.543,0,0
130791,53.8798,-832.616,0,0
131051,53.5919,-829.573,0,0
131311,53.4937,-826.434,0,0
131572,53.5815,-823.436,0,0
131832,53.5046,-820.542,0,0
132092,53.3809,-817.546,0,0
132353,53.3472,-814.447,0,0
132613,53.4258,-811.386,0,0
132873,53.5263,-808.321,0,0
133134,53.6457,-805.232,0,0
133394,53.7718,-802.148,0,0
133654,54.0475,-798.916,0,0
133915,54.528,-795.679,0,0
134175,55.2179,-792.654,0,0
134435,55.8339,-789.804,0,0
134696,56.3298,-786.97,0,0
134956,56.8525,-783.952,0,0
135216,57.7628,-780.906,0,0
135477,58.7596,-778.068,0,0
135737,60.1373,-775.479,0,0
135997,61.3939,-773.435,0,0
136258,62.3989,-771.53,0,0
136518,63.3737,-769.876,0,0
136778,63.9789,-768.623,0,0
137039,63.9949,-767.315,0,0
137299,63.6515,-765.658,0,0
137559,63.3251,-763.643,0,0
137819,63.1251,-761.63,0,0
138080,62.6789,-759.54,0,0
138340.125,62.1901,-757.148,0,0
138600.45,61.7947,-754.548,0,0
138860.775,61.5832,-751.793,0,0
139121.1,61.6237,-749.058,0,0
139381.425,61.736,-746.465,0,0
139641.75,61.8793,-743.943,0,0
139902.075,61.9454,-741.49,0,0
140162.4,61.9439,-739.074,0,0
140422.725,61.7969,-736.493,0,0
140683.05,61.7754,-733.821,0,0
140943.375,61.8231,-731.163,0,0
141203.7,61.8501,-728.49,0,0
141464.025,61.8455,-725.731,0,0
141724.35,62.0164,-722.925,0,0
141984.675,62.2226,-720.142,0,0
142245.0,62.4612,-717.355,0,0
142505.325,62.7471,-714.587,0,0
142765.65,63.1076,-711.787,0,0
143025.975,63.5751,-709.028,0,0
143286.3,64.0518,-706.42,0,0
143546.625,64.5865,-703.893,0,0
143806.95,64.9958,-701.457,0,0
144067.275,65.2819,-699.036,0,0
144327.6,65.4953,-696.54,0,0
144587.925,65.6774,-693.889,0,0
144848.25,66.0829,-691.206,0,0
145108.575,66.527,-688.707,0,0
145368.9,66.8015,-686.307,0,0
145629.225,66.9087,-683.798,0,0
145889.55,66.9899,-681.062,0,0
146149.875,67.2564,-678.224,0,0
146410.2,67.6626,-675.426,0,0
146670.525,68.0631,-672.675,0,0
146930.85,68.5387,-669.953,0,0
147191.175,69.0024,-667.363,0,0
147451.5,69.3901,-664.662,0,0
147711.825,69.9247,-661.989,0,0
147972.15,70.4304,-659.514,0,0
148232.475,70.7819,-657.119,0,0
148492.8,70.9106,-654.664,0,0
148753.125,70.8856,-652.062,0,0
149013.45,70.8198,-649.187,0,0
149273.775,70.912,-646.12,0,0
149534.1,71.1667,-643.003,0,0
149794.425,71.4938,-639.897,0,0
150054.75,71.8003,-636.8,0,0
150315.075,72.1422,-633.64,0,0
150575.4,72.4975,-630.38,0,0
150835.725,72.9196,-627.034,0,0
151096.05,73.4585,-623.608,0,0
151356.375,74.1362,-620.143,0,0
151616.7,74.8781,-616.701,0,0
151877.025,75.721,-613.254,0,0
152137.35,76.6493,-609.75,0,0
152397.675,77.6818,-606.287,0,0
152658.0,78.7757,-602.846,0,0
152918.325,79.928,-599.409,0,0
153178.65,81.1387,-595.99,0,0
153438.975,82.3875,-592.53,0,0
153699.3,83.7111,-589.006,0,0
153959.625,85.2377,-585.505,0,0
154219.95,86.8491,-582.086,0,0
154480,88.5242,-578.703,0,0
154741,90.2835,-575.315,0,0
155001,92.0769,-572.038,0,0
155261,93.8808,-568.685,0,0
155522,95.9083,-565.439,0,0
155782,98.0599,-562.151,0,0
156042,100.269,-559.139,0,0
156303,102.592,-556.11,0,0
156563,104.782,-553.325,0,0
156823,107.143,-550.487,0,0
157084,109.6,-547.688,0,0
157344,112.164,-545.212,0,0
157604,114.477,-542.941,0,0
157864,116.81,-540.704,0,0
158125,119.168,-538.681,0,0
158385,121.381,-536.926,0,0
158645,123.172,-535.293,0,0
158906,124.558,-533.525,0,0
159166,125.759,-531.577,0,0
159426,126.823,-529.538,0,0
159687,127.619,-527.314,0,0
159947,128.265,-524.559,0,0
160207,128.86,-521.502,0,0
160468,129.487,-518.203,0,0
160728,130.244,-514.305,0,0
160988,131.177,-509.852,0,0
161249,132.697,-505.184,0,0
161509,134.614,-500.285,0,0
161769,137.114,-495.321,0,0
162030,140.058,-490.444,0,0
162290,143.224,-485.86,0,0
162550,146.408,-481.219,0,0
162811,150.069,-476.222,0,0
163071,154.182,-471.282,0,0
163331,158.837,-466.6,0,0
163592,163.993,-462.303,0,0
163852,169.191,-458.378,0,0
164112,174.405,-454.591,0,0
164373,179.798,-450.904,0,0
164633,185.45,-447.546,0,0
164893,190.953,-444.404,0,0
165154,196.273,-441.024,0,0
165414,201.94,-437.217,0,0
165674,208.12,-433.151,0,0
165935,215.193,-428.927,0,0
166195,223.248,-425.157,0,0
166455,231.988,-422.033,0,0
166716,240.979,-419.54,0,0
166976,250.46,-417.409,0,0
167236,260.532,-416.075,0,0
167497,270.789,-415.449,0,0
167757,281.573,-415.35,0,0
168017,293.012,-416.308,0,0
168277,304.648,-418.679,0,0
168538,316.016,-422.298,0,0
168798,327.032,-427.149,0,0
169058,337.434,-433.212,0,0
169319,346.672,-439.995,0,0
169579,355.145,-446.824,0,0
169839,363.724,-453.836,0,0
170100,372.473,-461.956,0,0
170360.075,380.259,-471.528,0,0
170620.4,386.465,-481.757,0,0
170880.725,391.664,-491.725,0,0
171141.05,396.597,-501.792,0,0
171401.375,401.123,-512.456,0,0
171661.7,405.118,-523.847,0,0
171922.025,408.185,-536.516,0,0
172182.35,409.093,-550.178,0,0
172442.675,407.753,-563.508,0,0
172703.0,404.906,-576.099,0,0
172963.325,400.587,-588.232,0,0
173223.65,394.508,-599.567,0,0
173483.975,386.779,-609.231,0,0
173744.3,378.384,-616.873,0,0
174004.625,369.833,-623.058,0,0
174264.95,360.919,-627.895,0,0
174525.275,351.608,-630.837,0,0
174785.6,343.255,-631.248,0,0
175045.925,337.098,-631.073,0,0
175306.25,331.023,-631.308,0,0
175566.575,324.965,-630.14,0,0
175826.9,320.277,-627.694,0,0
176087.225,317.151,-624.819,0,0
176347.55,315.555,-621.808,0,0
176607.875,315.95,-619.086,0,0
176868.2,317.819,-617.909,0,0
177128.525,320.102,-618.543,0,0
177388.85,322.116,-620.184,0,0
177649.175,324.43,-622.785,0,0
177909.5,326.852,-626.738,0,0
178169.825,328.822,-632.819,0,0
178430.15,328.751,-640.584,0,0
178690.475,326.283,-648.568,0,0
178950.8,321.776,-655.756,0,0
179211.125,316.214,-661.608,0,0
179471.45,310.297,-666.607,0,0
179731.775,303.626,-670.602,0,0
179992.1,297.352,-673.183,0,0
180252.425,291.958,-675.835,0,0
180512.75,286.413,-679.069,0,0
180773.075,280.108,-682.797,0,0
181033.4,271.866,-686.374,0,0
181293.725,262.505,-687.727,0,0
181554.05,253.966,-687.584,0,0
181814.375,245.796,-687.094,0,0
182074.7,237.479,-686.065,0,0
182335.025,228.941,-684.028,0,0
182595.35,220.868,-680.561,0,0
182855.675,214.197,-676.244,0,0
183116.0,208.62,-672.321,0,0
183376.325,203.006,-668.882,0,0
183636.65,197.077,-664.934,0,0
183896.975,191.598,-660.318,0,0
184157.3,186.767,-655.176,0,0
184417.625,182.921,-650.001,0,0
184677.95,179.625,-645.36,0,0
184938.275,176.185,-641.09,0,0
185198.6,172.613,-636.739,0,0
185458.925,169.032,-632.057,0,0
185719.25,165.73,-626.942,0,0
185979.575,162.958,-621.631,0,0
186239.9,160.654,-616.357,0,0
186500,158.604,-611.153,0,0
186761,156.806,-605.898,0,0
187021,155.442,-600.528,0,0
187281,154.621,-595.352,0,0
187542,154.194,-590.475,0,0
187802,153.989,-586.034,0,0
188062,153.907,-582.026,0,0
188322,153.773,-578.618,0,0
188583,153.026,-575.6,0,0
188843,151.69,-572.334,0,0
189103,150.212,-568.505,0,0
189364,149.037,-564.411,0,0
189624,147.958,-560.265,0,0
189884,147.093,-556.017,0,0
190145,146.364,-552.011,0,0
190405,145.135,-548.028,0,0
190665,143.794,-543.378,0,0
190926,142.959,-538.136,0,0
191186,142.891,-532.937,0,0
191446,143.106,-528.196,0,0
191707,143.16,-523.667,0,0
191967,143.106,-518.95,0,0
192227,143.207,-514.011,0,0
192488,143.611,-509.014,0,0
192748,144.2,-504.02,0,0
193008,145.052,-499.007,0,0
193269,146.139,-494.145,0,0
193529,147.291,-489.392,0,0
193789,148.472,-484.661,0,0
194050,149.738,-479.861,0,0
194310,151.206,-474.932,0,0
194570,153.049,-469.948,0,0
194831,155.261,-465.25,0,0
195091,157.462,-460.831,0,0
195351,159.654,-456.424,0,0
195612,162.043,-452.114,0,0
195872,164.571,-447.962,0,0
196132,167.002,-443.97,0,0
196393,169.663,-439.927,0,0
196653,172.48,-436.003,0,0
196913,175.255,-432.351,0,0
197174,178.038,-428.868,0,0
197434,180.652,-425.505,0,0
197694,182.964,-422.141,0,0
197955,185.176,-418.42,0,0
198215,187.733,-414.397,0,0
198475,190.465,-410.486,0,0
198735,193.379,-406.607,0,0
198996,196.184,-402.759,0,0
199256,199.047,-398.674,0,0
199516,202.26,-394.395,0,0
199777,205.829,-390.102,0,0
200037,209.589,-385.874,0,0
200297,213.725,-381.82,0,0
200558,217.887,-378.042,0,0
200818,222.04,-374.185,0,0
201078,226.358,-370.222,0,0
201339,231.048,-366.167,0,0
201599,235.974,-362.257,0,0
201859,241.3,-358.372,0,0
202120,246.999,-354.607,0,0
202380.025,253.012,-351.216,0,0
202640.35,259.16,-348.192,0,0
202900.675,265.373,-345.252,0,0
203161.0,271.888,-342.542,0,0
203421.325,278.554,-340.026,0,0
203681.65,285.529,-337.841,0,0
203941.975,292.639,-335.913,0,0
204202.3,300.006,-334.337,0,0
204462.625,307.373,-333.061,0,0
204722.95,314.827,-331.893,0,0
204983.275,322.777,-330.944,0,0
205243.6,331.374,-330.75,0,0
205503.925,339.942,-331.61,0,0
205764.25,348.061,-333.34,0,0
206024.575,355.723,-335.639,0,0
206284.9,362.816,-338.268,0,0
206545.225,369.414,-341.366,0,0
206805.55,375.095,-344.684,0,0
207065.875,379.945,-347.721,0,0
207326.2,384.177,-350.039,0,0
207586.525,388.196,-351.425,0,0
207846.85,392.723,-352.036,0,0
208107.175,397.796,-352.186,0,0
208367.5,403.607,-351.858,0,0
208627.825,410.671,-351.233,0,0
208888.15,419.337,-351.352,0,0
209148.475,428.663,-352.724,0,0
209408.8,438.337,-355.213,0,0
209669.125,448.405,-358.226,0,0
209929.45,459.168,-362.756,0,0
210189.775,470.27,-369.373,0,0
210450.1,480.254,-378.355,0,0
210710.425,488.151,-388.403,0,0
210970.75,494.575,-398.47,0,0
211231.075,500.147,-408.673,0,0
211491.4,504.908,-419.162,0,0
211751.725,508.598,-430.069,0,0
212012.05,510.969,-440.847,0,0
212272.375,512.686,-451.209,0,0
212532.7,513.796,-461.848,0,0
212793.025,513.374,-472.52,0,0
213053.35,511.687,-481.946,0,0
213313.675,510.05,-490.253,0,0
213574.0,508.64,-498.378,0,0
213834.325,506.823,-506.621,0,0
214094.65,504.23,-514.683,0,0
214354.975,501.054,-522.079,0,0
214615.3,497.55,-528.88,0,0
214875.625,493.676,-534.956,0,0
215135.95,489.821,-540.074,0,0
215396.275,486.364,-544.561,0,0
215656.6,483.597,-548.659,0,0
215916.925,481.485,-553.08,0,0
216177.25,479.541,-558.209,0,0
216437.575,477.121,-564.176,0,0
216697.9,473.425,-570.515,0,0
216958.225,468.373,-576.112,0,0
217218.55,462.809,-580.397,0,0
217478.875,457.7,-583.668,0,0
217739.2,452.941,-586.783,0,0
217999.525,448.153,-589.803,0,0
218259.85,443.234,-592.56,0,0
218520,438.106,-595.202,0,0
218780,432.423,-597.446,0,0
219041,426.472,-598.805,0,0
219301,420.694,-599.305,0,0
219561,415.19,-599.217,0,0
219822,409.896,-598.584,0,0
220082,404.896,-597.381,0,0
220342,400.373,-595.609,0,0
220603,396.369,-593.485,0,0
220863,392.734,-590.959,0,0
221123,389.739,-588.093,0,0
221384,387.349,-584.979,0,0
221644,385.73,-581.771,0,0
221904,384.782,-578.661,0,0
222165,384.48,-575.873,0,0
222425,384.506,-573.413,0,0
222685,384.699,-571.223,0,0
222946,385.153,-569.14,0,0
223206,385.904,-567.245,0,0
223466,386.888,-565.631,0,0
223727,388.039,-564.235,0,0
223987,389.132,-563.121,0,0
224247,390.104,-562.016,0,0
224508,391.084,-560.595,0,0
224768,392.662,-558.842,0,0
225028,394.864,-557.076,0,0
225289,397.838,-555.771,0,0
225549,401.209,-554.919,0,0
225809,404.999,-554.692,0,0
226070,409.064,-555.175,0,0
226330,412.985,-556.464,0,0
226590,416.554,-558.161,0,0
226851,420.101,-559.926,0,0
227111,423.774,-561.977,0,0
227371,427.631,-564.477,0,0
227632,431.63,-567.745,0,0
227892,435.372,-571.712,0,0
228152,438.737,-576.204,0,0
228413,441.708,-581.222,0,0
228673,444.164,-586.733,0,0
228933,446.009,-592.548,0,0
229193,447.199,-598.249,0,0
229454,448.345,-603.72,0,0
229714,449.612,-609.677,0,0
229974,450.621,-616.318,0,0
230235,450.895,-623.582,0,0
230495,450.087,-631.027,0,0
230755,448.36,-638.378,0,0
231016,445.804,-645.335,0,0
231276,442.869,-651.573,0,0
231536,440.072,-657.502,0,0
231797,437.35,-663.507,0,0
232057,434.363,-669.927,0,0
232317,430.674,-676.721,0,0
232578,426.027,-683.429,0,0
232838,420.706,-689.691,0,0
233098,414.876,-695.72,0,0
233359,408.274,-701.461,0,0
233619,400.911,-706.534,0,0
233879,393.231,-710.835,0,0
234140,385.22,-714.687,0,0
234400,376.484,-718.008,0,0
234660.3,366.974,-720.117,0,0
234920.625,357.466,-720.625,0,0
235180.95,348.576,-719.756,0,0
235441.275,340.465,-718.19,0,0
235701.6,333.079,-715.993,0,0
235961.925,326.54,-713.227,0,0
236222.25,321.034,-710.724,0,0
236482.575,315.926,-708.609,0,0
236742.9,310.755,-706.705,0,0
237003.225,305.513,-704.732,0,0
237263.55,300.223,-702.571,0,0
237523.875,294.872,-700.247,0,0
237784.2,289.439,-697.471,0,0
238044.525,283.917,-694.066,0,0
238304.85,278.699,-689.766,0,0
238565.175,274.341,-684.575,0,0
238825.5,271.155,-679.137,0,0
239085.825,269.025,-673.577,0,0
239346.15,268.027,-668.523,0,0
239606.475,267.807,-664.202,0,0
239866.8,268.078,-660.646,0,0
240127.125,268.493,-658.17,0,0
240387.45,268.715,-656.518,0,0
240647.775,268.418,-655.309,0,0
240908.1,267.499,-654.325,0,0
241168.425,266.154,-653.388,0,0
241428.75,264.523,-652.396,0,0
241689.075,262.71,-651.164,0,0
241949.4,260.344,-649.817,0,0
242209.725,257.809,-647.959,0,0
242470.05,255.402,-645.454,0,0
242730.375,253.399,-642.648,0,0
242990.7,251.607,-639.84,0,0
243251.025,249.706,-636.843,0,0
243511.35,247.951,-633.224,0,0
243771.675,246.846,-629.125,0,0
244032.0,246.677,-624.704,0,0
244292.325,247.452,-620.747,0,0
244552.65,248.858,-617.401,0,0
244812.975,250.521,-614.743,0,0
245073.3,252.056,-612.609,0,0
245333.625,253.673,-610.881,0,0
245593.95,255.231,-609.598,0,0
245854.275,256.555,-608.774,0,0
246114.6,257.56,-608.099,0,0
246374.925,258.415,-607.448,0,0
246635.25,259.135,-606.854,0,0
246895.575,259.652,-606.33,0,0
247155.9,260.054,-605.804,0,0
247416.225,260.43,-605.189,0,0
247676.55,260.967,-604.545,0,0
247936.875,261.344,-604.028,0,0
248197.2,261.742,-603.512,0,0
248457.525,262.13,-602.9,0,0
248717.85,262.713,-602.368,0,0
248978.175,263.325,-602.005,0,0
249238.5,263.938,-601.857,0,0
249498.825,264.453,-601.854,0,0
249759.15,264.805,-601.919,0,0
250019.475,265.019,-601.946,0,0
250279.8,265.263,-601.952,0,0
250540,265.475,-601.934,0,0
250800,265.738,-602.01,0,0
251061,266.007,-602.048,0,0
251321,266.323,-602.147,0,0
251581,266.786,-602.401,0,0
251842,267.227,-602.872,0,0
252102,267.573,-603.606,0,0
252362,267.731,-604.514,0,0
252623,267.668,-605.529,0,0
252883,267.417,-606.622,0,0
253143,266.963,-607.719,0,0
253404,266.318,-608.866,0,0
253664,265.435,-610.048,0,0
253924,264.234,-611.203,0,0
254185,262.795,-612.109,0,0
254445,261.333,-612.91,0,0
254705,259.657,-613.504,0,0
254966,257.862,-613.967,0,0
255226,255.976,-614.269,0,0
255486,254.03,-614.32,0,0
255747,252.057,-614.153,0,0
256007,250.093,-613.896,0,0
256267,248.172,-613.438,0,0
256528,246.261,-612.829,0,0
256788,244.34,-612.131,0,0
257048,242.371,-611.27,0,0
257309,240.436,-610.121,0,0
257569,238.648,-608.745,0,0
257829,236.982,-607.188,0,0
258090,235.535,-605.475,0,0
258350,234.326,-603.647,0,0
258610,233.359,-601.85,0,0
258871,232.524,-600.13,0,0
259131,231.743,-598.496,0,0
259391,230.913,-596.866,0,0
259651,230.042,-595.109,0,0
259912,229.192,-593.105,0,0
260172,228.527,-590.824,0,0
260432,228.171,-588.399,0,0
260693,228.126,-585.925,0,0
260953,228.36,-583.473,0,0
261213,228.869,-581.036,0,0
261474,229.575,-578.619,0,0
261734,230.59,-576.2,0,0
261994,231.972,-573.829,0,0
262255,233.774,-571.609,0,0
262515,235.965,-569.69,0,0
262775,238.496,-568.167,0,0
263036,241.203,-567.118,0,0
263296,243.982,-566.532,0,0
263556,246.79,-566.394,0,0
263817,249.548,-566.756,0,0
264077,252.119,-567.561,0,0
264337,254.378,-568.742,0,0
264598,256.337,-570.193,0,0
264858,257.819,-571.863,0,0
265118,258.842,-573.48,0,0
265379,259.68,-574.805,0,0
265639,260.615,-576.067,0,0
265899,261.449,-577.262,0,0
266160,262.415,-578.554,0,0
266420,263.415,-580.001,0,0
266680.25,264.291,-581.774,0,0
266940.575,264.913,-583.681,0,0
267200.9,265.358,-585.655,0,0
267461.225,265.624,-587.726,0,0
267721.55,265.522,-589.868,0,0
267981.875,265.131,-591.919,0,0
268242.2,264.443,-593.789,0,0
268502.525,263.586,-595.365,0,0
268762.85,262.724,-596.62,0,0
269023.175,262.006,-597.579,0,0
269283.5,261.474,-598.493,0,0
269543.825,261.101,-599.273,0,0
269804.15,261.049,-600.082,0,0
270064.475,261.105,-600.987,0,0
270324.8,261.447,-602.025,0,0
270585.125,261.894,-603.307,0,0
270845.45,262.478,-604.729,0,0
271105.775,263.337,-606.511,0,0
271366.1,264.337,-608.73,0,0
271626.425,265.318,-611.542,0,0
271886.75,266.248,-615.097,0,0
272147.075,266.713,-619.373,0,0
272407.4,266.406,-624.253,0,0
272667.725,265.339,-629.43,0,0
272928.05,263.446,-634.772,0,0
273188.375,260.729,-640.23,0,0
273448.7,257.032,-645.592,0,0
273709.025,252.351,-650.586,0,0
273969.35,246.909,-654.946,0,0
274229.675,240.935,-658.589,0,0
274490.0,234.598,-661.641,0,0
274750.325,227.837,-664.094,0,0
275010.65,220.631,-665.836,0,0
275270.975,213.138,-666.623,0,0
275531.3,205.733,-666.503,0,0
275791.625,198.511,-665.565,0,0
276051.95,191.552,-664.033,0,0
276312.275,184.846,-661.924,0,0
276572.6,178.348,-659.248,0,0
276832.925,172.184,-655.934,0,0
277093.25,166.501,-652.041,0,0
277353.575,161.42,-647.648,0,0
277613.9,156.989,-642.978,0,0
277874.225,153.189,-638.153,0,0
278134.55,149.979,-633.242,0,0
278394.875,147.353,-628.39,0,0
278655.2,145.233,-623.661,0,0
278915.525,143.392,-619.133,0,0
279175.85,141.862,-614.691,0,0
279436.175,140.655,-610.375,0,0
279696.5,139.74,-606.066,0,0
279956.825,139.229,-601.933,0,0
280217.15,139.015,-598.05,0,0
280477.475,139.1,-594.507,0,0
280737.8,139.335,-591.332,0,0
280998.125,139.598,-588.563,0,0
281258.45,139.768,-586.118,0,0
281518.775,139.763,-583.911,0,0
281779.1,139.523,-581.847,0,0
282039.425,139.011,-579.797,0,0
282299.75,138.309,-577.603,0,0
282560,137.447,-575.216,0,0
282820,136.768,-572.523,0,0
283081,136.173,-569.632,0,0
283341,135.757,-566.687,0,0
283601,135.609,-563.708,0,0
283862,135.668,-560.678,0,0
284122,135.93,-557.78,0,0
284382,136.311,-554.903,0,0
284643,136.896,-552.133,0,0
284903,137.59,-549.48,0,0
285163,138.411,-546.973,0,0
285424,139.366,-544.661,0,0
285684,140.375,-542.523,0,0
285944,141.372,-540.423,0,0
286205,142.359,-538.61,0,0
286465,143.301,-536.791,0,0
286725,144.206,-535.216,0,0
286986,144.937,-533.597,0,0
287246,145.669,-532.07,0,0
287506,146.232,-530.539,0,0
287767,146.85,-528.904,0,0
288027,147.444,-527.185,0,0
288287,148.062,-525.521,0,0
288548,148.696,-523.671,0,0
288808,149.459,-521.721,0,0
289068,150.295,-519.933,0,0
289329,151.247,-518.06,0,0
289589,152.254,-516.222,0,0
289849,153.284,-514.321,0,0
290109,154.597,-512.385,0,0
290370,156.014,-510.701,0,0
290630,157.509,-508.965,0,0
290890,159.188,-507.47,0,0
291151,160.931,-506.115,0,0
291411,162.66,-504.916,0,0
291671,164.262,-503.826,0,0
291932,165.872,-502.893,0,0
292192,167.367,-501.861,0,0
292452,169.014,-500.943,0,0
292713,170.533,-500.018,0,0
292973,172.091,-499.22,0,0
293233,173.632,-498.382,0,0
293494,175.152,-497.642,0,0
293754,176.657,-496.837,0,0
294014,178.166,-495.995,0,0
294275,179.724,-495.144,0,0
294535,181.41,-494.234,0,0
294795,183.182,-493.329,0,0
295056,185.065,-492.491,0,0
295316,187.156,-491.783,0,0
295576,189.283,-491.101,0,0
295837,191.481,-490.595,0,0
296097,193.687,-490.123,0,0
296357,196.053,-489.744,0,0
296618,198.529,-489.506,0,0
296878,201.056,-489.358,0,0
297138,203.663,-489.383,0,0
297399,206.34,-489.627,0,0
297659,209.027,-490.084,0,0
297919,211.687,-490.676,0,0
298180,214.282,-491.425,0,0
298440,216.948,-492.247,0,0
298700.2,219.589,-493.224,0,0
298960.525,222.315,-494.39,0,0
299220.85,224.977,-495.587,0,0
299481.175,227.604,-497.091,0,0
299741.5,230.411,-498.76,0,0
300001.825,233.12,-500.56,0,0
300262.15,235.89,-502.671,0,0
300522.475,238.634,-504.861,0,0
300782.8,241.43,-507.433,0,0
301043.125,244.277,-510.262,0,0
301303.45,247.077,-513.503,0,0
301563.775,249.794,-517.223,0,0
301824.1,252.294,-521.417,0,0
302084.425,254.483,-526.202,0,0
302344.75,256.13,-531.437,0,0
302605.075,257.157,-536.977,0,0
302865.4,257.486,-542.789,0,0
303125.725,257.076,-548.665,0,0
303386.05,255.899,-554.436,0,0
303646.375,254.105,-559.911,0,0
303906.7,251.81,-565.031,0,0
304167.025,249.085,-569.792,0,0
304427.35,246.079,-574.142,0,0
304687.675,242.848,-578.164,0,0
304948.0,239.429,-581.89,0,0
305208.325,235.828,-585.373,0,0
305468.65,231.945,-588.569,0,0
305728.975,227.831,-591.399,0,0
305989.3,223.558,-593.826,0,0
306249.625,219.206,-595.816,0,0
306509.95,214.851,-597.399,0,0
306770.275,210.583,-598.627,0,0
307030.6,206.398,-599.543,0,0
307290.925,202.328,-600.235,0,0
307551.25,198.372,-600.753,0,0
307811.575,194.411,-601.071,0,0
308071.9,190.483,-601.179,0,0
308332.225,186.606,-601.041,0,0
308592.55,182.833,-600.636,0,0
308852.875,179.203,-599.984,0,0
309113.2,175.75,-599.138,0,0
309373.525,172.475,-598.13,0,0
309633.85,169.412,-596.984,0,0
309894.175,166.551,-595.769,0,0
310154.5,163.924,-594.497,0,0
310414.825,161.445,-593.242,0,0
310675.15,159.085,-591.974,0,0
310935.475,156.862,-590.742,0,0
311195.8,154.714,-589.519,0,0
311456.125,152.633,-588.313,0,0
311716.45,150.63,-587.086,0,0
311976.775,148.663,-585.885,0,0
312237.1,146.739,-584.663,0,0
312497.425,144.861,-583.422,0,0
312757.75,143.023,-582.176,0,0
313018.075,141.229,-580.912,0,0
313278.4,139.446,-579.589,0,0
313538.725,137.713,-578.228,0,0
313799.05,136.014,-576.808,0,0
314059.375,134.371,-575.326,0,0
314319.7,132.835,-573.79,0,0
314580,131.383,-572.118,0,0
314840,130.072,-570.455,0,0
315101,128.843,-568.84,0,0
315361,127.79,-567.209,0,0
315621,126.771,-565.66,0,0
315882,125.93,-564.212,0,0
316142,125.036,-562.708,0,0
316402,124.325,-561.315,0,0
316663,123.626,-560.02,0,0
316923,122.908,-558.728,0,0
317183,122.202,-557.371,0,0
317444,121.391,-556.142,0,0
317704,120.729,-554.864,0,0
317964,120.076,-553.665,0,0
318225,119.502,-552.457,0,0
318485,118.964,-551.211,0,0
318745,118.445,-549.9,0,0
319006,118.007,-548.726,0,0
319266,117.57,-547.515,0,0
319526,117.236,-546.487,0,0
319787,116.937,-545.424,0,0
320047,116.707,-544.467,0,0
320307,116.369,-543.557,0,0
320567,116.042,-542.674,0,0
320828,115.735,-541.934,0,0
321088,115.5,-541.191,0,0
321348,115.108,-540.411,0,0
321609,114.735,-539.797,0,0
321869,114.39,-539.142,0,0
322129,113.984,-538.545,0,0
322390,113.501,-537.998,0,0
322650,113.025,-537.415,0,0
322910,112.475,-536.931,0,0
323171,111.842,-536.376,0,0
323431,111.19,-535.756,0,0
323691,110.433,-535.069,0,0
323952,109.733,-534.393,0,0
324212,109.041,-533.592,0,0
324472,108.49,-532.79,0,0
324733,107.867,-531.963,0,0
324993,107.397,-531.062,0,0
325253,106.972,-530.3,0,0
325514,106.507,-529.572,0,0
325774,106.084,-528.846,0,0
326034,105.663,-528.189,0,0
326295,105.226,-527.562,0,0
326555,104.692,-526.976,0,0
326815,104.236,-526.382,0,0
327076,103.725,-525.85,0,0
327336,103.156,-525.22,0,0
327596,102.603,-524.63,0,0
327857,101.995,-524.081,0,0
328117,101.459,-523.487,0,0
328377,100.861,-522.918,0,0
328638,100.164,-522.328,0,0
328898,99.5394,-521.68,0,0
329158,98.9594,-521.035,0,0
329419,98.3174,-520.46,0,0
329679,97.6126,-519.827,0,0
329939,97.0347,-519.204,0,0
330200,96.3206,-518.556,0,0
330460,95.6774,-517.898,0,0
330720.15,94.979,-517.275,0,0
330980.475,94.3757,-516.638,0,0
331240.8,93.6742,-516.012,0,0
331501.125,92.9555,-515.398,0,0
331761.45,92.1897,-514.782,0,0
332021.775,91.4031,-514.19,0,0
332282.1,90.6195,-513.524,0,0
332542.425,89.8166,-512.816,0,0
332802.75,88.8578,-512.143,0,0
333063.075,88.0028,-511.305,0,0
333323.4,87.0226,-510.505,0,0
333583.725,86.1589,-509.662,0,0
333844.05,85.1883,-508.62,0,0
334104.375,84.272,-507.687,0,0
334364.7,83.54,-506.679,0,0
334625.025,82.6749,-505.637,0,0
334885.35,81.822,-504.491,0,0
335145.675,81.0578,-503.453,0,0
335406.0,80.3093,-502.238,0,0
335666.325,79.5237,-501.167,0,0
335926.65,78.8382,-499.957,0,0
336186.975,78.142,-498.711,0,0
336447.3,77.511,-497.409,0,0
336707.625,76.9593,-496.163,0,0
336967.95,76.3461,-494.888,0,0
337228.275,75.8672,-493.568,0,0
337488.6,75.3447,-492.301,0,0
337748.925,74.8914,-491.044,0,0
338009.25,74.5044,-489.774,0,0
338269.575,74.1498,-488.481,0,0
338529.9,73.761,-487.219,0,0
338790.225,73.3939,-485.929,0,0
339050.55,73.0577,-484.641,0,0
339310.875,72.7533,-483.4,0,0
339571.2,72.5026,-482.13,0,0
339831.525,72.2349,-480.792,0,0
340091.85,72.0512,-479.525,0,0
340352.175,71.8628,-478.261,0,0
340612.5,71.6555,-476.993,0,0
340872.825,71.5375,-475.704,0,0
341133.15,71.454,-474.498,0,0
341393.475,71.3182,-473.259,0,0
341653.8,71.2789,-471.979,0,0
341914.125,71.2665,-470.743,0,0
342174.45,71.2318,-469.558,0,0
342434.775,71.2267,-468.345,0,0
342695.1,71.3049,-467.163,0,0
342955.425,71.3965,-465.969,0,0
343215.75,71.4709,-464.804,0,0
343476.075,71.6305,-463.71,0,0
343736.4,71.7506,-462.555,0,0
343996.725,71.9531,-461.49,0,0
344257.05,72.1622,-460.464,0,0
344517.375,72.3678,-459.42,0,0
344777.7,72.6267,-458.42,0,0
345038.025,72.8022,-457.514,0,0
345298.35,73.1292,-456.531,0,0
345558.675,73.4036,-455.644,0,0
345819.0,73.6684,-454.855,0,0
346079.325,73.9514,-454.106,0,0
346339.65,74.1168,-453.332,0,0
346599.975,74.3046,-452.69,0,0
346860,74.4815,-451.989,0,0
347121,74.6144,-451.375,0,0
347381,74.7436,-450.76,0,0
347641,74.7999,-450.132,0,0
347902,74.7941,-449.522,0,0
348162,74.6659,-448.92,0,0
348422,74.6229,-448.192,0,0
348683,74.4956,-447.533,0,0
348943,74.3321,-446.746,0,0
349203,74.2252,-445.942,0,0
349464,74.1532,-445.098,0,0
349724,74.0412,-444.37,0,0
349984,73.928,-443.523,0,0
350245,73.8361,-442.622,0,0
350505,73.674,-441.696,0,0
350765,73.6114,-440.774,0,0
351025,73.5725,-439.687,0,0
351286,73.5785,-438.685,0,0
351546,73.6784,-437.683,0,0
351806,73.8266,-436.674,0,0
352067,74.0139,-435.662,0,0
352327,74.179,-434.732,0,0
352587,74.4219,-433.786,0,0
352848,74.6402,-432.786,0,0
353108,74.9489,-431.91,0,0
353368,75.3125,-431.027,0,0
353629,75.6045,-430.147,0,0
353889,75.9491,-429.321,0,0
354149,76.3591,-428.516,0,0
354410,76.7923,-427.768,0,0
354670,77.2402,-427.034,0,0
354930,77.667,-426.346,0,0
355191,78.2007,-425.808,0,0
355451,78.654,-425.398,0,0
355711,79.045,-424.992,0,0
355972,79.3339,-424.657,0,0
356232,79.5314,-424.356,0,0
356492,79.6524,-424.087,0,0
356753,79.7444,-423.775,0,0
357013,79.7641,-423.445,0,0
357273,79.6691,-423.04,0,0
357534,79.5312,-422.685,0,0
357794,79.3565,-422.265,0,0
358054,79.1321,-421.734,0,0
358315,78.8824,-421.203,0,0
358575,78.6067,-420.532,0,0
358835,78.3431,-419.765,0,0
359096,78.1202,-418.975,0,0
359356,77.9451,-418.045,0,0
359616,77.8144,-417.161,0,0
359877,77.764,-416.191,0,0
360137,77.7475,-415.206,0,0
360397,77.804,-414.185,0,0
360658,77.9306,-413.159,0,0
360918,78.0771,-412.235,0,0
361178,78.2591,-411.25,0,0
361438,78.5187,-410.337,0,0
361699,78.8025,-409.417,0,0
361959,79.0912,-408.507,0,0
362219,79.4021,-407.681,0,0
362480,79.7527,-406.829,0,0
362740.1,80.0709,-405.961,0,0
363000.425,80.367,-405.092,0,0
363260.75,80.7194,-404.274,0,0
363521.075,81.1069,-403.462,0,0
363781.4,81.5199,-402.63,0,0
364041.725,82.0066,-401.782,0,0
364302.05,82.5003,-400.964,0,0
364562.375,83.0653,-400.174,0,0
364822.7,83.6787,-399.439,0,0
365083.025,84.2714,-398.82,0,0
365343.35,84.9573,-398.231,0,0
365603.675,85.5635,-397.779,0,0
365864.0,86.1515,-397.309,0,0
366124.325,86.6821,-396.91,0,0
366384.65,87.2113,-396.517,0,0
366644.975,87.6772,-396.104,0,0
366905.3,88.1428,-395.745,0,0
367165.625,88.5842,-395.389,0,0
367425.95,89.1143,-395.069,0,0
367686.275,89.502,-394.799,0,0
367946.6,89.9471,-394.499,0,0
368206.925,90.3633,-394.21,0,0
368467.25,90.7636,-393.946,0,0
368727.575,91.1467,-393.781,0,0
368987.9,91.5567,-393.618,0,0
369248.225,91.9435,-393.497,0,0
369508.55,92.2316,-393.525,0,0
369768.875,92.4405,-393.541,0,0
370029.2,92.5153,-393.599,0,0
370289.525,92.4544,-393.63,0,0
370549.85,92.2738,-393.615,0,0
370810.175,92.0539,-393.468,0,0
371070.5,91.7298,-393.266,0,0
371330.825,91.2682,-392.946,0,0
371591.15,90.9153,-392.497,0,0
371851.475,90.5497,-391.92,0,0
372111.8,90.2794,-391.215,0,0
372372.125,90.0336,-390.466,0,0
372632.45,89.8515,-389.655,0,0
372892.775,89.7537,-388.786,0,0
373153.1,89.7246,-387.898,0,0
373413.425,89.7654,-387.036,0,0
373673.75,89.8487,-386.148,0,0
373934.075,89.9777,-385.278,0,0
374194.4,90.1832,-384.419,0,0
374454.725,90.4424,-383.571,0,0
374715.05,90.7255,-382.658,0,0
374975.375,91.0493,-381.837,0,0
375235.7,91.4138,-381.078,0,0
375496.025,91.8339,-380.338,0,0
375756.35,92.2231,-379.678,0,0
376016.675,92.5958,-379,0,0
376277.0,92.9044,-378.367,0,0
376537.325,93.241,-377.714,0,0
376797.65,93.4943,-377.016,0,0
377057.975,93.8617,-376.315,0,0
377318.3,94.1853,-375.618,0,0
377578.625,94.5297,-374.824,0,0
377838.95,94.9696,-374.085,0,0
378099.275,95.4071,-373.325,0,0
378359.6,95.9267,-372.572,0,0
378619.925,96.4411,-371.873,0,0
378880,97.0038,-371.18,0,0
379141,97.5662,-370.516,0,0
379401,98.1989,-369.887,0,0
379661,98.8197,-369.279,0,0
379922,99.4429,-368.755,0,0
380182,99.9934,-368.225,0,0
380442,100.583,-367.74,0,0
380703,101.097,-367.257,0,0
380963,101.662,-366.733,0,0
381223,102.159,-366.216,0,0
381483,102.687,-365.66,0,0
381744,103.287,-365.08,0,0
382004,103.87,-364.533,0,0
382264,104.496,-363.947,0,0
382525,105.195,-363.41,0,0
382785,105.896,-362.906,0,0
383045,106.656,-362.462,0,0
383306,107.396,-362.021,0,0
383566,108.134,-361.626,0,0
383826,108.855,-361.263,0,0
384087,109.612,-360.936,0,0
384347,110.383,-360.663,0,0
384607,111.076,-360.406,0,0
384868,111.749,-360.18,0,0
385128,112.417,-359.961,0,0
385388,113.034,-359.696,0,0
385649,113.681,-359.448,0,0
385909,114.325,-359.218,0,0
386169,114.989,-358.998,0,0
386430,115.61,-358.744,0,0
386690,116.231,-358.619,0,0
386950,116.821,-358.413,0,0
387211,117.351,-358.222,0,0
387471,117.881,-357.976,0,0
387731,118.374,-357.693,0,0
387992,118.905,-357.388,0,0
388252,119.494,-356.957,0,0
388512,120.146,-356.572,0,0
388773,120.873,-356.15,0,0
389033,121.642,-355.771,0,0
389293,122.537,-355.425,0,0
389554,123.411,-355.187,0,0
389814,124.307,-355.011,0,0
390074,125.233,-354.864,0,0
390335,126.064,-354.831,0,0
390595,126.875,-354.726,0,0
390855,127.727,-354.66,0,0
391116,128.528,-354.641,0,0
391376,129.305,-354.54,0,0
391636,130.115,-354.428,0,0
391896,130.98,-354.346,0,0
392157,131.84,-354.325,0,0
392417,132.739,-354.33,0,0
392677,133.675,-354.331,0,0
392938,134.545,-354.365,0,0
393198,135.405,-354.47,0,0
393458,136.291,-354.544,0,0
393719,137.185,-354.576,0,0
393979,138.101,-354.632,0,0
394239,139.056,-354.712,0,0
394500,140.046,-354.771,0,0
394760.05,141.067,-354.837,0,0
395020.375,142.221,-354.952,0,0
395280.7,143.387,-355.138,0,0
395541.025,144.618,-355.45,0,0
395801.35,145.938,-355.837,0,0
396061.675,147.227,-356.326,0,0
396322.0,148.549,-356.936,0,0
396582.325,149.821,-357.659,0,0
396842.65,151.063,-358.485,0,0
397102.975,152.282,-359.476,0,0
397363.3,153.412,-360.497,0,0
397623.625,154.536,-361.579,0,0
397883.95,155.589,-362.796,0,0
398144.275,156.504,-364.116,0,0
398404.6,157.447,-365.494,0,0
398664.925,158.203,-367.027,0,0
398925.25,158.891,-368.59,0,0
399185.575,159.478,-370.311,0,0
399445.9,159.86,-371.994,0,0
399706.225,160.082,-373.782,0,0
399966.55,160.163,-375.531,0,0
400006.6,160.186,-375.789,0,0