File: Accelerated corrosion test data/2025-10-01_18-00-03/sample_2.csv
Frequency (Hz),Impedance (ohms),Phase (Radians),Temperature (C),Humidity (%)
10000.0,225.93,-11279.5,0,0
10260.325,220.041,-10995.9,0,0
10520.65,214.846,-10725.8,0,0
10780.975,211.085,-10468.7,0,0
11041.3,204.799,-10224.2,0,0
11301.625,201.279,-9990.08,0,0
11561.95,198.195,-9764.83,0,0
11822.275,193.882,-9556.05,0,0
12082.6,192.467,-9352.8,0,0
12342.925,184.843,-9157.41,0,0
12603.25,180.953,-8968.58,0,0
12863.575,177.831,-8786.97,0,0
13123.9,175.382,-8616.07,0,0
13384.225,171.427,-8447.67,0,0
13644.55,169.381,-8284.02,0,0
13904.875,177.189,-8144.03,0,0
14165.2,163.616,-7989.89,0,0
14425.525,159.731,-7842.9,0,0
14685.8,163.988,-7699.14,0,0
14946.175,159.85,-7572.65,0,0
15206.5,157.899,-7451.5,0,0
15466.825,164.976,-7322.37,0,0
15727.15,149.351,-7206.44,0,0
15987.5,146.135,-7086.77,0,0
16247.8,146.926,-6974.1,0,0
16508.125,141.659,-6865.61,0,0
16768.45,139.03,-6758.91,0,0
17028.775,137.176,-6656.12,0,0
17289.1,135.448,-6556.7,0,0
17549.425,133.192,-6459.22,0,0
17809.75,131.302,-6364.57,0,0
18070.075,129.224,-6273.41,0,0
18330.4,127.913,-6183.37,0,0
18590.725,127.294,-6096.19,0,0
18851.05,125.851,-6011.29,0,0
19111.375,127.579,-5931.75,0,0
19371.7,126.058,-5855.38,0,0
19632.025,121.636,-5777.28,0,0
19892.35,119.343,-5700.88,0,0
20152.675,117.761,-5626.07,0,0
20413.0,117.338,-5553.34,0,0
20673.3,116.382,-5481.51,0,0
20933.65,117.33,-5411.11,0,0
21193.975,119.237,-5345.19,0,0
21454.3,125.7,-5285.04,0,0
21714.625,124.431,-5227.3,0,0
21974.9,123.854,-5164.52,0,0
22235.275,117.213,-5109.63,0,0
22495.6,113.494,-5050.42,0,0
22755.925,111.758,-4989.59,0,0
23016.25,110.243,-4934.94,0,0
23276.6,110.453,-4881.41,0,0
23536.9,107.504,-4827.26,0,0
23797.225,105.367,-4773.94,0,0
24057.55,105.181,-4723.36,0,0
24317.875,101.96,-4672.84,0,0
24578.2,100.255,-4622.43,0,0
24838.525,98.9201,-4573.58,0,0
25098.85,98.8403,-4525.6,0,0
25359.175,97.3528,-4478.63,0,0
25619.5,96.2417,-4433.05,0,0
25879.8,95.7038,-4387.02,0,0
26140.1,95.5028,-4343.3,0,0
26400.5,94.9841,-4300.01,0,0
26660.8,94.1503,-4259.54,0,0
26921.1,94.7656,-4217.6,0,0
27181.4,92.8898,-4178.51,0,0
27441.8,91.2755,-4138.49,0,0
27702.1,89.8536,-4099.15,0,0
27962.4,88.9864,-4059.49,0,0
28222.7,89.2715,-4021.54,0,0
28483.1,89.0043,-3983.8,0,0
28743.4,87.8566,-3946.56,0,0
29003.7,89.8233,-3909.86,0,0
29264,90.0989,-3874.83,0,0
29524.4,93.4879,-3840.31,0,0
29784.7,94.2009,-3813.16,0,0
30045,90.4543,-3779.51,0,0
30305.3,93.0956,-3748.11,0,0
30565.7,89.0571,-3718.36,0,0
30826,86.7173,-3686.56,0,0
31086.3,85.8244,-3655.21,0,0
31346.6,84.6664,-3624.36,0,0
31607,84.3104,-3594.86,0,0
31867.3,82.496,-3565.3,0,0
32127.6,81.4952,-3534.84,0,0
32387.9,82.2371,-3505.04,0,0
32648.3,83.0289,-3478.25,0,0
32908.6,81.6364,-3452.19,0,0
33168.9,80.9952,-3425.5,0,0
33429.2,79.311,-3398.27,0,0
33689.6,78.9897,-3372.08,0,0
33949.9,78.1788,-3346.74,0,0
34210.2,76.6785,-3320.55,0,0
34470.5,75.7884,-3294.76,0,0
34730.9,75.2804,-3269.68,0,0
34991.2,75.0164,-3244.52,0,0
35251.5,74.3695,-3220.56,0,0
35511.8,73.6661,-3196.58,0,0
35772.2,73.1798,-3172.75,0,0
36032.5,72.686,-3149.8,0,0
36292.8,72.2089,-3126.69,0,0
36553.1,71.5494,-3103.91,0,0
36813.5,71.1997,-3081.76,0,0
37073.8,70.954,-3059.59,0,0
37334.1,70.6507,-3037.91,0,0
37594.4,70.3156,-3016.56,0,0
37854.8,70.1823,-2995.64,0,0
38115.1,69.3639,-2975.17,0,0
38375.4,68.5981,-2954.55,0,0
38635.7,68.5172,-2934.18,0,0
38896.1,68.2511,-2914.07,0,0
39156.4,67.7565,-2894.59,0,0
39416.7,67.3484,-2874.81,0,0
39677,67.0142,-2855.83,0,0
39937.4,66.8098,-2836.62,0,0
40197.7,66.3512,-2817.98,0,0
40458,65.9712,-2799.39,0,0
40718.3,65.8784,-2780.94,0,0
40978.7,65.5453,-2763,0,0
41239,65.3374,-2744.83,0,0
41499.3,65.3022,-2727.65,0,0
41759.6,64.7866,-2710.02,0,0
42020,64.7269,-2692.91,0,0
42280.275,64.5287,-2676.2,0,0
42540.6,64.0556,-2659.51,0,0
42800.925,63.7112,-2642.85,0,0
43061.25,63.6301,-2626.45,0,0
43321.575,63.3975,-2610.26,0,0
43581.9,63.1479,-2594.36,0,0
43842.225,62.9663,-2578.62,0,0
44102.55,62.8361,-2563.12,0,0
44362.875,62.4488,-2547.72,0,0
44623.2,62.0083,-2532.47,0,0
44883.525,61.5169,-2517.19,0,0
45143.85,61.7596,-2502.14,0,0
45404.175,61.5871,-2487.4,0,0
45664.5,61.2217,-2472.4,0,0
45924.825,61.5708,-2458.17,0,0
46185.15,61.4469,-2444.32,0,0
46445.475,60.7235,-2430.36,0,0
46705.8,60.4732,-2416.36,0,0
46966.125,60.5077,-2402.09,0,0
47226.45,60.6905,-2388.33,0,0
47486.775,60.6527,-2375.05,0,0
47747.1,60.2465,-2362.1,0,0
48007.425,60.2834,-2348.23,0,0
48267.75,60.9876,-2335.41,0,0
48528.075,61.2071,-2323.46,0,0
48788.4,60.5766,-2311.11,0,0
49048.725,60.1554,-2298.87,0,0
49309.05,59.5411,-2286.79,0,0
49569.375,58.7661,-2273.9,0,0
49829.7,58.7784,-2261.79,0,0
50090.025,58.1429,-2249.55,0,0
50350.35,57.7604,-2237.26,0,0
50610.675,57.7404,-2225.29,0,0
50871.0,57.6105,-2213.45,0,0
51131.325,57.6154,-2202.02,0,0
51391.65,57.0706,-2190.76,0,0
51651.975,56.6704,-2179.33,0,0
51912.3,56.1437,-2167.94,0,0
52172.625,55.8042,-2156.45,0,0
52432.95,55.3517,-2145,0,0
52693.275,55.2056,-2133.85,0,0
52953.6,55.052,-2122.75,0,0
53213.925,54.8049,-2111.78,0,0
53474.25,54.6896,-2100.76,0,0
53734.575,54.4922,-2090.05,0,0
53994.9,54.3556,-2079.34,0,0
54255.225,54.2936,-2068.77,0,0
54515.55,54.3818,-2058.37,0,0
54775.875,54.0774,-2048.03,0,0
55036.2,53.9483,-2037.78,0,0
55296.525,53.9377,-2027.5,0,0
55556.85,53.9081,-2017.38,0,0
55817.175,53.8755,-2007.5,0,0
56077.5,53.7436,-1997.53,0,0
56337.825,53.7343,-1987.7,0,0
56598.15,53.6718,-1977.93,0,0
56858.475,53.7359,-1968.18,0,0
57118.8,53.9399,-1958.75,0,0
57379.125,53.798,-1949.38,0,0
57639.45,53.9251,-1939.91,0,0
57899.775,54.0834,-1930.74,0,0
58160.1,54.0416,-1921.73,0,0
58420.4,53.8962,-1912.43,0,0
58680.7,53.9915,-1903.08,0,0
58941.1,54.3188,-1894.09,0,0
59201.4,54.4049,-1885.2,0,0
59461.7,54.674,-1876.25,0,0
59722,55.0542,-1867.42,0,0
59982.4,55.7334,-1859.07,0,0
60242.7,56.0467,-1850.99,0,0
60503,55.728,-1842.61,0,0
60763.3,56.0016,-1834.02,0,0
61023.7,56.5814,-1825.55,0,0
61284,57.6057,-1817.48,0,0
61544.3,58.5563,-1810.05,0,0
61804.6,59.1434,-1803.47,0,0
62065,58.4754,-1796.92,0,0
62325.3,57.7039,-1789.33,0,0
62585.6,57.7212,-1781.8,0,0
62845.9,57.4579,-1774.84,0,0
63106.3,56.6127,-1767.74,0,0
63366.6,55.8389,-1760.5,0,0
63626.9,55.0623,-1752.6,0,0
63887.2,54.7812,-1745.12,0,0
64147.6,53.9945,-1737.98,0,0
64407.9,53.2719,-1730.39,0,0
64668.2,52.7805,-1722.97,0,0
64928.5,51.9248,-1715.59,0,0
65188.9,50.9908,-1707.6,0,0
65449.2,50.6194,-1699.36,0,0
65709.5,50.7195,-1691.6,0,0
65969.8,50.7314,-1683.94,0,0
66230.2,50.7826,-1676.51,0,0
66490.5,50.9651,-1669.08,0,0
66750.8,50.9022,-1661.73,0,0
67011.1,51.0831,-1654.26,0,0
67271.5,51.544,-1646.95,0,0
67531.8,52.3094,-1639.77,0,0
67792.1,53.0898,-1633.31,0,0
68052.4,53.2762,-1627.19,0,0
68312.8,53.3755,-1620.23,0,0
68573.1,53.7962,-1613.7,0,0
68833.4,54.1706,-1607.6,0,0
69093.7,54.2396,-1601.02,0,0
69354.1,55.0195,-1594.83,0,0
69614.4,55.7166,-1589.3,0,0
69874.7,55.9569,-1584.36,0,0
70135,55.322,-1579.09,0,0
70395.4,54.5435,-1573.56,0,0
70655.7,53.6374,-1567.66,0,0
70916,53.1726,-1561.48,0,0
71176.3,52.9828,-1556.02,0,0
71436.7,51.9776,-1550.57,0,0
71697,50.7883,-1544.81,0,0
71957.3,49.4716,-1538.59,0,0
72217.6,48.3994,-1532.06,0,0
72478,47.7284,-1525.38,0,0
72738.3,47.1425,-1519.01,0,0
72998.6,46.6102,-1512.61,0,0
73258.9,45.9615,-1506.22,0,0
73519.3,45.4865,-1499.51,0,0
73779.6,45.2558,-1492.95,0,0
74039.9,45.1468,-1486.46,0,0
74300.225,45.129,-1479.97,0,0
74560.55,45.2289,-1473.73,0,0
74820.875,45.2446,-1467.51,0,0
75081.2,45.3413,-1461.25,0,0
75341.525,45.6444,-1455,0,0
75601.85,45.954,-1449,0,0
75862.175,46.3484,-1443.06,0,0
76122.5,46.7771,-1437.18,0,0
76382.825,47.0564,-1431.5,0,0
76643.15,47.4425,-1425.67,0,0
76903.475,47.9574,-1419.94,0,0
77163.8,48.5944,-1414.35,0,0
77424.125,49.2323,-1408.9,0,0
77684.45,49.9031,-1403.6,0,0
77944.775,50.5573,-1398.37,0,0
78205.1,51.3189,-1393.38,0,0
78465.425,51.9025,-1388.68,0,0
78725.75,52.5587,-1383.96,0,0
78986.075,53.0282,-1379.7,0,0
79246.4,53.1394,-1375.2,0,0
79506.725,53.5177,-1371.05,0,0
79767.05,53.2116,-1367.18,0,0
80027.375,52.442,-1362.85,0,0
80287.7,51.7764,-1358.25,0,0
80548.025,51.0244,-1353.49,0,0
80808.35,50.5211,-1348.45,0,0
81068.675,50.0744,-1343.47,0,0
81329.0,49.7505,-1338.54,0,0
81589.325,49.3239,-1333.6,0,0
81849.65,48.9613,-1328.57,0,0
82109.975,48.5754,-1323.47,0,0
82370.3,48.3515,-1318.31,0,0
82630.625,48.2608,-1313.25,0,0
82890.95,48.1091,-1308.15,0,0
83151.275,48.2231,-1303.03,0,0
83411.6,48.3466,-1298.01,0,0
83671.925,48.5848,-1293.05,0,0
83932.25,48.8219,-1288.28,0,0
84192.575,49.0493,-1283.7,0,0
84452.9,49.1253,-1279.06,0,0
84713.225,49.2029,-1274.36,0,0
84973.55,49.2888,-1269.66,0,0
85233.875,49.6278,-1264.99,0,0
85494.2,49.8739,-1260.46,0,0
85754.525,50.1902,-1256.01,0,0
86014.85,50.405,-1251.7,0,0
86275.175,50.4844,-1247.44,0,0
86535.5,50.5424,-1242.95,0,0
86795.825,50.764,-1238.42,0,0
87056.15,51.2129,-1234.14,0,0
87316.475,51.6409,-1230.14,0,0
87576.8,51.5846,-1226.38,0,0
87837.125,51.3389,-1222.06,0,0
88097.45,51.3885,-1217.73,0,0
88357.775,51.7573,-1213.63,0,0
88618.1,51.446,-1209.84,0,0
88878.425,51.0459,-1205.5,0,0
89138.75,51.044,-1200.88,0,0
89399.075,51.477,-1196.46,0,0
89659.4,51.8508,-1192.32,0,0
89919.725,52.1978,-1188.4,0,0
90180,52.2033,-1184.75,0,0
90440.4,51.8234,-1180.75,0,0
90700.7,51.6829,-1176.16,0,0
90961,52.2316,-1171.65,0,0
91221.3,52.61,-1167.8,0,0
91481.7,52.7248,-1163.89,0,0
91742,52.9055,-1159.76,0,0
92002.3,53.4076,-1155.51,0,0
92262.6,54.1146,-1151.56,0,0
92523,54.6185,-1147.98,0,0
92783.3,55.0292,-1144.15,0,0
93043.6,55.7083,-1140.64,0,0
93303.9,56.1842,-1137.48,0,0
93564.3,56.4714,-1134.23,0,0
93824.6,56.6259,-1130.93,0,0
94084.9,56.5462,-1127.97,0,0
94345.2,56.1206,-1124.79,0,0
94605.6,55.7475,-1121.05,0,0
94865.9,55.8007,-1117.51,0,0
95126.2,55.3281,-1114.05,0,0
95386.5,54.8507,-1110.05,0,0
95646.9,55.0931,-1105.52,0,0
95907.2,55.9222,-1101.59,0,0
96167.5,56.6637,-1098.31,0,0
96427.8,57.1512,-1095.18,0,0
96688.2,57.4052,-1092.12,0,0
96948.5,57.5405,-1088.93,0,0
97208.8,58.0177,-1085.79,0,0
97469.1,58.2901,-1083.07,0,0
97729.5,58.2449,-1080.41,0,0
97989.8,58.1123,-1077.54,0,0
98250.1,57.9617,-1074.71,0,0
98510.4,57.8996,-1072.02,0,0
98770.8,57.5083,-1069.77,0,0
99031.1,56.4387,-1067.24,0,0
99291.4,55.1826,-1064.34,0,0
99551.7,53.8735,-1061.02,0,0
99812.1,52.7753,-1057.27,0,0
100072,52.0152,-1053.4,0,0
100333,51.674,-1049.62,0,0
100593,51.2739,-1046.26,0,0
100853,50.5046,-1043.05,0,0
101114,49.43,-1039.45,0,0
101374,48.381,-1035.32,0,0
101634,47.9026,-1030.98,0,0
101895,47.8024,-1027.01,0,0
102155,47.5371,-1023.27,0,0
102415,47.0905,-1019.39,0,0
102676,46.709,-1015.43,0,0
102936,46.3186,-1011.35,0,0
103196,46.1082,-1007,0,0
103457,46.1082,-1002.71,0,0
103717,46.2435,-998.318,0,0
103977,46.7987,-993.953,0,0
104238,47.5826,-989.849,0,0
104498,48.3543,-986.126,0,0
104758,48.9716,-982.476,0,0
105019,49.763,-978.745,0,0
105279,50.4957,-975.261,0,0
105539,51.2708,-971.632,0,0
105800,52.3925,-968.094,0,0
106060,53.6885,-965.097,0,0
106320.175,54.6838,-962.389,0,0
106580.5,55.6283,-959.781,0,0
106840.825,56.3062,-957.568,0,0
107101.15,56.5514,-955.159,0,0
107361.475,56.9596,-952.657,0,0
107621.8,57.3082,-950.402,0,0
107882.125,57.2531,-948.347,0,0
108142.45,56.8745,-945.995,0,0
108402.775,56.4451,-943.434,0,0
108663.1,56.0783,-940.857,0,0
108923.425,55.4733,-938.29,0,0
109183.75,54.7028,-935.327,0,0
109444.075,54.1525,-932.229,0,0
109704.4,53.593,-929.145,0,0
109964.725,52.9471,-925.823,0,0
110225.05,52.4614,-922.35,0,0
110485.375,52.1904,-918.788,0,0
110745.7,52.0935,-915.367,0,0
111006.025,52,-911.999,0,0
111266.35,51.8047,-908.515,0,0
111526.675,51.8093,-904.923,0,0
111787.0,51.9094,-901.423,0,0
112047.325,52.0855,-898.086,0,0
112307.65,52.1574,-894.702,0,0
112567.975,52.2396,-891.25,0,0
112828.3,52.4183,-887.769,0,0
113088.625,52.7899,-884.29,0,0
113348.95,53.1268,-880.967,0,0
113609.275,53.4524,-877.5,0,0
113869.6,53.9887,-874.113,0,0
114129.925,54.4796,-870.894,0,0
114390.25,54.9636,-867.708,0,0
114650.575,55.4575,-864.493,0,0
114910.9,56.0644,-861.303,0,0
115171.225,56.6636,-858.071,0,0
115431.55,57.3379,-855.061,0,0
115691.875,57.954,-852.058,0,0
115952.2,58.5335,-849.06,0,0
116212.525,59.2375,-846.03,0,0
116472.85,60.0295,-843.098,0,0
116733.175,60.8111,-840.303,0,0
116993.5,61.5083,-837.568,0,0
117253.825,62.1915,-834.866,0,0
117514.15,62.866,-832.17,0,0
117774.475,63.6093,-829.557,0,0
118034.8,64.3483,-826.988,0,0
118295.125,65.0211,-824.556,0,0
118555.45,65.6623,-822.112,0,0
118815.775,66.2695,-819.771,0,0
119076.1,66.7906,-817.422,0,0
119336.425,67.4162,-814.993,0,0
119596.75,68.1342,-812.901,0,0
119857.075,68.5436,-810.981,0,0
120117.4,68.7235,-808.94,0,0
120377.725,68.9005,-806.899,0,0
120638.05,68.8843,-804.988,0,0
120898.375,68.5701,-802.746,0,0
121158.7,68.4231,-800.3,0,0
121419.025,68.3408,-797.92,0,0
121679.35,68.2009,-795.472,0,0
121939.675,68.0431,-792.997,0,0
122200.0,67.8607,-790.433,0,0
122460,67.681,-787.788,0,0
122721,67.6036,-785.069,0,0
122981,67.5694,-782.392,0,0
123241,67.5267,-779.735,0,0
123502,67.4407,-777.059,0,0
123762,67.3491,-774.337,0,0
124022,67.2641,-771.569,0,0
124283,67.2261,-768.738,0,0
124543,67.1696,-765.887,0,0
124803,67.1469,-762.977,0,0
125064,67.2381,-760.041,0,0
125324,67.3201,-757.081,0,0
125584,67.4511,-754.105,0,0
125845,67.6005,-751.071,0,0
126105,67.9043,-748.047,0,0
126365,68.227,-745.034,0,0
126626,68.6324,-742.124,0,0
126886,69.0415,-739.205,0,0
127146,69.4532,-736.241,0,0
127406,70.0045,-733.298,0,0
127667,70.6269,-730.486,0,0
127927,71.1787,-727.801,0,0
128187,71.7163,-725.097,0,0
128448,72.273,-722.442,0,0
128708,72.8095,-719.823,0,0
128968,73.2593,-717.247,0,0
129229,73.7726,-714.625,0,0
129489,74.2275,-712.02,0,0
129749,74.7135,-709.414,0,0
130010,75.2349,-706.84,0,0
130270,75.7152,-704.412,0,0
130530,76.0717,-701.911,0,0
130791,76.4577,-699.356,0,0
131051,76.8165,-696.845,0,0
131311,77.1436,-694.324,0,0
131572,77.4818,-691.746,0,0
131832,77.7922,-689.213,0,0
132092,78.0937,-686.699,0,0
132353,78.2848,-684.161,0,0
132613,78.4436,-681.561,0,0
132873,78.5742,-678.809,0,0
133134,78.8,-676.025,0,0
133394,79.0285,-673.166,0,0
133654,79.3398,-670.297,0,0
133915,79.674,-667.466,0,0
134175,79.9874,-664.627,0,0
134435,80.3205,-661.698,0,0
134696,80.7851,-658.716,0,0
134956,81.2615,-655.826,0,0
135216,81.7299,-652.979,0,0
135477,82.2007,-650.057,0,0
135737,82.7173,-647.109,0,0
135997,83.149,-644.18,0,0
136258,83.6591,-641.217,0,0
136518,84.2205,-638.238,0,0
136778,84.8055,-635.281,0,0
137039,85.4098,-632.282,0,0
137299,86.0318,-629.364,0,0
137559,86.5703,-626.415,0,0
137819,87.1191,-623.404,0,0
138080,87.6762,-620.317,0,0
138340.125,88.2824,-617.229,0,0
138600.45,88.8723,-614.111,0,0
138860.775,89.4346,-610.917,0,0
139121.1,90.0697,-607.578,0,0
139381.425,90.8003,-604.257,0,0
139641.75,91.5146,-600.867,0,0
139902.075,92.2742,-597.376,0,0
140162.4,93.1301,-593.768,0,0
140422.725,94.1764,-590.081,0,0
140683.05,95.3909,-586.425,0,0
140943.375,96.591,-582.791,0,0
141203.7,97.9124,-579.019,0,0
141464.025,99.4794,-575.201,0,0
141724.35,101.251,-571.48,0,0
141984.675,103.163,-567.849,0,0
142245.0,105.206,-564.32,0,0
142505.325,107.279,-560.864,0,0
142765.65,109.506,-557.491,0,0
143025.975,111.761,-554.328,0,0
143286.3,113.956,-551.207,0,0
143546.625,116.185,-548.067,0,0
143806.95,118.468,-544.927,0,0
144067.275,120.86,-541.825,0,0
144327.6,123.31,-538.762,0,0
144587.925,125.885,-535.751,0,0
144848.25,128.529,-532.816,0,0
145108.575,131.247,-529.948,0,0
145368.9,134.042,-527.232,0,0
145629.225,136.81,-524.595,0,0
145889.55,139.566,-522.011,0,0
146149.875,142.283,-519.385,0,0
146410.2,145.097,-516.669,0,0
146670.525,148.072,-513.939,0,0
146930.85,151.289,-511.254,0,0
147191.175,154.609,-508.686,0,0
147451.5,158.073,-506.199,0,0
147711.825,161.707,-503.854,0,0
147972.15,165.362,-501.676,0,0
148232.475,169.061,-499.496,0,0
148492.8,172.917,-497.252,0,0
148753.125,177.154,-494.953,0,0
149013.45,182.031,-492.818,0,0
149273.775,187.384,-491.357,0,0
149534.1,192.905,-490.617,0,0
149794.425,198.362,-490.607,0,0
150054.75,203.543,-491.112,0,0
150315.075,208.602,-491.983,0,0
150575.4,213.523,-493.419,0,0
150835.725,218.149,-495.429,0,0
151096.05,222.307,-497.984,0,0
151356.375,225.837,-500.876,0,0
151616.7,228.881,-503.975,0,0
151877.025,231.297,-507.398,0,0
152137.35,232.984,-510.814,0,0
152397.675,234.088,-514.101,0,0
152658.0,234.643,-517.274,0,0
152918.325,234.696,-520.14,0,0
153178.65,234.288,-522.771,0,0
153438.975,233.497,-524.966,0,0
153699.3,232.476,-526.794,0,0
153959.625,231.24,-528.25,0,0
154219.95,229.79,-529.212,0,0
154480,228.458,-529.676,0,0
154741,227.224,-529.929,0,0
155001,226.009,-529.957,0,0
155261,224.833,-529.798,0,0
155522,223.792,-529.34,0,0
155782,222.909,-528.777,0,0
156042,222.084,-528.185,0,0
156303,221.26,-527.533,0,0
156563,220.523,-526.744,0,0
156823,219.574,-525.715,0,0
157084,218.965,-524.346,0,0
157344,218.471,-523.187,0,0
157604,218.005,-521.685,0,0
157864,217.93,-520.278,0,0
158125,217.964,-519.104,0,0
158385,217.76,-518.048,0,0
158645,217.318,-516.662,0,0
158906,217.187,-514.957,0,0
159166,217.221,-513.494,0,0
159426,217.076,-511.743,0,0
159687,217.606,-509.589,0,0
159947,218.579,-508.168,0,0
160207,219.216,-506.785,0,0
160468,219.732,-505.331,0,0
160728,220.59,-503.796,0,0
160988,221.807,-502.219,0,0
161249,223.478,-501.009,0,0
161509,225.377,-500.388,0,0
161769,227.136,-500.424,0,0
162030,228.763,-500.88,0,0
162290,230.068,-501.829,0,0
162550,231.329,-503.53,0,0
162811,231.395,-506.146,0,0
163071,229.719,-508.684,0,0
163331,226.985,-510.196,0,0
163592,223.984,-510.596,0,0
163852,221.187,-510.275,0,0
164112,218.54,-509.91,0,0
164373,215.375,-509.239,0,0
164633,212.204,-507.811,0,0
164893,209.155,-505.883,0,0
165154,206.208,-503.731,0,0
165414,203.036,-501.059,0,0
165674,200.094,-497.821,0,0
165935,197.727,-494.097,0,0
166195,195.705,-490.054,0,0
166455,194.181,-486.054,0,0
166716,192.868,-482.105,0,0
166976,191.716,-478.099,0,0
167236,190.737,-474.06,0,0
167497,189.843,-470.029,0,0
167757,188.957,-465.884,0,0
168017,188.096,-461.545,0,0
168277,187.464,-456.788,0,0
168538,187.391,-451.875,0,0
168798,187.571,-447.039,0,0
169058,188.031,-442.375,0,0
169319,188.7,-437.803,0,0
169579,189.431,-433.415,0,0
169839,190.133,-428.995,0,0
170100,190.962,-424.642,0,0
170360.075,191.716,-420.352,0,0
170620.4,192.231,-415.887,0,0
170880.725,192.983,-410.844,0,0
171141.05,194.149,-405.662,0,0
171401.375,195.729,-400.581,0,0
171661.7,197.461,-395.604,0,0
171922.025,199.341,-390.739,0,0
172182.35,201.257,-385.9,0,0
172442.675,203.23,-380.67,0,0
172703.0,205.711,-375.421,0,0
172963.325,208.51,-370.35,0,0
173223.65,211.365,-365.335,0,0
173483.975,214.484,-360.327,0,0
173744.3,217.812,-355.357,0,0
174004.625,221.397,-350.416,0,0
174264.95,225.19,-345.457,0,0
174525.275,229.41,-340.507,0,0
174785.6,234.193,-335.689,0,0
175045.925,239.412,-331.421,0,0
175306.25,244.762,-327.838,0,0
175566.575,249.872,-324.535,0,0
175826.9,254.892,-321.274,0,0
176087.225,259.937,-318.031,0,0
176347.55,265.325,-314.69,0,0
176607.875,271.332,-311.574,0,0
176868.2,277.97,-309.154,0,0
177128.525,284.755,-307.959,0,0
177388.85,290.975,-307.691,0,0
177649.175,296.492,-308.06,0,0
177909.5,301.077,-308.763,0,0
178169.825,304.342,-308.358,0,0
178430.15,308.311,-308.108,0,0
178690.475,312.363,-307.925,0,0
178950.8,316.196,-308.229,0,0
179211.125,319.466,-308.719,0,0
179471.45,322.199,-309.363,0,0
179731.775,324.237,-309.874,0,0
179992.1,325.588,-310,0,0
180252.425,326.393,-309.526,0,0
180512.75,326.758,-308.154,0,0
180773.075,327.234,-305.916,0,0
181033.4,328.086,-302.946,0,0
181293.725,329.371,-299.455,0,0
181554.05,331.131,-295.707,0,0
181814.375,333.019,-291.668,0,0
182074.7,335.183,-287.187,0,0
182335.025,338.129,-282.118,0,0
182595.35,342.014,-277.17,0,0
182855.675,346.436,-272.559,0,0
183116.0,350.897,-268.373,0,0
183376.325,355.321,-264.171,0,0
183636.65,359.954,-259.579,0,0
183896.975,365.081,-254.687,0,0
184157.3,370.78,-249.839,0,0
184417.625,377.063,-245.115,0,0
184677.95,383.93,-240.579,0,0
184938.275,391.381,-236.332,0,0
185198.6,399.235,-232.543,0,0
185458.925,407.525,-229.124,0,0
185719.25,416.326,-226.375,0,0
185979.575,425.281,-224.524,0,0
186239.9,433.733,-223.602,0,0
186500,441.266,-222.896,0,0
186761,448.403,-221.729,0,0
187021,455.633,-219.655,0,0
187281,463.974,-217.321,0,0
187542,473.342,-215.84,0,0
187802,482.732,-215.488,0,0
188062,491.541,-215.922,0,0
188322,499.526,-216.432,0,0
188583,507.108,-216.504,0,0
188843,514.933,-215.96,0,0
189103,523.345,-215.417,0,0
189364,531.726,-215.155,0,0
189624,540.247,-214.579,0,0
189884,549.114,-213.887,0,0
190145,558.554,-213.044,0,0
190405,568.693,-212.374,0,0
190665,579.372,-211.95,0,0
190926,590.871,-211.728,0,0
191186,603.233,-212.411,0,0
191446,615.812,-214.059,0,0
191707,628.337,-216.415,0,0
191967,640.967,-219.193,0,0
192227,653.927,-222.283,0,0
192488,667.595,-226.048,0,0
192748,681.748,-231.001,0,0
193008,695.9,-237.303,0,0
193269,709.885,-244.828,0,0
193529,723.148,-253.587,0,0
193789,735.637,-263.032,0,0
194050,747.705,-273.077,0,0
194310,758.919,-283.865,0,0
194570,769.349,-294.724,0,0
194831,779.572,-305.732,0,0
195091,789.722,-317.218,0,0
195351,799.513,-329.619,0,0
195612,808.509,-342.58,0,0
195872,816.528,-355.843,0,0
196132,823.962,-368.985,0,0
196393,831.267,-382.222,0,0
196653,838.371,-395.948,0,0
196913,845.04,-410.248,0,0
197174,851.024,-425.123,0,0
197434,855.987,-440.469,0,0
197694,859.952,-455.507,0,0
197955,863.62,-470.064,0,0
198215,867.818,-484.766,0,0
198475,871.749,-500.742,0,0
198735,874.585,-517.601,0,0
198996,876.142,-534.749,0,0
199256,876.512,-551.933,0,0
199516,875.822,-568.878,0,0
199777,874.616,-585.24,0,0
200037,873.016,-601.768,0,0
200297,870.784,-618.604,0,0
200558,867.134,-635.558,0,0
200818,862.968,-652.277,0,0
201078,857.649,-669.091,0,0
201339,850.755,-685.836,0,0
201599,842.533,-701.65,0,0
201859,833.34,-716.113,0,0
202120,823.784,-729.951,0,0
202380.025,813.705,-743.086,0,0
202640.35,802.581,-755.483,0,0
202900.675,790.745,-766.312,0,0
203161.0,778.953,-775.443,0,0
203421.325,767.437,-783.826,0,0
203681.65,756.238,-791.362,0,0
203941.975,745.177,-798.267,0,0
204202.3,734.494,-804.318,0,0
204462.625,724.639,-809.801,0,0
204722.95,714.933,-815.661,0,0
204983.275,705.027,-821.756,0,0
205243.6,694.443,-827.335,0,0
205503.925,683.239,-832.31,0,0
205764.25,672.147,-835.788,0,0
206024.575,661.627,-838.487,0,0
206284.9,651.594,-840.732,0,0
206545.225,641.941,-842.477,0,0
206805.55,632.736,-843.961,0,0
207065.875,624.126,-845.201,0,0
207326.2,615.713,-846.327,0,0
207586.525,607.329,-847.275,0,0
207846.85,599.201,-847.701,0,0
208107.175,591.814,-847.501,0,0
208367.5,585.596,-847.389,0,0
208627.825,579.886,-848.034,0,0
208888.15,574.263,-849.325,0,0
209148.475,568.429,-851.042,0,0
209408.8,562.305,-853.002,0,0
209669.125,555.782,-855.113,0,0
209929.45,548.63,-857.162,0,0
210189.775,541.277,-858.818,0,0
210450.1,533.6,-860.14,0,0
210710.425,525.832,-861.12,0,0
210970.75,517.794,-861.694,0,0
211231.075,509.579,-861.762,0,0
211491.4,501.291,-861.023,0,0
211751.725,493.351,-859.481,0,0
212012.05,486.063,-857.303,0,0
212272.375,479.442,-854.982,0,0
212532.7,473.564,-852.554,0,0
212793.025,467.898,-850.403,0,0
213053.35,462.316,-848.155,0,0
213313.675,457.081,-845.788,0,0
213574.0,452.189,-843.403,0,0
213834.325,447.597,-841.142,0,0
214094.65,443.081,-838.985,0,0
214354.975,438.726,-836.757,0,0
214615.3,434.647,-834.568,0,0
214875.625,430.632,-832.654,0,0
215135.95,426.601,-830.654,0,0
215396.275,422.647,-828.538,0,0
215656.6,418.591,-826.294,0,0
215916.925,414.839,-823.85,0,0
216177.25,411.306,-821.403,0,0
216437.575,407.956,-818.933,0,0
216697.9,404.795,-816.442,0,0
216958.225,401.773,-813.886,0,0
217218.55,399.07,-811.306,0,0
217478.875,396.584,-808.719,0,0
217739.2,394.271,-806.291,0,0
217999.525,392.122,-803.999,0,0
218259.85,390.019,-801.699,0,0
218520,388.108,-799.425,0,0
218780,386.407,-797.2,0,0
219041,384.874,-795.13,0,0
219301,383.395,-793.114,0,0
219561,382.051,-791.141,0,0
219822,380.888,-789.276,0,0
220082,379.886,-787.669,0,0
220342,378.841,-786.086,0,0
220603,377.734,-784.574,0,0
220863,376.744,-782.87,0,0
221123,376.057,-781.3,0,0
221384,375.572,-779.861,0,0
221644,375.287,-778.573,0,0
221904,375.115,-777.447,0,0
222165,375.173,-776.609,0,0
222425,375.3,-776.162,0,0
222685,375.328,-775.989,0,0
222946,375.42,-776.043,0,0
223206,375.309,-776.405,0,0
223466,375.033,-777.008,0,0
223727,374.595,-777.737,0,0
223987,373.808,-778.551,0,0
224247,372.897,-779.365,0,0
224508,371.874,-780.085,0,0
224768,370.76,-780.824,0,0
225028,369.639,-781.662,0,0
225289,368.29,-782.383,0,0
225549,367.052,-782.887,0,0
225809,366.035,-783.449,0,0
226070,365.052,-784.087,0,0
226330,364.059,-784.994,0,0
226590,363.043,-786.029,0,0
226851,361.864,-787.17,0,0
227111,360.676,-788.416,0,0
227371,359.315,-789.635,0,0
227632,357.961,-791.135,0,0
227892,356.573,-792.678,0,0
228152,354.956,-794.3,0,0
228413,353.172,-796.22,0,0
228673,351.265,-798.082,0,0
228933,349.061,-800.111,0,0
229193,346.566,-802.056,0,0
229454,343.888,-804.063,0,0
229714,340.894,-805.937,0,0
229974,337.616,-807.749,0,0
230235,334.214,-809.29,0,0
230495,330.611,-810.739,0,0
230755,326.92,-812.002,0,0
231016,323.013,-813.075,0,0
231276,319.043,-813.911,0,0
231536,314.967,-814.507,0,0
231797,311.071,-814.84,0,0
232057,307.164,-815.137,0,0
232317,303.194,-815.25,0,0
232578,299.266,-815.283,0,0
232838,295.353,-815.227,0,0
233098,291.368,-815.008,0,0
233359,287.363,-814.584,0,0
233619,283.514,-814.008,0,0
233879,279.742,-813.334,0,0
234140,276.02,-812.615,0,0
234400,272.333,-811.917,0,0
234660.3,268.678,-811.056,0,0
234920.625,264.836,-810.285,0,0
235180.95,261.165,-809.218,0,0
235441.275,257.474,-808.096,0,0
235701.6,253.819,-806.83,0,0
235961.925,250.264,-805.412,0,0
236222.25,246.859,-803.918,0,0
236482.575,243.498,-802.411,0,0
236742.9,240.235,-800.86,0,0
237003.225,236.865,-799.316,0,0
237263.55,233.551,-797.659,0,0
237523.875,230.35,-795.843,0,0
237784.2,227.204,-793.926,0,0
238044.525,224.262,-791.963,0,0
238304.85,221.358,-790.017,0,0
238565.175,218.571,-788.065,0,0
238825.5,215.801,-786.123,0,0
239085.825,213.052,-784.164,0,0
239346.15,210.39,-782.113,0,0
239606.475,207.822,-780.033,0,0
239866.8,205.244,-777.922,0,0
240127.125,202.779,-775.833,0,0
240387.45,200.35,-773.646,0,0
240647.775,198.021,-771.433,0,0
240908.1,195.726,-769.187,0,0
241168.425,193.599,-766.966,0,0
241428.75,191.524,-764.784,0,0
241689.075,189.573,-762.535,0,0
241949.4,187.657,-760.39,0,0
242209.725,185.725,-758.238,0,0
242470.05,183.878,-756.066,0,0
242730.375,182.129,-753.965,0,0
242990.7,180.48,-751.884,0,0
243251.025,178.803,-749.845,0,0
243511.35,177.255,-747.864,0,0
243771.675,175.652,-746.029,0,0
244032.0,174.056,-744.236,0,0
244292.325,172.394,-742.478,0,0
244552.65,170.617,-740.819,0,0
244812.975,168.915,-738.979,0,0
245073.3,167.096,-737.185,0,0
245333.625,165.304,-735.408,0,0
245593.95,163.628,-733.769,0,0
245854.275,161.735,-732.083,0,0
246114.6,159.81,-730.397,0,0
246374.925,157.659,-728.731,0,0
246635.25,155.409,-726.852,0,0
246895.575,152.988,-724.826,0,0
247155.9,150.635,-722.532,0,0
247416.225,148.351,-720.015,0,0
247676.55,146.276,-717.361,0,0
247936.875,144.293,-714.673,0,0
248197.2,142.44,-711.932,0,0
248457.525,140.577,-709.178,0,0
248717.85,138.754,-706.273,0,0
248978.175,137.118,-703.297,0,0
249238.5,135.567,-700.273,0,0
249498.825,134.14,-697.232,0,0
249759.15,132.857,-694.112,0,0
250019.475,131.694,-690.929,0,0
250279.8,130.56,-687.818,0,0
250540,129.591,-684.661,0,0
250800,128.717,-681.548,0,0
251061,127.934,-678.401,0,0
251321,127.28,-675.369,0,0
251581,126.631,-672.27,0,0
251842,126.106,-669.167,0,0
252102,125.591,-666.073,0,0
252362,125.239,-662.979,0,0
252623,124.925,-659.902,0,0
252883,124.78,-656.816,0,0
253143,124.676,-653.82,0,0
253404,124.657,-650.812,0,0
253664,124.718,-647.842,0,0
253924,124.857,-644.866,0,0
254185,125.053,-641.936,0,0
254445,125.319,-639.01,0,0
254705,125.712,-636.125,0,0
254966,126.178,-633.248,0,0
255226,126.714,-630.349,0,0
255486,127.452,-627.547,0,0
255747,128.264,-624.836,0,0
256007,129.183,-622.199,0,0
256267,130.109,-619.693,0,0
256528,131.101,-617.22,0,0
256788,132.156,-614.768,0,0
257048,133.308,-612.412,0,0
257309,134.539,-610.105,0,0
257569,135.837,-607.94,0,0
257829,137.196,-605.902,0,0
258090,138.568,-603.974,0,0
258350,139.881,-602.124,0,0
258610,141.247,-600.298,0,0
258871,142.603,-598.534,0,0
259131,144.028,-596.767,0,0
259391,145.577,-595.101,0,0
259651,147.165,-593.507,0,0
259912,148.833,-591.954,0,0
260172,150.577,-590.644,0,0
260432,152.356,-589.37,0,0
260693,154.109,-588.231,0,0
260953,155.904,-587.207,0,0
261213,157.784,-586.338,0,0
261474,159.689,-585.609,0,0
261734,161.567,-585.104,0,0
261994,163.418,-584.804,0,0
262255,165.144,-584.665,0,0
262515,166.76,-584.693,0,0
262775,168.25,-584.783,0,0
263036,169.627,-584.941,0,0
263296,170.912,-585.256,0,0
263556,172.143,-585.655,0,0
263817,173.196,-586.133,0,0
264077,174.106,-586.746,0,0
264337,174.828,-587.376,0,0
264598,175.319,-588.082,0,0
264858,175.616,-588.725,0,0
265118,175.674,-589.349,0,0
265379,175.569,-589.859,0,0
265639,175.284,-590.156,0,0
265899,174.877,-590.306,0,0
266160,174.502,-590.212,0,0
266420,174.166,-589.946,0,0
266680.25,173.919,-589.562,0,0
266940.575,173.735,-589.147,0,0
267200.9,173.601,-588.693,0,0
267461.225,173.525,-588.291,0,0
267721.55,173.384,-587.831,0,0
267981.875,173.213,-587.344,0,0
268242.2,173.042,-586.79,0,0
268502.525,172.805,-586.167,0,0
268762.85,172.553,-585.459,0,0
269023.175,172.261,-584.516,0,0
269283.5,172.001,-583.37,0,0
269543.825,171.965,-582.045,0,0
269804.15,172.138,-580.585,0,0
270064.475,172.59,-579.019,0,0
270324.8,173.242,-577.401,0,0
270585.125,174.212,-575.882,0,0
270845.45,175.371,-574.502,0,0
271105.775,176.757,-573.189,0,0
271366.1,178.276,-572.023,0,0
271626.425,179.944,-571.045,0,0
271886.75,181.714,-570.192,0,0
272147.075,183.559,-569.46,0,0
272407.4,185.509,-568.815,0,0
272667.725,187.622,-568.258,0,0
272928.05,189.921,-567.921,0,0
273188.375,192.422,-567.713,0,0
273448.7,195.148,-567.768,0,0
273709.025,198.086,-568.187,0,0
273969.35,201.184,-569.065,0,0
274229.675,204.279,-570.512,0,0
274490.0,207.297,-572.444,0,0
274750.325,210.005,-574.974,0,0
275010.65,212.42,-577.878,0,0
275270.975,214.428,-581.16,0,0
275531.3,215.998,-584.731,0,0
275791.625,217.125,-588.547,0,0
276051.95,217.743,-592.59,0,0
276312.275,217.767,-596.703,0,0
276572.6,217.183,-600.792,0,0
276832.925,216.061,-604.666,0,0
277093.25,214.496,-608.276,0,0
277353.575,212.578,-611.536,0,0
277613.9,210.434,-614.448,0,0
277874.225,208.062,-617.079,0,0
278134.55,205.571,-619.364,0,0
278394.875,203.022,-621.346,0,0
278655.2,200.485,-623.065,0,0
278915.525,197.963,-624.572,0,0
279175.85,195.451,-625.936,0,0
279436.175,192.951,-627.156,0,0
279696.5,190.462,-628.251,0,0
279956.825,187.914,-629.267,0,0
280217.15,185.418,-630.187,0,0
280477.475,182.851,-631.011,0,0
280737.8,180.242,-631.741,0,0
280998.125,177.588,-632.351,0,0
281258.45,174.922,-632.881,0,0
281518.775,172.209,-633.307,0,0
281779.1,169.434,-633.676,0,0
282039.425,166.538,-633.932,0,0
282299.75,163.514,-634.054,0,0
282560,160.379,-633.938,0,0
282820,157.139,-633.539,0,0
283081,153.885,-632.776,0,0
283341,150.77,-631.635,0,0
283601,147.926,-630.181,0,0
283862,145.462,-628.533,0,0
284122,143.398,-626.939,0,0
284382,141.567,-625.551,0,0
284643,139.784,-624.443,0,0
284903,137.777,-623.486,0,0
285163,135.57,-622.491,0,0
285424,133.183,-621.271,0,0
285684,130.796,-619.883,0,0
285944,128.415,-618.266,0,0
286205,126.025,-616.516,0,0
286465,123.614,-614.537,0,0
286725,121.227,-612.266,0,0
286986,118.992,-609.727,0,0
287246,116.903,-606.9,0,0
287506,115.025,-603.782,0,0
287767,113.453,-600.377,0,0
288027,112.252,-596.766,0,0
288287,111.48,-592.983,0,0
288548,111.147,-589.132,0,0
288808,111.292,-585.272,0,0
289068,111.906,-581.483,0,0
289329,113.01,-577.801,0,0
289589,114.61,-574.322,0,0
289849,116.718,-571.192,0,0
290109,119.261,-568.565,0,0
290370,122.068,-566.465,0,0
290630,125.028,-565.011,0,0
290890,127.962,-564.189,0,0
291151,130.703,-563.843,0,0
291411,133.223,-563.909,0,0
291671,135.537,-564.309,0,0
291932,137.615,-564.97,0,0
292192,139.522,-565.898,0,0
292452,141.203,-567.097,0,0
292713,142.583,-568.622,0,0
292973,143.538,-570.427,0,0
293233,143.98,-572.377,0,0
293494,143.819,-574.259,0,0
293754,143.168,-575.89,0,0
294014,142.126,-577.115,0,0
294275,140.874,-577.856,0,0
294535,139.645,-578.059,0,0
294795,138.685,-577.793,0,0
295056,138.139,-577.261,0,0
295316,138.112,-576.707,0,0
295576,138.528,-576.376,0,0
295837,139.288,-576.464,0,0
296097,140.121,-577.076,0,0
296357,140.794,-578.246,0,0
296618,141.074,-579.832,0,0
296878,140.871,-581.679,0,0
297138,140.113,-583.549,0,0
297399,138.835,-585.264,0,0
297659,137.206,-586.652,0,0
297919,135.375,-587.667,0,0
298180,133.483,-588.33,0,0
298440,131.643,-588.753,0,0
298700.2,129.872,-588.97,0,0
298960.525,128.195,-589.068,0,0
299220.85,126.551,-589.097,0,0
299481.175,124.927,-589.064,0,0
299741.5,123.295,-588.958,0,0
300001.825,121.668,-588.769,0,0
300262.15,120.027,-588.461,0,0
300522.475,118.435,-588.039,0,0
300782.8,116.883,-587.496,0,0
301043.125,115.426,-586.854,0,0
301303.45,114.046,-586.122,0,0
301563.775,112.787,-585.295,0,0
301824.1,111.706,-584.441,0,0
302084.425,110.802,-583.606,0,0
302344.75,110.051,-582.874,0,0
302605.075,109.383,-582.29,0,0
302865.4,108.732,-581.86,0,0
303125.725,108.072,-581.579,0,0
303386.05,107.311,-581.431,0,0
303646.375,106.451,-581.359,0,0
303906.7,105.454,-581.336,0,0
304167.025,104.344,-581.303,0,0
304427.35,103.103,-581.259,0,0
304687.675,101.771,-581.179,0,0
304948.0,100.299,-581.054,0,0
305208.325,98.6971,-580.836,0,0
305468.65,97.0083,-580.456,0,0
305728.975,95.313,-579.92,0,0
305989.3,93.6175,-579.243,0,0
306249.625,91.9439,-578.447,0,0
306509.95,90.279,-577.525,0,0
306770.275,88.7178,-576.512,0,0
307030.6,87.1997,-575.401,0,0
307290.925,85.7914,-574.213,0,0
307551.25,84.4621,-572.984,0,0
307811.575,83.2181,-571.728,0,0
308071.9,82.0326,-570.47,0,0
308332.225,80.9227,-569.219,0,0
308592.55,79.8325,-567.959,0,0
308852.875,78.7769,-566.685,0,0
309113.2,77.7901,-565.389,0,0
309373.525,76.8271,-564.122,0,0
309633.85,75.9021,-562.8,0,0
309894.175,75.0098,-561.496,0,0
310154.5,74.135,-560.168,0,0
310414.825,73.305,-558.839,0,0
310675.15,72.4967,-557.482,0,0
310935.475,71.7669,-556.113,0,0
311195.8,71.0688,-554.728,0,0
311456.125,70.4293,-553.348,0,0
311716.45,69.8591,-551.983,0,0
311976.775,69.3405,-550.635,0,0
312237.1,68.8553,-549.332,0,0
312497.425,68.3904,-548.042,0,0
312757.75,67.9395,-546.792,0,0
313018.075,67.5025,-545.569,0,0
313278.4,67.0698,-544.346,0,0
313538.725,66.6512,-543.138,0,0
313799.05,66.2573,-541.92,0,0
314059.375,65.8818,-540.731,0,0
314319.7,65.5484,-539.541,0,0
314580,65.1527,-538.414,0,0
314840,64.8618,-537.217,0,0
315101,64.4776,-536.09,0,0
315361,64.2563,-535.007,0,0
315621,63.916,-533.868,0,0
315882,63.6213,-532.756,0,0
316142,63.33,-531.617,0,0
316402,63.0805,-530.501,0,0
316663,62.8363,-529.357,0,0
316923,62.6247,-528.212,0,0
317183,62.369,-527.212,0,0
317444,62.196,-526.155,0,0
317704,62.0616,-525.082,0,0
317964,61.8658,-524.064,0,0
318225,61.7909,-523.095,0,0
318485,61.6137,-522.104,0,0
318745,61.3835,-521.163,0,0
319006,61.2817,-520.256,0,0
319266,61.0385,-519.358,0,0
319526,60.8246,-518.473,0,0
319787,60.6603,-517.641,0,0
320047,60.4126,-516.699,0,0
320307,60.1325,-515.795,0,0
320567,59.9294,-514.933,0,0
320828,59.6594,-513.916,0,0
321088,59.3566,-512.996,0,0
321348,59.1055,-512.103,0,0
321609,58.8399,-511.131,0,0
321869,58.5729,-510.184,0,0
322129,58.2986,-509.224,0,0
322390,58.0296,-508.241,0,0
322650,57.7456,-507.276,0,0
322910,57.3762,-506.235,0,0
323171,57.0644,-505.169,0,0
323431,56.7629,-504.039,0,0
323691,56.4778,-502.785,0,0
323952,56.2873,-501.511,0,0
324212,56.0746,-500.193,0,0
324472,56.0482,-498.833,0,0
324733,56.0821,-497.43,0,0
324993,56.1417,-496.078,0,0
325253,56.3897,-494.692,0,0
325514,56.7784,-493.4,0,0
325774,57.284,-492.187,0,0
326034,57.8037,-490.943,0,0
326295,58.4227,-490,0,0
326555,59.0545,-489.149,0,0
326815,59.713,-488.324,0,0
327076,60.2659,-487.716,0,0
327336,60.79,-487.159,0,0
327596,61.2772,-486.703,0,0
327857,61.5955,-486.257,0,0
328117,61.905,-485.786,0,0
328377,62.2199,-485.361,0,0
328638,62.4973,-484.905,0,0
328898,62.7206,-484.499,0,0
329158,62.9991,-484.087,0,0
329419,63.2235,-483.727,0,0
329679,63.4299,-483.364,0,0
329939,63.539,-483.101,0,0
330200,63.7279,-482.721,0,0
330460,63.8145,-482.443,0,0
330720.15,63.9073,-482.185,0,0
330980.475,63.9639,-481.951,0,0
331240.8,63.9691,-481.702,0,0
331501.125,63.9679,-481.56,0,0
331761.45,63.8777,-481.389,0,0
332021.775,63.7231,-481.202,0,0
332282.1,63.4726,-481.091,0,0
332542.425,63.286,-480.84,0,0
332802.75,62.8895,-480.65,0,0
333063.075,62.4994,-480.328,0,0
333323.4,62.061,-480.016,0,0
333583.725,61.6309,-479.613,0,0
333844.05,61.1172,-479.178,0,0
334104.375,60.6637,-478.643,0,0
334364.7,60.2235,-478.122,0,0
334625.025,59.6852,-477.521,0,0
334885.35,59.2479,-476.856,0,0
335145.675,58.841,-476.18,0,0
335406.0,58.4811,-475.476,0,0
335666.325,58.1197,-474.785,0,0
335926.65,57.6902,-474.08,0,0
336186.975,57.3608,-473.276,0,0
336447.3,56.9811,-472.5,0,0
336707.625,56.6502,-471.664,0,0
336967.95,56.3474,-470.838,0,0
337228.275,56.0876,-469.957,0,0
337488.6,55.8174,-469.086,0,0
337748.925,55.6542,-468.176,0,0
338009.25,55.4702,-467.315,0,0
338269.575,55.3278,-466.438,0,0
338529.9,55.1893,-465.512,0,0
338790.225,55.1137,-464.695,0,0
339050.55,54.9919,-463.811,0,0
339310.875,54.8841,-462.892,0,0
339571.2,54.916,-462.052,0,0
339831.525,54.8744,-461.2,0,0
340091.85,54.8725,-460.361,0,0
340352.175,54.9178,-459.524,0,0
340612.5,54.8974,-458.68,0,0
340872.825,54.9288,-457.854,0,0
341133.15,54.9641,-457.007,0,0
341393.475,55.057,-456.242,0,0
341653.8,55.1205,-455.394,0,0
341914.125,55.1716,-454.552,0,0
342174.45,55.2971,-453.798,0,0
342434.775,55.4261,-452.976,0,0
342695.1,55.565,-452.179,0,0
342955.425,55.7139,-451.417,0,0
343215.75,55.898,-450.668,0,0
343476.075,56.0441,-449.884,0,0
343736.4,56.2185,-449.168,0,0
343996.725,56.4072,-448.483,0,0
344257.05,56.5837,-447.751,0,0
344517.375,56.8012,-447.064,0,0
344777.7,57.0467,-446.375,0,0
345038.025,57.2615,-445.722,0,0
345298.35,57.4075,-445.047,0,0
345558.675,57.6746,-444.461,0,0
345819.0,57.9294,-443.758,0,0
346079.325,58.1494,-443.141,0,0
346339.65,58.372,-442.577,0,0
346599.975,58.6342,-441.983,0,0
346860,58.8319,-441.362,0,0
347121,59.0966,-440.822,0,0
347381,59.3717,-440.256,0,0
347641,59.6107,-439.693,0,0
347902,59.8038,-439.189,0,0
348162,60.0945,-438.61,0,0
348422,60.3422,-438.052,0,0
348683,60.611,-437.52,0,0
348943,60.8479,-436.949,0,0
349203,61.1752,-436.448,0,0
349464,61.5093,-435.951,0,0
349724,61.8459,-435.502,0,0
349984,62.2022,-435.005,0,0
350245,62.6004,-434.652,0,0
350505,62.9121,-434.285,0,0
350765,63.2391,-433.975,0,0
351025,63.5334,-433.662,0,0
351286,63.8264,-433.407,0,0
351546,64.0369,-433.16,0,0
351806,64.2711,-432.873,0,0
352067,64.5076,-432.572,0,0
352327,64.6589,-432.348,0,0
352587,64.7993,-432.086,0,0
352848,64.9682,-431.856,0,0
353108,65.113,-431.532,0,0
353368,65.2654,-431.286,0,0
353629,65.3817,-430.971,0,0
353889,65.5041,-430.733,0,0
354149,65.669,-430.446,0,0
354410,65.7667,-430.167,0,0
354670,65.9089,-429.939,0,0
354930,65.9474,-429.611,0,0
355191,66.0965,-429.316,0,0
355451,66.1969,-428.982,0,0
355711,66.2949,-428.692,0,0
355972,66.4295,-428.44,0,0
356232,66.5892,-428.115,0,0
356492,66.6955,-427.751,0,0
356753,66.9077,-427.452,0,0
357013,67.0316,-427.158,0,0
357273,67.2598,-426.889,0,0
357534,67.5121,-426.593,0,0
357794,67.6865,-426.344,0,0
358054,67.9402,-426.113,0,0
358315,68.1925,-425.893,0,0
358575,68.4763,-425.741,0,0
358835,68.7718,-425.644,0,0
359096,69.027,-425.647,0,0
359356,69.2764,-425.616,0,0
359616,69.4795,-425.685,0,0
359877,69.6172,-425.803,0,0
360137,69.7069,-425.867,0,0
360397,69.7605,-426.017,0,0
360658,69.7012,-426.097,0,0
360918,69.6277,-426.233,0,0
361178,69.5929,-426.344,0,0
361438,69.4286,-426.421,0,0
361699,69.2644,-426.506,0,0
361959,69.0552,-426.579,0,0
362219,68.8173,-426.612,0,0
362480,68.5804,-426.627,0,0
362740.1,68.35,-426.598,0,0
363000.425,68.0133,-426.624,0,0
363260.75,67.7185,-426.548,0,0
363521.075,67.3503,-426.515,0,0
363781.4,66.9606,-426.443,0,0
364041.725,66.6149,-426.32,0,0
364302.05,66.2408,-426.179,0,0
364562.375,65.8399,-425.995,0,0
364822.7,65.4102,-425.742,0,0
365083.025,65.0263,-425.505,0,0
365343.35,64.6392,-425.226,0,0
365603.675,64.2662,-424.93,0,0
365864.0,63.8289,-424.567,0,0
366124.325,63.4597,-424.198,0,0
366384.65,63.1421,-423.762,0,0
366644.975,62.8,-423.31,0,0
366905.3,62.5524,-422.844,0,0
367165.625,62.3541,-422.37,0,0
367425.95,62.1134,-421.888,0,0
367686.275,61.9652,-421.433,0,0
367946.6,61.8644,-420.974,0,0
368206.925,61.764,-420.566,0,0
368467.25,61.7653,-420.174,0,0
368727.575,61.7107,-419.814,0,0
368987.9,61.6515,-419.51,0,0
369248.225,61.6131,-419.3,0,0
369508.55,61.4888,-419.005,0,0
369768.875,61.3581,-418.881,0,0
370029.2,61.2102,-418.634,0,0
370289.525,60.9673,-418.453,0,0
370549.85,60.7918,-418.223,0,0
370810.175,60.5681,-417.985,0,0
371070.5,60.3179,-417.67,0,0
371330.825,60.084,-417.416,0,0
371591.15,59.903,-417.161,0,0
371851.475,59.6523,-416.846,0,0
372111.8,59.4416,-416.612,0,0
372372.125,59.207,-416.309,0,0
372632.45,58.9668,-416.019,0,0
372892.775,58.7364,-415.753,0,0
373153.1,58.4581,-415.473,0,0
373413.425,58.2025,-415.21,0,0
373673.75,57.9247,-414.899,0,0
373934.075,57.66,-414.61,0,0
374194.4,57.3735,-414.305,0,0
374454.725,57.1344,-413.956,0,0
374715.05,56.7814,-413.706,0,0
374975.375,56.4637,-413.372,0,0
375235.7,56.1336,-413.034,0,0
375496.025,55.8432,-412.67,0,0
375756.35,55.5208,-412.291,0,0
376016.675,55.1651,-411.837,0,0
376277.0,54.8904,-411.383,0,0
376537.325,54.6744,-410.908,0,0
376797.65,54.4338,-410.519,0,0
377057.975,54.2929,-410.133,0,0
377318.3,54.1222,-409.789,0,0
377578.625,53.9142,-409.482,0,0
377838.95,53.6898,-409.218,0,0
378099.275,53.4321,-408.981,0,0
378359.6,53.0768,-408.769,0,0
378619.925,52.7007,-408.535,0,0
378880,52.1794,-408.234,0,0
379141,51.6234,-407.883,0,0
379401,51.0288,-407.458,0,0
379661,50.4297,-406.898,0,0
379922,49.9256,-406.257,0,0
380182,49.3947,-405.459,0,0
380442,49.0368,-404.603,0,0
380703,48.7587,-403.742,0,0
380963,48.6762,-402.915,0,0
381223,48.6895,-402.13,0,0
381483,48.7352,-401.469,0,0
381744,48.7952,-400.936,0,0
382004,48.8439,-400.487,0,0
382264,48.8635,-400.127,0,0
382525,48.7626,-399.727,0,0
382785,48.6384,-399.411,0,0
383045,48.5005,-399.054,0,0
383306,48.2734,-398.686,0,0
383566,48.0277,-398.337,0,0
383826,47.7983,-397.909,0,0
384087,47.5433,-397.446,0,0
384347,47.3025,-397.002,0,0
384607,46.9896,-396.557,0,0
384868,46.758,-396.1,0,0
385128,46.4983,-395.605,0,0
385388,46.2148,-395.098,0,0
385649,45.9328,-394.635,0,0
385909,45.6441,-394.065,0,0
386169,45.3278,-393.54,0,0
386430,44.9874,-392.946,0,0
386690,44.706,-392.361,0,0
386950,44.4477,-391.712,0,0
387211,44.1817,-391.094,0,0
387471,43.934,-390.399,0,0
387731,43.7052,-389.696,0,0
387992,43.5624,-388.994,0,0
388252,43.3745,-388.247,0,0
388512,43.2558,-387.449,0,0
388773,43.1497,-386.747,0,0
389033,43.1513,-386.018,0,0
389293,43.1254,-385.301,0,0
389554,43.174,-384.585,0,0
389814,43.2346,-383.919,0,0
390074,43.3588,-383.314,0,0
390335,43.4609,-382.69,0,0
390595,43.6026,-382.148,0,0
390855,43.7561,-381.68,0,0
391116,43.8785,-381.237,0,0
391376,43.9788,-380.879,0,0
391636,44.0222,-380.567,0,0
391896,44.019,-380.284,0,0
392157,43.9056,-379.985,0,0
392417,43.7994,-379.719,0,0
392677,43.6057,-379.383,0,0
392938,43.3619,-379.056,0,0
393198,43.0724,-378.681,0,0
393458,42.7522,-378.242,0,0
393719,42.4316,-377.77,0,0
393979,42.0987,-377.204,0,0
394239,41.7512,-376.614,0,0
394500,41.4897,-375.943,0,0
394760.05,41.2043,-375.276,0,0
395020.375,40.9713,-374.566,0,0
395280.7,40.7824,-373.825,0,0
395541.025,40.6041,-373.094,0,0
395801.35,40.4976,-372.335,0,0
396061.675,40.3633,-371.604,0,0
396322.0,40.3021,-370.848,0,0
396582.325,40.2568,-370.086,0,0
396842.65,40.2051,-369.351,0,0
397102.975,40.2272,-368.61,0,0
397363.3,40.2231,-367.884,0,0
397623.625,40.2529,-367.142,0,0
397883.95,40.2956,-366.428,0,0
398144.275,40.3632,-365.728,0,0
398404.6,40.4345,-365.049,0,0
398664.925,40.4975,-364.358,0,0
398925.25,40.6152,-363.71,0,0
399185.575,40.6937,-363.036,0,0
399445.9,40.8164,-362.401,0,0
399706.225,40.8884,-361.745,0,0
399966.55,41.0299,-361.172,0,0
400006.6,41.0083,-361.034,0,0