File: Accelerated corrosion test data/2025-10-01_18-00-03/sample_7.csv
Frequency (Hz),Impedance (ohms),Phase (Radians),Temperature (C),Humidity (%)
10000.0,279.995,-11959.4,0,0
10260.325,277.618,-11671.6,0,0
10520.65,264.488,-11376.8,0,0
10780.975,258.003,-11098.8,0,0
11041.3,255.124,-10833.9,0,0
11301.625,251.665,-10581.1,0,0
11561.95,254.773,-10335.8,0,0
11822.275,260.716,-10109.7,0,0
12082.6,269.71,-9881.84,0,0
12342.925,324.39,-9717.76,0,0
12603.25,264.437,-9541.7,0,0
12863.575,268.232,-9355.69,0,0
13123.9,243.357,-9169.78,0,0
13384.225,234.11,-9002.27,0,0
13644.55,229.574,-8823.84,0,0
13904.875,214.363,-8655.64,0,0
14165.2,213.44,-8485.6,0,0
14425.525,209.162,-8348,0,0
14685.8,208.57,-8200.94,0,0
14946.175,202.942,-8056.01,0,0
15206.5,200.914,-7926.54,0,0
15466.825,191.29,-7786.32,0,0
15727.15,188.175,-7660.49,0,0
15987.5,183.658,-7532.56,0,0
16247.8,182.205,-7414.8,0,0
16508.125,176.064,-7293.66,0,0
16768.45,175.714,-7176.57,0,0
17028.775,174.631,-7068.68,0,0
17289.1,170.563,-6959.96,0,0
17549.425,169.579,-6852.36,0,0
17809.75,174.888,-6745.68,0,0
18070.075,173.978,-6649.33,0,0
18330.4,186.235,-6545.01,0,0
18590.725,201.166,-6464.88,0,0
18851.05,195.7,-6393.79,0,0
19111.375,182.929,-6305.94,0,0
19371.7,202.951,-6243.51,0,0
19632.025,170.735,-6166.53,0,0
19892.35,161.114,-6068.8,0,0
20152.675,173.429,-5989.09,0,0
20413.0,172.876,-5921.96,0,0
20673.3,172.079,-5841.19,0,0
20933.65,179.365,-5782.7,0,0
21193.975,162.377,-5718.04,0,0
21454.3,156.045,-5643.71,0,0
21714.625,157.398,-5579.71,0,0
21974.9,148.598,-5515.56,0,0
22235.275,145.067,-5447.89,0,0
22495.6,142.086,-5386.37,0,0
22755.925,137.385,-5323.24,0,0
23016.25,134.338,-5260.48,0,0
23276.6,132.356,-5198.57,0,0
23536.9,133.166,-5139.31,0,0
23797.225,131.25,-5084.65,0,0
24057.55,128.052,-5027.99,0,0
24317.875,126.578,-4971.12,0,0
24578.2,127.291,-4917.63,0,0
24838.525,125.927,-4864.28,0,0
25098.85,123.593,-4813.41,0,0
25359.175,123.07,-4761.32,0,0
25619.5,122.062,-4710.51,0,0
25879.8,122.807,-4660.81,0,0
26140.1,123.266,-4610,0,0
26400.5,127.672,-4564.4,0,0
26660.8,124.421,-4518.37,0,0
26921.1,126.848,-4467.9,0,0
27181.4,133.709,-4422.13,0,0
27441.8,135.893,-4375.76,0,0
27702.1,147.965,-4331.45,0,0
27962.4,164.153,-4291.19,0,0
28222.7,181.009,-4270.58,0,0
28483.1,180.37,-4252.21,0,0
28743.4,171.172,-4230.42,0,0
29003.7,156.316,-4201.17,0,0
29264,143.136,-4162.92,0,0
29524.4,137.013,-4122.51,0,0
29784.7,130.558,-4085.11,0,0
30045,129.638,-4042.74,0,0
30305.3,132.825,-4007.91,0,0
30565.7,134.597,-3972.53,0,0
30826,136.65,-3943.06,0,0
31086.3,138.026,-3915.5,0,0
31346.6,134.828,-3887.29,0,0
31607,130.537,-3862.99,0,0
31867.3,122.858,-3830.18,0,0
32127.6,120.354,-3799.45,0,0
32387.9,116.385,-3769.35,0,0
32648.3,112.462,-3738.95,0,0
32908.6,109.843,-3708.41,0,0
33168.9,107.453,-3679.09,0,0
33429.2,104.815,-3649.47,0,0
33689.6,102.372,-3620,0,0
33949.9,100.979,-3591.41,0,0
34210.2,98.8751,-3563.06,0,0
34470.5,97.2808,-3535.02,0,0
34730.9,95.9648,-3507.41,0,0
34991.2,95.255,-3480.42,0,0
35251.5,93.8322,-3453.43,0,0
35511.8,92.6507,-3427.03,0,0
35772.2,92.3571,-3400.72,0,0
36032.5,91.857,-3375.47,0,0
36292.8,91.232,-3350.92,0,0
36553.1,90.1438,-3326.04,0,0
36813.5,89.5361,-3301.47,0,0
37073.8,89.439,-3277.24,0,0
37334.1,89.2336,-3253.56,0,0
37594.4,88.7853,-3230.39,0,0
37854.8,88.0414,-3207.18,0,0
38115.1,88.0784,-3183.54,0,0
38375.4,88.2564,-3160.76,0,0
38635.7,89.3186,-3138.03,0,0
38896.1,90.4582,-3115.91,0,0
39156.4,91.7659,-3094.57,0,0
39416.7,94.7004,-3073.59,0,0
39677,97.4817,-3055.56,0,0
39937.4,98.2543,-3038.75,0,0
40197.7,97.7889,-3021.99,0,0
40458,96.0976,-3005.62,0,0
40718.3,93.5262,-2987.62,0,0
40978.7,91.481,-2969.27,0,0
41239,89.0157,-2950.47,0,0
41499.3,87.6583,-2931.28,0,0
41759.6,86.5177,-2912.56,0,0
42020,84.9294,-2894.29,0,0
42280.275,83.5981,-2875.45,0,0
42540.6,83.084,-2855.99,0,0
42800.925,83.3088,-2837.99,0,0
43061.25,83.4114,-2819.77,0,0
43321.575,83.656,-2803.68,0,0
43581.9,82.3714,-2786.34,0,0
43842.225,82.8192,-2768.27,0,0
44102.55,84.3098,-2751.18,0,0
44362.875,85.3125,-2736.28,0,0
44623.2,85.6747,-2721.33,0,0
44883.525,84.2481,-2707.33,0,0
45143.85,83.164,-2691.71,0,0
45404.175,81.9615,-2676,0,0
45664.5,83.0549,-2660.01,0,0
45924.825,83.4116,-2646.69,0,0
46185.15,82.0564,-2633.7,0,0
46445.475,79.8853,-2619.9,0,0
46705.8,77.3603,-2605.06,0,0
46966.125,75.7389,-2589.59,0,0
47226.45,74.7098,-2573.99,0,0
47486.775,74.4229,-2559.22,0,0
47747.1,74.0512,-2544.61,0,0
48007.425,73.7755,-2530.26,0,0
48267.75,73.242,-2516.57,0,0
48528.075,72.5018,-2502.7,0,0
48788.4,71.8937,-2488.97,0,0
49048.725,71.3665,-2475.23,0,0
49309.05,70.8532,-2461.73,0,0
49569.375,70.3457,-2448.12,0,0
49829.7,69.9626,-2434.88,0,0
50090.025,69.6548,-2421.84,0,0
50350.35,69.3967,-2408.9,0,0
50610.675,69.2013,-2396.09,0,0
50871.0,68.704,-2383.38,0,0
51131.325,68.4206,-2370.79,0,0
51391.65,67.9402,-2358.36,0,0
51651.975,67.6539,-2346.01,0,0
51912.3,67.458,-2333.7,0,0
52172.625,67.2547,-2321.74,0,0
52432.95,66.8959,-2309.75,0,0
52693.275,66.7362,-2297.81,0,0
52953.6,66.637,-2285.95,0,0
53213.925,66.557,-2274.44,0,0
53474.25,66.4378,-2263.34,0,0
53734.575,66.0396,-2251.96,0,0
53994.9,65.8782,-2240.69,0,0
54255.225,65.4395,-2229.58,0,0
54515.55,65.1812,-2218.58,0,0
54775.875,65.067,-2207.49,0,0
55036.2,64.8689,-2196.69,0,0
55296.525,64.6911,-2185.9,0,0
55556.85,64.6113,-2175.38,0,0
55817.175,64.2991,-2164.97,0,0
56077.5,64.0852,-2154.35,0,0
56337.825,64.1846,-2144.04,0,0
56598.15,63.9081,-2133.91,0,0
56858.475,63.6523,-2123.69,0,0
57118.8,63.6146,-2113.69,0,0
57379.125,63.3451,-2103.76,0,0
57639.45,63.224,-2093.72,0,0
57899.775,63.1411,-2083.61,0,0
58160.1,63.2479,-2073.81,0,0
58420.4,63.6502,-2064.34,0,0
58680.7,63.4929,-2055.29,0,0
58941.1,63.3479,-2046.09,0,0
59201.4,63.0697,-2036.63,0,0
59461.7,63.1967,-2027.28,0,0
59722,63.2855,-2018.23,0,0
59982.4,63.3323,-2009.25,0,0
60242.7,63.4545,-2000.73,0,0
60503,63.0008,-1992.26,0,0
60763.3,62.7687,-1983.58,0,0
61023.7,62.3574,-1974.91,0,0
61284,62.0808,-1966.28,0,0
61544.3,61.7515,-1957.85,0,0
61804.6,61.2981,-1949.4,0,0
62065,60.8102,-1940.71,0,0
62325.3,60.69,-1932.23,0,0
62585.6,60.3202,-1923.67,0,0
62845.9,60.1949,-1915.32,0,0
63106.3,59.9614,-1906.98,0,0
63366.6,59.8959,-1898.68,0,0
63626.9,59.7706,-1890.8,0,0
63887.2,59.5323,-1882.66,0,0
64147.6,59.3159,-1874.61,0,0
64407.9,59.0285,-1866.53,0,0
64668.2,58.9456,-1858.49,0,0
64928.5,58.9442,-1850.51,0,0
65188.9,59.0783,-1842.76,0,0
65449.2,59.3353,-1835.39,0,0
65709.5,59.2021,-1828.05,0,0
65969.8,59.108,-1820.74,0,0
66230.2,58.7391,-1813.51,0,0
66490.5,58.4111,-1806.14,0,0
66750.8,58.1742,-1798.95,0,0
67011.1,57.5265,-1791.79,0,0
67271.5,57.1499,-1784.35,0,0
67531.8,56.7978,-1777.03,0,0
67792.1,56.3839,-1769.56,0,0
68052.4,56.1966,-1762.35,0,0
68312.8,55.9958,-1755,0,0
68573.1,55.9368,-1747.8,0,0
68833.4,55.6196,-1740.86,0,0
69093.7,55.5591,-1733.6,0,0
69354.1,55.5089,-1726.62,0,0
69614.4,55.5701,-1719.8,0,0
69874.7,55.3485,-1712.97,0,0
70135,55.3338,-1706.19,0,0
70395.4,55.215,-1699.51,0,0
70655.7,55.1746,-1692.86,0,0
70916,55.0252,-1686.41,0,0
71176.3,54.8623,-1679.79,0,0
71436.7,54.7588,-1673.33,0,0
71697,54.4647,-1666.91,0,0
71957.3,54.3448,-1660.45,0,0
72217.6,54.1123,-1653.96,0,0
72478,53.9493,-1647.55,0,0
72738.3,53.7499,-1641.27,0,0
72998.6,53.5392,-1634.95,0,0
73258.9,53.4303,-1628.6,0,0
73519.3,53.1656,-1622.31,0,0
73779.6,53.1284,-1616.12,0,0
74039.9,53.0072,-1609.79,0,0
74300.225,52.9676,-1603.64,0,0
74560.55,52.9653,-1597.63,0,0
74820.875,52.7263,-1591.62,0,0
75081.2,52.7625,-1585.59,0,0
75341.525,52.6689,-1579.53,0,0
75601.85,52.5602,-1573.68,0,0
75862.175,52.469,-1567.88,0,0
76122.5,52.4036,-1561.91,0,0
76382.825,52.3136,-1556.1,0,0
76643.15,52.323,-1550.34,0,0
76903.475,52.2364,-1544.59,0,0
77163.8,52.1431,-1538.93,0,0
77424.125,52.0266,-1533.22,0,0
77684.45,51.963,-1527.57,0,0
77944.775,51.9029,-1521.97,0,0
78205.1,51.9094,-1516.37,0,0
78465.425,51.7803,-1510.87,0,0
78725.75,51.7739,-1505.33,0,0
78986.075,51.7419,-1499.77,0,0
79246.4,51.6533,-1494.36,0,0
79506.725,51.7328,-1488.96,0,0
79767.05,51.7407,-1483.55,0,0
80027.375,51.7804,-1478.29,0,0
80287.7,51.7283,-1473.07,0,0
80548.025,51.6598,-1467.79,0,0
80808.35,51.6399,-1462.59,0,0
81068.675,51.5601,-1457.33,0,0
81329.0,51.5577,-1452.16,0,0
81589.325,51.5149,-1447.02,0,0
81849.65,51.4668,-1441.99,0,0
82109.975,51.4282,-1436.82,0,0
82370.3,51.5113,-1431.73,0,0
82630.625,51.4484,-1426.76,0,0
82890.95,51.377,-1421.78,0,0
83151.275,51.2537,-1416.77,0,0
83411.6,51.2267,-1411.68,0,0
83671.925,51.2392,-1406.68,0,0
83932.25,51.3624,-1401.76,0,0
84192.575,51.4831,-1396.91,0,0
84452.9,51.5009,-1392.05,0,0
84713.225,51.5414,-1387.26,0,0
84973.55,51.6961,-1382.51,0,0
85233.875,51.6893,-1377.83,0,0
85494.2,51.6928,-1373.12,0,0
85754.525,51.7348,-1368.48,0,0
86014.85,51.7742,-1363.7,0,0
86275.175,51.7819,-1359.14,0,0
86535.5,51.9143,-1354.58,0,0
86795.825,51.8028,-1350.06,0,0
87056.15,51.8911,-1345.33,0,0
87316.475,51.9799,-1340.74,0,0
87576.8,52.0763,-1336.24,0,0
87837.125,52.1296,-1331.81,0,0
88097.45,52.2268,-1327.4,0,0
88357.775,52.2086,-1323.07,0,0
88618.1,52.1641,-1318.71,0,0
88878.425,52.1777,-1314.24,0,0
89138.75,52.2475,-1309.95,0,0
89399.075,52.1668,-1305.57,0,0
89659.4,52.1405,-1301.14,0,0
89919.725,52.1799,-1296.78,0,0
90180,52.3668,-1292.33,0,0
90440.4,52.5433,-1288.2,0,0
90700.7,52.6292,-1284,0,0
90961,52.6268,-1279.84,0,0
91221.3,52.6701,-1275.62,0,0
91481.7,52.7661,-1271.44,0,0
91742,52.7215,-1267.26,0,0
92002.3,52.9028,-1262.99,0,0
92262.6,53.0538,-1258.98,0,0
92523,53.0361,-1255.09,0,0
92783.3,52.8964,-1250.96,0,0
93043.6,52.8201,-1246.65,0,0
93303.9,52.9377,-1242.25,0,0
93564.3,53.2048,-1238.02,0,0
93824.6,53.7174,-1233.82,0,0
94084.9,54.4134,-1229.98,0,0
94345.2,54.7556,-1226.44,0,0
94605.6,54.9636,-1222.97,0,0
94865.9,54.8073,-1219.33,0,0
95126.2,55.0431,-1215.5,0,0
95386.5,55.0405,-1212.16,0,0
95646.9,54.6046,-1208.53,0,0
95907.2,54.4343,-1204.51,0,0
96167.5,54.5896,-1200.77,0,0
96427.8,54.1859,-1197.13,0,0
96688.2,54.0348,-1193.08,0,0
96948.5,54.0044,-1189.15,0,0
97208.8,54.0271,-1185.23,0,0
97469.1,54.0298,-1181.1,0,0
97729.5,54.3703,-1177.08,0,0
97989.8,54.6855,-1173.42,0,0
98250.1,54.9928,-1169.63,0,0
98510.4,55.3526,-1166.25,0,0
98770.8,55.3053,-1162.82,0,0
99031.1,55.2531,-1159.17,0,0
99291.4,55.2355,-1155.54,0,0
99551.7,55.2074,-1151.71,0,0
99812.1,55.3996,-1147.96,0,0
100072,55.5361,-1144.3,0,0
100333,55.6848,-1140.69,0,0
100593,55.6912,-1137.02,0,0
100853,55.8746,-1133.12,0,0
101114,56.3173,-1129.45,0,0
101374,56.6714,-1126.01,0,0
101634,56.861,-1122.49,0,0
101895,57.0375,-1118.97,0,0
102155,57.304,-1115.26,0,0
102415,57.771,-1111.68,0,0
102676,58.1518,-1108.24,0,0
102936,58.592,-1104.64,0,0
103196,59.4092,-1101.23,0,0
103457,60.0759,-1098.25,0,0
103717,60.5494,-1095.42,0,0
103977,60.5284,-1092.68,0,0
104238,60.425,-1089.26,0,0
104498,60.9753,-1085.79,0,0
104758,61.5882,-1083.07,0,0
105019,61.4983,-1080.38,0,0
105279,61.4299,-1077.33,0,0
105539,61.4225,-1074.25,0,0
105800,61.2986,-1071.21,0,0
106060,61.1462,-1067.97,0,0
106320.175,61.0417,-1064.55,0,0
106580.5,61.0734,-1061.01,0,0
106840.825,61.518,-1057.38,0,0
107101.15,62.1496,-1054.26,0,0
107361.475,62.4841,-1051.3,0,0
107621.8,62.7943,-1048.28,0,0
107882.125,62.9958,-1045.32,0,0
108142.45,63.1968,-1042.34,0,0
108402.775,63.2898,-1039.28,0,0
108663.1,63.4453,-1036.23,0,0
108923.425,63.4565,-1033.18,0,0
109183.75,63.6149,-1030.05,0,0
109444.075,63.7312,-1027.04,0,0
109704.4,63.6101,-1023.78,0,0
109964.725,63.6363,-1020.36,0,0
110225.05,63.9816,-1016.75,0,0
110485.375,64.4623,-1013.22,0,0
110745.7,65.0658,-1009.78,0,0
111006.025,65.9064,-1006.4,0,0
111266.35,66.8779,-1003.55,0,0
111526.675,67.3908,-1000.56,0,0
111787.0,68.0819,-997.324,0,0
112047.325,68.9602,-994.165,0,0
112307.65,69.9966,-991.328,0,0
112567.975,71.0931,-988.572,0,0
112828.3,72.1634,-985.868,0,0
113088.625,73.2521,-983.397,0,0
113348.95,74.3608,-981.182,0,0
113609.275,74.9395,-979.157,0,0
113869.6,75.4398,-976.841,0,0
114129.925,76.0272,-974.316,0,0
114390.25,76.794,-971.922,0,0
114650.575,77.5659,-969.648,0,0
114910.9,78.1835,-967.403,0,0
115171.225,78.8915,-965.041,0,0
115431.55,79.8283,-962.704,0,0
115691.875,80.8345,-960.635,0,0
115952.2,81.7655,-958.712,0,0
116212.525,82.8832,-956.892,0,0
116472.85,83.8924,-955.501,0,0
116733.175,84.6472,-954.427,0,0
116993.5,84.9723,-953.479,0,0
117253.825,84.8081,-952.347,0,0
117514.15,84.6555,-950.793,0,0
117774.475,84.4383,-949.317,0,0
118034.8,84.1461,-947.441,0,0
118295.125,84.2483,-945.366,0,0
118555.45,84.8274,-943.591,0,0
118815.775,85.2379,-942.219,0,0
119076.1,85.5344,-941.087,0,0
119336.425,85.8536,-940.075,0,0
119596.75,85.8656,-939.776,0,0
119857.075,84.9468,-939.494,0,0
120117.4,83.6668,-938.619,0,0
120377.725,82.4229,-937.688,0,0
120638.05,80.7479,-936.517,0,0
120898.375,78.9034,-935.138,0,0
121158.7,76.685,-933.16,0,0
121419.025,74.8959,-930.506,0,0
121679.35,73.5942,-927.886,0,0
121939.675,72.2503,-925.442,0,0
122200.0,70.9496,-922.766,0,0
122460,69.8051,-919.91,0,0
122721,68.8491,-917.167,0,0
122981,67.9197,-914.427,0,0
123241,66.9612,-911.734,0,0
123502,65.8895,-908.891,0,0
123762,65.0527,-905.775,0,0
124022,64.5338,-902.698,0,0
124283,64.0773,-899.883,0,0
124543,63.6183,-897.08,0,0
124803,63.2304,-894.417,0,0
125064,62.6674,-891.889,0,0
125324,61.9238,-889.256,0,0
125584,61.21,-886.421,0,0
125845,60.5641,-883.472,0,0
126105,60.1793,-880.549,0,0
126365,59.735,-877.788,0,0
126626,59.1526,-874.953,0,0
126886,58.6792,-872.14,0,0
127146,58.1127,-869.118,0,0
127406,57.7958,-866.159,0,0
127667,57.5991,-863.26,0,0
127927,57.1934,-860.39,0,0
128187,56.8984,-857.432,0,0
128448,56.5956,-854.496,0,0
128708,56.3148,-851.584,0,0
128968,56.0359,-848.598,0,0
129229,55.9529,-845.632,0,0
129489,55.893,-842.761,0,0
129749,55.6898,-839.915,0,0
130010,55.5099,-837.033,0,0
130270,55.4016,-834.052,0,0
130530,55.4313,-831.228,0,0
130791,55.3088,-828.483,0,0
131051,55.0982,-825.667,0,0
131311,54.9118,-822.711,0,0
131572,54.7976,-819.709,0,0
131832,54.7411,-816.637,0,0
132092,54.8201,-813.671,0,0
132353,54.7876,-810.737,0,0
132613,54.8504,-807.664,0,0
132873,55.0229,-804.602,0,0
133134,55.1822,-801.604,0,0
133394,55.3769,-798.516,0,0
133654,55.6941,-795.426,0,0
133915,56.0882,-792.402,0,0
134175,56.5135,-789.331,0,0
134435,57.1505,-786.223,0,0
134696,57.8948,-783.363,0,0
134956,58.5981,-780.479,0,0
135216,59.5984,-777.7,0,0
135477,60.5782,-775.193,0,0
135737,61.5123,-772.862,0,0
135997,62.488,-770.699,0,0
136258,63.3045,-768.74,0,0
136518,63.9596,-766.955,0,0
136778,64.4233,-765.217,0,0
137039,64.5817,-763.496,0,0
137299,64.6309,-761.618,0,0
137559,64.6513,-759.698,0,0
137819,64.5442,-757.785,0,0
138080,64.2974,-755.853,0,0
138340.125,63.8668,-753.671,0,0
138600.45,63.4352,-751.318,0,0
138860.775,63.0527,-748.698,0,0
139121.1,62.925,-745.974,0,0
139381.425,62.92,-743.309,0,0
139641.75,62.8569,-740.762,0,0
139902.075,62.842,-738.057,0,0
140162.4,62.9595,-735.415,0,0
140422.725,63.0686,-732.868,0,0
140683.05,63.1086,-730.298,0,0
140943.375,63.1479,-727.653,0,0
141203.7,63.2146,-725.023,0,0
141464.025,63.2058,-722.409,0,0
141724.35,63.1838,-719.599,0,0
141984.675,63.3764,-716.712,0,0
142245.0,63.6306,-713.954,0,0
142505.325,63.8313,-711.225,0,0
142765.65,64.031,-708.423,0,0
143025.975,64.332,-705.565,0,0
143286.3,64.7458,-702.763,0,0
143546.625,65.2328,-699.987,0,0
143806.95,65.6859,-697.331,0,0
144067.275,66.1797,-694.66,0,0
144327.6,66.6712,-692.061,0,0
144587.925,67.0887,-689.535,0,0
144848.25,67.4902,-686.914,0,0
145108.575,68.0261,-684.421,0,0
145368.9,68.3455,-682.102,0,0
145629.225,68.4022,-679.589,0,0
145889.55,68.4882,-676.822,0,0
146149.875,68.83,-673.916,0,0
146410.2,69.2337,-671.151,0,0
146670.525,69.587,-668.372,0,0
146930.85,70.1132,-665.473,0,0
147191.175,70.7644,-662.819,0,0
147451.5,71.1707,-660.262,0,0
147711.825,71.5409,-657.52,0,0
147972.15,72.0618,-654.734,0,0
148232.475,72.6369,-652.041,0,0
148492.8,73.1758,-649.524,0,0
148753.125,73.5091,-646.986,0,0
149013.45,73.727,-644.385,0,0
149273.775,73.8549,-641.59,0,0
149534.1,74.0568,-638.609,0,0
149794.425,74.3322,-635.554,0,0
150054.75,74.6932,-632.441,0,0
150315.075,75.1042,-629.293,0,0
150575.4,75.5546,-626.126,0,0
150835.725,76.0178,-622.886,0,0
151096.05,76.5522,-619.559,0,0
151356.375,77.2109,-616.168,0,0
151616.7,77.9458,-612.75,0,0
151877.025,78.7528,-609.312,0,0
152137.35,79.6291,-605.826,0,0
152397.675,80.6557,-602.3,0,0
152658.0,81.7932,-598.765,0,0
152918.325,83.0756,-595.252,0,0
153178.65,84.4453,-591.856,0,0
153438.975,85.8399,-588.518,0,0
153699.3,87.2062,-585.172,0,0
153959.625,88.6578,-581.719,0,0
154219.95,90.2507,-578.277,0,0
154480,92.0328,-574.948,0,0
154741,93.9365,-571.593,0,0
155001,95.7717,-568.438,0,0
155261,97.6608,-565.101,0,0
155522,99.7161,-561.933,0,0
155782,101.857,-558.908,0,0
156042,104.042,-555.975,0,0
156303,106.275,-553.1,0,0
156563,108.491,-550.325,0,0
156823,110.632,-547.734,0,0
157084,112.928,-545.121,0,0
157344,115.315,-542.589,0,0
157604,117.452,-540.365,0,0
157864,119.574,-538.311,0,0
158125,121.34,-536.062,0,0
158385,123.086,-533.736,0,0
158645,124.98,-531.4,0,0
158906,126.698,-529.418,0,0
159166,128.144,-527.455,0,0
159426,129.089,-525.328,0,0
159687,129.767,-522.703,0,0
159947,130.429,-519.527,0,0
160207,131.368,-515.979,0,0
160468,132.451,-512.203,0,0
160728,133.683,-508.232,0,0
160988,135.075,-503.944,0,0
161249,136.764,-499.126,0,0
161509,139.139,-493.988,0,0
161769,142.153,-489.106,0,0
162030,145.35,-484.384,0,0
162290,148.858,-479.798,0,0
162550,152.574,-475.206,0,0
162811,156.426,-470.572,0,0
163071,160.582,-465.838,0,0
163331,165.299,-461.039,0,0
163592,170.604,-456.429,0,0
163852,176.257,-452.099,0,0
164112,182.263,-448.127,0,0
164373,188.566,-444.479,0,0
164633,195.211,-441.362,0,0
164893,201.632,-438.845,0,0
165154,207.605,-436.108,0,0
165414,213.79,-433.04,0,0
165674,220.476,-429.92,0,0
165935,227.659,-426.661,0,0
166195,235.7,-423.328,0,0
166455,244.833,-420.56,0,0
166716,254.723,-418.936,0,0
166976,264.703,-418.186,0,0
167236,274.894,-418.196,0,0
167497,285.243,-419.092,0,0
167757,295.483,-420.822,0,0
168017,305.818,-423.192,0,0
168277,316.161,-426.46,0,0
168538,326.25,-430.904,0,0
168798,335.795,-435.868,0,0
169058,345.286,-441.651,0,0
169319,354.229,-448.547,0,0
169579,361.967,-455.968,0,0
169839,369.397,-463.319,0,0
170100,376.906,-470.76,0,0
170360.075,385.032,-479.375,0,0
170620.4,392.449,-490.467,0,0
170880.725,397.334,-502.785,0,0
171141.05,400.085,-514.861,0,0
171401.375,401.315,-526.208,0,0
171661.7,401.893,-536.491,0,0
171922.025,402.731,-546.597,0,0
172182.35,403.129,-557.613,0,0
172442.675,402.057,-569.372,0,0
172703.0,398.803,-580.939,0,0
172963.325,393.87,-591.164,0,0
173223.65,388.396,-599.983,0,0
173483.975,382.2,-608.076,0,0
173744.3,375.307,-614.786,0,0
174004.625,368.401,-620.161,0,0
174264.95,361.702,-624.525,0,0
174525.275,355.327,-628.366,0,0
174785.6,348.42,-631.828,0,0
175045.925,341.332,-633.934,0,0
175306.25,334.38,-635.031,0,0
175566.575,327.314,-634.709,0,0
175826.9,321.567,-632.007,0,0
176087.225,318.669,-628.638,0,0
176347.55,317.856,-626.293,0,0
176607.875,318.167,-625.204,0,0
176868.2,318.867,-625.542,0,0
177128.525,319.464,-626.742,0,0
177388.85,320.175,-628.75,0,0
177649.175,320.621,-631.319,0,0
177909.5,321.585,-634.56,0,0
178169.825,322.526,-639.792,0,0
178430.15,321.815,-646.892,0,0
178690.475,318.373,-654.518,0,0
178950.8,312.835,-660.958,0,0
179211.125,306.426,-665.983,0,0
179471.45,299.687,-670.09,0,0
179731.775,292.088,-673.638,0,0
179992.1,283.77,-675.117,0,0
180252.425,276.642,-674.973,0,0
180512.75,270.947,-674.66,0,0
180773.075,266.044,-675.098,0,0
181033.4,260.758,-676.776,0,0
181293.725,253.514,-678.64,0,0
181554.05,245.054,-678.513,0,0
181814.375,237.35,-676.812,0,0
182074.7,230.278,-674.775,0,0
182335.025,223.242,-672.393,0,0
182595.35,216.35,-669.128,0,0
182855.675,210.055,-664.994,0,0
183116.0,204.738,-660.57,0,0
183376.325,200.097,-656.441,0,0
183636.65,195.457,-652.495,0,0
183896.975,190.667,-648.177,0,0
184157.3,186.241,-643.183,0,0
184417.625,182.517,-637.698,0,0
184677.95,180.014,-632.092,0,0
184938.275,178.39,-627.46,0,0
185198.6,176.589,-623.771,0,0
185458.925,174.085,-620.388,0,0
185719.25,170.955,-616.601,0,0
185979.575,167.883,-611.926,0,0
186239.9,165.554,-606.83,0,0
186500,163.821,-601.937,0,0
186761,162.049,-597.221,0,0
187021,160.344,-592.149,0,0
187281,159.338,-586.786,0,0
187542,158.99,-581.738,0,0
187802,158.869,-577.07,0,0
188062,159.154,-572.661,0,0
188322,159.745,-568.975,0,0
188583,159.928,-566.135,0,0
188843,159.254,-563.504,0,0
189103,158.086,-560.393,0,0
189364,156.836,-556.925,0,0
189624,155.534,-553.179,0,0
189884,154.272,-549.12,0,0
190145,153.192,-544.676,0,0
190405,152.49,-540.221,0,0
190665,151.632,-535.766,0,0
190926,150.791,-530.762,0,0
191186,150.57,-525.308,0,0
191446,151.059,-520.001,0,0
191707,151.921,-515.096,0,0
191967,152.807,-510.572,0,0
192227,153.485,-506.112,0,0
192488,154.185,-501.444,0,0
192748,155.095,-496.675,0,0
193008,156.196,-491.854,0,0
193269,157.624,-487.057,0,0
193529,159.249,-482.455,0,0
193789,160.908,-477.937,0,0
194050,162.724,-473.415,0,0
194310,164.687,-468.914,0,0
194570,166.811,-464.46,0,0
194831,169.181,-460.066,0,0
195091,171.784,-455.837,0,0
195351,174.429,-451.836,0,0
195612,177.17,-447.905,0,0
195872,179.903,-443.979,0,0
196132,183.005,-440.245,0,0
196393,186.111,-436.903,0,0
196653,189.16,-433.592,0,0
196913,192.118,-430.477,0,0
197174,195.004,-427.341,0,0
197434,197.887,-424.226,0,0
197694,200.706,-421.103,0,0
197955,203.589,-417.916,0,0
198215,206.658,-414.582,0,0
198475,209.889,-411.405,0,0
198735,213.327,-408.356,0,0
198996,216.688,-405.474,0,0
199256,219.87,-402.617,0,0
199516,222.941,-399.573,0,0
199777,226.247,-396.225,0,0
200037,229.926,-392.742,0,0
200297,233.972,-389.4,0,0
200558,238.329,-386.274,0,0
200818,242.679,-383.5,0,0
201078,246.806,-380.846,0,0
201339,251.03,-377.724,0,0
201599,255.717,-374.478,0,0
201859,261.077,-371.396,0,0
202120,266.726,-368.744,0,0
202380.025,272.548,-366.571,0,0
202640.35,278.331,-364.769,0,0
202900.675,284.128,-362.988,0,0
203161.0,290.296,-361.354,0,0
203421.325,296.665,-360.217,0,0
203681.65,302.967,-359.566,0,0
203941.975,309.173,-359.177,0,0
204202.3,315.248,-359.001,0,0
204462.625,321.519,-359.162,0,0
204722.95,327.463,-359.691,0,0
204983.275,333.075,-360.159,0,0
205243.6,338.898,-360.482,0,0
205503.925,345.277,-361.079,0,0
205764.25,351.71,-362.4,0,0
206024.575,357.762,-364.461,0,0
206284.9,363.266,-366.746,0,0
206545.225,368.442,-369.247,0,0
206805.55,373.082,-371.787,0,0
207065.875,377.088,-374.373,0,0
207326.2,380.515,-376.575,0,0
207586.525,383.571,-378.151,0,0
207846.85,386.574,-378.799,0,0
208107.175,389.934,-378.433,0,0
208367.5,394.495,-377.088,0,0
208627.825,400.684,-375.454,0,0
208888.15,408.731,-374.566,0,0
209148.475,418.099,-375.082,0,0
209408.8,427.968,-377.357,0,0
209669.125,437.756,-381.538,0,0
209929.45,446.893,-386.976,0,0
210189.775,455.39,-393.399,0,0
210450.1,463.558,-400.851,0,0
210710.425,470.855,-409.635,0,0
210970.75,476.77,-419.357,0,0
211231.075,481.086,-429.626,0,0
211491.4,483.721,-439.808,0,0
211751.725,485.075,-449.322,0,0
212012.05,485.663,-458.033,0,0
212272.375,485.929,-466.031,0,0
212532.7,486.136,-473.653,0,0
212793.025,486.202,-481.232,0,0
213053.35,485.87,-488.96,0,0
213313.675,484.804,-496.547,0,0
213574.0,483.347,-503.585,0,0
213834.325,481.831,-510.544,0,0
214094.65,479.731,-517.636,0,0
214354.975,476.719,-524.46,0,0
214615.3,472.845,-530.443,0,0
214875.625,468.715,-535.199,0,0
215135.95,464.98,-538.941,0,0
215396.275,461.861,-542.171,0,0
215656.6,459.15,-545.332,0,0
215916.925,456.734,-548.503,0,0
216177.25,454.594,-551.738,0,0
216437.575,452.6,-555.29,0,0
216697.9,450.358,-559.301,0,0
216958.225,447.431,-563.433,0,0
217218.55,443.899,-567.327,0,0
217478.875,439.885,-570.757,0,0
217739.2,435.623,-573.573,0,0
217999.525,431.357,-575.733,0,0
218259.85,427.341,-577.386,0,0
218520,423.527,-579.089,0,0
218780,419.353,-580.769,0,0
219041,414.744,-581.937,0,0
219301,409.941,-582.301,0,0
219561,405.53,-581.806,0,0
219822,401.437,-580.812,0,0
220082,397.783,-579.323,0,0
220342,394.538,-577.492,0,0
220603,391.762,-575.334,0,0
220863,389.642,-572.834,0,0
221123,388.106,-570.322,0,0
221384,387.118,-567.811,0,0
221644,386.51,-565.342,0,0
221904,386.434,-562.929,0,0
222165,386.877,-560.647,0,0
222425,387.754,-558.688,0,0
222685,388.902,-557.103,0,0
222946,390.227,-555.875,0,0
223206,391.561,-554.878,0,0
223466,392.913,-554.049,0,0
223727,394.472,-553.163,0,0
223987,396.278,-552.502,0,0
224247,398.211,-552.036,0,0
224508,400.193,-551.819,0,0
224768,402.237,-551.597,0,0
225028,404.441,-551.296,0,0
225289,407.17,-551.257,0,0
225549,410.212,-551.57,0,0
225809,413.444,-552.242,0,0
226070,416.991,-553.271,0,0
226330,420.716,-555.002,0,0
226590,424.285,-557.417,0,0
226851,427.699,-560.369,0,0
227111,430.546,-563.354,0,0
227371,433.31,-566.496,0,0
227632,436.196,-569.679,0,0
227892,439.326,-573.208,0,0
228152,442.567,-577.42,0,0
228413,445.623,-582.422,0,0
228673,448.236,-587.943,0,0
228933,450.422,-594.017,0,0
229193,451.926,-600.583,0,0
229454,452.723,-607.348,0,0
229714,452.876,-614.171,0,0
229974,452.72,-620.796,0,0
230235,452.342,-627.778,0,0
230495,451.347,-635.41,0,0
230755,449.12,-643.099,0,0
231016,445.928,-650.287,0,0
231276,442.342,-656.797,0,0
231536,438.692,-662.858,0,0
231797,434.813,-668.941,0,0
232057,430.46,-674.798,0,0
232317,425.917,-680.426,0,0
232578,421.151,-685.909,0,0
232838,416.019,-691.494,0,0
233098,410.314,-696.966,0,0
233359,404.137,-702.256,0,0
233619,397.242,-707.528,0,0
233879,389.32,-712.301,0,0
234140,380.614,-716.317,0,0
234400,371.136,-719.342,0,0
234660.3,361.239,-720.856,0,0
234920.625,351.154,-720.984,0,0
235180.95,341.62,-719.562,0,0
235441.275,333.192,-716.923,0,0
235701.6,325.798,-713.822,0,0
235961.925,319.147,-710.55,0,0
236222.25,313.229,-706.85,0,0
236482.575,308.317,-702.942,0,0
236742.9,304.43,-699.427,0,0
237003.225,300.92,-696.831,0,0
237263.55,297.052,-694.803,0,0
237523.875,292.787,-692.636,0,0
237784.2,288.355,-690.273,0,0
238044.525,283.66,-687.532,0,0
238304.85,278.917,-683.983,0,0
238565.175,274.64,-679.569,0,0
238825.5,271.365,-674.61,0,0
239085.825,269.168,-669.658,0,0
239346.15,267.787,-665.066,0,0
239606.475,266.8,-660.964,0,0
239866.8,266.271,-657.076,0,0
240127.125,266.332,-653.529,0,0
240387.45,266.773,-650.829,0,0
240647.775,267.144,-648.986,0,0
240908.1,267.093,-647.626,0,0
241168.425,266.682,-646.528,0,0
241428.75,265.94,-645.612,0,0
241689.075,264.862,-644.898,0,0
241949.4,263.312,-644.156,0,0
242209.725,261.129,-643.261,0,0
242470.05,258.475,-641.633,0,0
242730.375,255.953,-639.175,0,0
242990.7,254.022,-636.199,0,0
243251.025,252.598,-633.234,0,0
243511.35,251.236,-630.3,0,0
243771.675,249.924,-626.991,0,0
244032.0,249.084,-623.284,0,0
244292.325,249.029,-619.435,0,0
244552.65,249.68,-615.696,0,0
244812.975,250.988,-612.324,0,0
245073.3,252.749,-609.626,0,0
245333.625,254.679,-607.635,0,0
245593.95,256.515,-606.287,0,0
245854.275,258.058,-605.369,0,0
246114.6,259.229,-604.638,0,0
246374.925,260.281,-603.955,0,0
246635.25,261.203,-603.373,0,0
246895.575,262.07,-602.891,0,0
247155.9,262.707,-602.547,0,0
247416.225,263.169,-602.087,0,0
247676.55,263.744,-601.528,0,0
247936.875,264.379,-600.983,0,0
248197.2,265.076,-600.635,0,0
248457.525,265.661,-600.369,0,0
248717.85,266.246,-600.163,0,0
248978.175,266.811,-599.986,0,0
249238.5,267.396,-599.788,0,0
249498.825,268.095,-599.679,0,0
249759.15,268.904,-599.939,0,0
250019.475,269.543,-600.376,0,0
250279.8,269.851,-600.964,0,0
250540,269.979,-601.452,0,0
250800,270.002,-601.85,0,0
251061,270.184,-602.192,0,0
251321,270.432,-602.638,0,0
251581,270.661,-603.241,0,0
251842,270.823,-604.052,0,0
252102,270.771,-605.006,0,0
252362,270.512,-606.023,0,0
252623,270.048,-607.003,0,0
252883,269.439,-607.925,0,0
253143,268.849,-608.78,0,0
253404,268.225,-609.727,0,0
253664,267.478,-610.817,0,0
253924,266.493,-612.017,0,0
254185,265.141,-613.221,0,0
254445,263.552,-614.32,0,0
254705,261.686,-615.204,0,0
254966,259.641,-615.876,0,0
255226,257.432,-616.345,0,0
255486,255.064,-616.516,0,0
255747,252.62,-616.339,0,0
256007,250.264,-615.821,0,0
256267,248.002,-615.024,0,0
256528,246.017,-613.969,0,0
256788,244.231,-612.936,0,0
257048,242.446,-611.957,0,0
257309,240.601,-610.843,0,0
257569,238.752,-609.494,0,0
257829,237.031,-607.913,0,0
258090,235.533,-606.191,0,0
258350,234.202,-604.362,0,0
258610,233.06,-602.43,0,0
258871,232.102,-600.582,0,0
259131,231.194,-598.648,0,0
259391,230.449,-596.676,0,0
259651,229.77,-594.602,0,0
259912,229.274,-592.548,0,0
260172,228.859,-590.432,0,0
260432,228.535,-588.143,0,0
260693,228.478,-585.737,0,0
260953,228.668,-583.349,0,0
261213,229.05,-580.875,0,0
261474,229.702,-578.306,0,0
261734,230.734,-575.652,0,0
261994,232.26,-573.046,0,0
262255,234.34,-570.622,0,0
262515,236.912,-568.615,0,0
262775,239.758,-567.191,0,0
263036,242.776,-566.248,0,0
263296,245.927,-565.818,0,0
263556,249.066,-565.993,0,0
263817,252.1,-566.787,0,0
264077,254.736,-568.198,0,0
264337,256.856,-569.929,0,0
264598,258.52,-571.686,0,0
264858,259.832,-573.488,0,0
265118,260.992,-575.365,0,0
265379,261.759,-577.225,0,0
265639,262.317,-579.037,0,0
265899,262.61,-580.725,0,0
266160,262.856,-582.21,0,0
266420,263.141,-583.617,0,0
266680.25,263.491,-585.098,0,0
266940.575,263.839,-586.677,0,0
267200.9,264.043,-588.434,0,0
267461.225,263.989,-590.323,0,0
267721.55,263.696,-592.24,0,0
267981.875,263.138,-593.955,0,0
268242.2,262.388,-595.537,0,0
268502.525,261.575,-596.919,0,0
268762.85,260.695,-598.037,0,0
269023.175,259.92,-598.914,0,0
269283.5,259.368,-599.587,0,0
269543.825,259.101,-600.169,0,0
269804.15,259.201,-600.971,0,0
270064.475,259.442,-601.978,0,0
270324.8,259.707,-603.291,0,0
270585.125,259.933,-604.826,0,0
270845.45,260.143,-606.426,0,0
271105.775,260.412,-608.127,0,0
271366.1,260.932,-610.084,0,0
271626.425,261.589,-612.499,0,0
271886.75,262.255,-615.562,0,0
272147.075,262.627,-619.358,0,0
272407.4,262.437,-623.875,0,0
272667.725,261.354,-628.877,0,0
272928.05,259.26,-633.985,0,0
273188.375,256.402,-638.94,0,0
273448.7,252.74,-643.792,0,0
273709.025,248.248,-648.34,0,0
273969.35,242.972,-652.452,0,0
274229.675,236.925,-655.778,0,0
274490.0,230.485,-658.269,0,0
274750.325,223.929,-659.836,0,0
275010.65,217.438,-660.817,0,0
275270.975,210.902,-661.251,0,0
275531.3,204.25,-661.146,0,0
275791.625,197.613,-660.357,0,0
276051.95,191.082,-658.883,0,0
276312.275,184.858,-656.742,0,0
276572.6,178.992,-654.147,0,0
276832.925,173.48,-651.124,0,0
277093.25,168.322,-647.696,0,0
277353.575,163.5,-643.889,0,0
277613.9,159.147,-639.732,0,0
277874.225,155.298,-635.272,0,0
278134.55,152.03,-630.612,0,0
278394.875,149.322,-625.917,0,0
278655.2,147.17,-621.273,0,0
278915.525,145.471,-616.76,0,0
279175.85,144.126,-612.459,0,0
279436.175,143.084,-608.28,0,0
279696.5,142.336,-604.286,0,0
279956.825,141.85,-600.468,0,0
280217.15,141.57,-596.854,0,0
280477.475,141.572,-593.472,0,0
280737.8,141.763,-590.403,0,0
280998.125,142.01,-587.712,0,0
281258.45,142.152,-585.322,0,0
281518.775,142.216,-583.071,0,0
281779.1,142.187,-581.016,0,0
282039.425,142.032,-579.081,0,0
282299.75,141.709,-577.247,0,0
282560,141.149,-575.4,0,0
282820,140.433,-573.375,0,0
283081,139.703,-571.182,0,0
283341,138.96,-568.829,0,0
283601,138.255,-566.306,0,0
283862,137.655,-563.547,0,0
284122,137.354,-560.612,0,0
284382,137.401,-557.65,0,0
284643,137.68,-554.834,0,0
284903,138.147,-552.137,0,0
285163,138.73,-549.565,0,0
285424,139.469,-547.176,0,0
285684,140.219,-544.925,0,0
285944,141.003,-542.809,0,0
286205,141.842,-540.774,0,0
286465,142.704,-538.893,0,0
286725,143.554,-537.144,0,0
286986,144.318,-535.51,0,0
287246,145.005,-533.917,0,0
287506,145.62,-532.346,0,0
287767,146.175,-530.742,0,0
288027,146.703,-529.092,0,0
288287,147.242,-527.38,0,0
288548,147.833,-525.589,0,0
288808,148.546,-523.748,0,0
289068,149.406,-521.909,0,0
289329,150.376,-520.179,0,0
289589,151.395,-518.556,0,0
289849,152.423,-516.996,0,0
290109,153.395,-515.509,0,0
290370,154.422,-513.963,0,0
290630,155.512,-512.459,0,0
290890,156.67,-511.023,0,0
291151,157.84,-509.697,0,0
291411,159,-508.441,0,0
291671,160.089,-507.182,0,0
291932,161.19,-505.899,0,0
292192,162.321,-504.606,0,0
292452,163.497,-503.311,0,0
292713,164.707,-502.031,0,0
292973,165.925,-500.768,0,0
293233,167.172,-499.48,0,0
293494,168.455,-498.169,0,0
293754,169.826,-496.835,0,0
294014,171.266,-495.503,0,0
294275,172.753,-494.161,0,0
294535,174.331,-492.773,0,0
294795,176.027,-491.334,0,0
295056,177.936,-489.866,0,0
295316,180.037,-488.416,0,0
295576,182.367,-487.079,0,0
295837,184.877,-485.864,0,0
296097,187.566,-484.817,0,0
296357,190.395,-483.925,0,0
296618,193.347,-483.19,0,0
296878,196.459,-482.673,0,0
297138,199.684,-482.375,0,0
297399,202.989,-482.324,0,0
297659,206.362,-482.51,0,0
297919,209.786,-482.928,0,0
298180,213.268,-483.609,0,0
298440,216.769,-484.579,0,0
298700.2,220.155,-485.831,0,0
298960.525,223.589,-487.356,0,0
299220.85,226.904,-489.106,0,0
299481.175,230.233,-491.068,0,0
299741.5,233.397,-493.351,0,0
300001.825,236.448,-495.816,0,0
300262.15,239.586,-498.512,0,0
300522.475,242.644,-501.534,0,0
300782.8,245.483,-504.941,0,0
301043.125,248.359,-508.735,0,0
301303.45,250.81,-512.873,0,0
301563.775,253.074,-517.301,0,0
301824.1,254.957,-522.034,0,0
302084.425,256.659,-527.349,0,0
302344.75,257.62,-532.974,0,0
302605.075,257.913,-538.858,0,0
302865.4,257.405,-544.791,0,0
303125.725,256.18,-550.558,0,0
303386.05,254.32,-556.008,0,0
303646.375,251.994,-561.082,0,0
303906.7,249.309,-565.749,0,0
304167.025,246.369,-570.047,0,0
304427.35,243.27,-574.078,0,0
304687.675,239.918,-577.862,0,0
304948.0,236.296,-581.366,0,0
305208.325,232.447,-584.533,0,0
305468.65,228.426,-587.335,0,0
305728.975,224.308,-589.763,0,0
305989.3,220.095,-591.841,0,0
306249.625,215.8,-593.563,0,0
306509.95,211.5,-594.926,0,0
306770.275,207.247,-595.907,0,0
307030.6,203.089,-596.578,0,0
307290.925,199.089,-596.984,0,0
307551.25,195.211,-597.19,0,0
307811.575,191.401,-597.222,0,0
308071.9,187.676,-597.074,0,0
308332.225,184.046,-596.694,0,0
308592.55,180.541,-596.135,0,0
308852.875,177.174,-595.365,0,0
309113.2,173.986,-594.475,0,0
309373.525,170.991,-593.442,0,0
309633.85,168.142,-592.324,0,0
309894.175,165.443,-591.162,0,0
310154.5,162.905,-589.96,0,0
310414.825,160.529,-588.704,0,0
310675.15,158.252,-587.46,0,0
310935.475,156.053,-586.201,0,0
311195.8,153.981,-584.88,0,0
311456.125,152.01,-583.579,0,0
311716.45,150.156,-582.256,0,0
311976.775,148.416,-580.988,0,0
312237.1,146.708,-579.766,0,0
312497.425,145.019,-578.562,0,0
312757.75,143.372,-577.358,0,0
313018.075,141.744,-576.145,0,0
313278.4,140.135,-574.917,0,0
313538.725,138.546,-573.664,0,0
313799.05,136.976,-572.369,0,0
314059.375,135.446,-570.993,0,0
314319.7,133.967,-569.561,0,0
314580,132.588,-568.097,0,0
314840,131.326,-566.576,0,0
315101,130.123,-565.093,0,0
315361,129.091,-563.525,0,0
315621,128.081,-562.014,0,0
315882,127.104,-560.596,0,0
316142,126.273,-559.145,0,0
316402,125.455,-557.694,0,0
316663,124.789,-556.361,0,0
316923,124.03,-555.054,0,0
317183,123.459,-553.748,0,0
317444,122.851,-552.515,0,0
317704,122.362,-551.312,0,0
317964,121.658,-550.181,0,0
318225,121.129,-549.029,0,0
318485,120.57,-547.827,0,0
318745,120.108,-546.605,0,0
319006,119.703,-545.462,0,0
319266,119.338,-544.397,0,0
319526,118.975,-543.334,0,0
319787,118.765,-542.326,0,0
320047,118.515,-541.437,0,0
320307,118.326,-540.627,0,0
320567,118.062,-539.955,0,0
320828,117.823,-539.287,0,0
321088,117.437,-538.651,0,0
321348,117.04,-538.055,0,0
321609,116.576,-537.503,0,0
321869,116.151,-537.016,0,0
322129,115.657,-536.481,0,0
322390,115.026,-535.956,0,0
322650,114.4,-535.43,0,0
322910,113.652,-534.805,0,0
323171,112.981,-534.216,0,0
323431,112.333,-533.535,0,0
323691,111.657,-532.871,0,0
323952,110.953,-532.12,0,0
324212,110.184,-531.412,0,0
324472,109.507,-530.607,0,0
324733,108.812,-529.818,0,0
324993,108.235,-528.909,0,0
325253,107.609,-528.083,0,0
325514,107.042,-527.156,0,0
325774,106.545,-526.298,0,0
326034,106.096,-525.495,0,0
326295,105.647,-524.7,0,0
326555,105.29,-523.97,0,0
326815,104.837,-523.242,0,0
327076,104.377,-522.481,0,0
327336,103.936,-521.806,0,0
327596,103.537,-521.181,0,0
327857,103.079,-520.525,0,0
328117,102.586,-519.938,0,0
328377,102.063,-519.42,0,0
328638,101.462,-518.748,0,0
328898,100.976,-518.162,0,0
329158,100.334,-517.476,0,0
329419,99.7591,-516.815,0,0
329679,99.2279,-516.215,0,0
329939,98.6738,-515.509,0,0
330200,98.1322,-514.793,0,0
330460,97.5399,-514.125,0,0
330720.15,97.008,-513.523,0,0
330980.475,96.5029,-512.866,0,0
331240.8,96.0367,-512.31,0,0
331501.125,95.3886,-511.78,0,0
331761.45,94.7127,-511.285,0,0
332021.775,94.0568,-510.674,0,0
332282.1,93.2741,-510.103,0,0
332542.425,92.4348,-509.511,0,0
332802.75,91.5819,-508.777,0,0
333063.075,90.7553,-508.012,0,0
333323.4,89.816,-507.272,0,0
333583.725,88.9479,-506.361,0,0
333844.05,88.1651,-505.459,0,0
334104.375,87.2851,-504.44,0,0
334364.7,86.556,-503.551,0,0
334625.025,85.7734,-502.4,0,0
334885.35,85.0749,-501.402,0,0
335145.675,84.358,-500.274,0,0
335406.0,83.6928,-499.284,0,0
335666.325,83.1142,-498.248,0,0
335926.65,82.4177,-497.104,0,0
336186.975,81.7592,-496.031,0,0
336447.3,81.1991,-494.83,0,0
336707.625,80.582,-493.679,0,0
336967.95,80.0354,-492.496,0,0
337228.275,79.4326,-491.249,0,0
337488.6,79.0331,-490.048,0,0
337748.925,78.6531,-488.838,0,0
338009.25,78.1192,-487.531,0,0
338269.575,77.799,-486.298,0,0
338529.9,77.4159,-485.1,0,0
338790.225,77.1276,-483.865,0,0
339050.55,76.8951,-482.66,0,0
339310.875,76.6028,-481.431,0,0
339571.2,76.3179,-480.233,0,0
339831.525,76.0832,-479.041,0,0
340091.85,75.902,-477.84,0,0
340352.175,75.7423,-476.638,0,0
340612.5,75.5709,-475.459,0,0
340872.825,75.385,-474.25,0,0
341133.15,75.2072,-473.113,0,0
341393.475,75.1439,-471.89,0,0
341653.8,75.0685,-470.723,0,0
341914.125,75.0948,-469.525,0,0
342174.45,75.0556,-468.353,0,0
342434.775,75.0401,-467.239,0,0
342695.1,75.0736,-466.066,0,0
342955.425,75.2315,-464.98,0,0
343215.75,75.2679,-463.878,0,0
343476.075,75.3173,-462.782,0,0
343736.4,75.4903,-461.722,0,0
343996.725,75.672,-460.642,0,0
344257.05,75.8837,-459.685,0,0
344517.375,76.0693,-458.718,0,0
344777.7,76.2875,-457.807,0,0
345038.025,76.5011,-456.91,0,0
345298.35,76.7078,-456.058,0,0
345558.675,76.9071,-455.239,0,0
345819.0,77.1226,-454.412,0,0
346079.325,77.2999,-453.625,0,0
346339.65,77.4708,-452.873,0,0
346599.975,77.6638,-452.202,0,0
346860,77.807,-451.495,0,0
347121,77.9539,-450.865,0,0
347381,78.0524,-450.221,0,0
347641,78.1009,-449.645,0,0
347902,78.1156,-448.989,0,0
348162,78.0484,-448.393,0,0
348422,77.976,-447.767,0,0
348683,77.9019,-447.089,0,0
348943,77.7707,-446.353,0,0
349203,77.6435,-445.57,0,0
349464,77.5351,-444.739,0,0
349724,77.4784,-444.008,0,0
349984,77.3495,-443.188,0,0
350245,77.2838,-442.307,0,0
350505,77.2109,-441.423,0,0
350765,77.1324,-440.541,0,0
351025,77.0782,-439.583,0,0
351286,77.0612,-438.652,0,0
351546,77.1953,-437.652,0,0
351806,77.275,-436.666,0,0
352067,77.3837,-435.698,0,0
352327,77.6356,-434.801,0,0
352587,77.8579,-433.838,0,0
352848,78.0883,-432.936,0,0
353108,78.3532,-432.047,0,0
353368,78.7184,-431.162,0,0
353629,79.0967,-430.37,0,0
353889,79.4486,-429.621,0,0
354149,79.8491,-428.892,0,0
354410,80.2164,-428.292,0,0
354670,80.6572,-427.636,0,0
354930,81.0266,-427.109,0,0
355191,81.3426,-426.626,0,0
355451,81.7265,-426.213,0,0
355711,81.9298,-425.804,0,0
355972,82.1659,-425.445,0,0
356232,82.3072,-425.093,0,0
356492,82.4738,-424.77,0,0
356753,82.4591,-424.406,0,0
357013,82.4614,-424.127,0,0
357273,82.3977,-423.783,0,0
357534,82.2574,-423.348,0,0
357794,82.0637,-422.937,0,0
358054,81.8671,-422.472,0,0
358315,81.4954,-421.919,0,0
358575,81.1681,-421.283,0,0
358835,80.8619,-420.559,0,0
359096,80.5662,-419.688,0,0
359356,80.3368,-418.814,0,0
359616,80.151,-417.819,0,0
359877,80.0733,-416.742,0,0
360137,80.0242,-415.701,0,0
360397,80.1088,-414.67,0,0
360658,80.2222,-413.611,0,0
360918,80.424,-412.616,0,0
361178,80.6761,-411.648,0,0
361438,80.9139,-410.665,0,0
361699,81.2328,-409.742,0,0
361959,81.5469,-408.832,0,0
362219,81.889,-407.945,0,0
362480,82.2673,-407.066,0,0
362740.1,82.6397,-406.219,0,0
363000.425,83.0186,-405.43,0,0
363260.75,83.4613,-404.638,0,0
363521.075,83.82,-403.85,0,0
363781.4,84.2317,-403.045,0,0
364041.725,84.7003,-402.286,0,0
364302.05,85.1603,-401.507,0,0
364562.375,85.6913,-400.768,0,0
364822.7,86.2405,-400.064,0,0
365083.025,86.8079,-399.4,0,0
365343.35,87.4154,-398.783,0,0
365603.675,88.0006,-398.276,0,0
365864.0,88.6046,-397.774,0,0
366124.325,89.1712,-397.317,0,0
366384.65,89.6873,-396.887,0,0
366644.975,90.1687,-396.503,0,0
366905.3,90.6418,-396.125,0,0
367165.625,91.0949,-395.719,0,0
367425.95,91.582,-395.302,0,0
367686.275,92.0711,-394.901,0,0
367946.6,92.5809,-394.592,0,0
368206.925,93.1634,-394.268,0,0
368467.25,93.6866,-394.028,0,0
368727.575,94.2027,-393.884,0,0
368987.9,94.7142,-393.795,0,0
369248.225,95.1032,-393.755,0,0
369508.55,95.4791,-393.81,0,0
369768.875,95.7456,-393.957,0,0
370029.2,95.872,-394.063,0,0
370289.525,95.8839,-394.19,0,0
370549.85,95.712,-394.257,0,0
370810.175,95.4589,-394.254,0,0
371070.5,95.1322,-394.133,0,0
371330.825,94.6635,-393.902,0,0
371591.15,94.209,-393.486,0,0
371851.475,93.7979,-392.97,0,0
372111.8,93.4228,-392.267,0,0
372372.125,93.1581,-391.49,0,0
372632.45,92.9567,-390.622,0,0
372892.775,92.8151,-389.728,0,0
373153.1,92.8101,-388.814,0,0
373413.425,92.898,-387.876,0,0
373673.75,93.0554,-386.989,0,0
373934.075,93.2757,-386.131,0,0
374194.4,93.5525,-385.297,0,0
374454.725,93.8436,-384.521,0,0
374715.05,94.1471,-383.729,0,0
374975.375,94.488,-383.004,0,0
375235.7,94.8482,-382.262,0,0
375496.025,95.2007,-381.547,0,0
375756.35,95.5596,-380.814,0,0
376016.675,95.9637,-380.127,0,0
376277.0,96.3892,-379.469,0,0
376537.325,96.7901,-378.833,0,0
376797.65,97.1652,-378.186,0,0
377057.975,97.5241,-377.585,0,0
377318.3,97.9076,-376.951,0,0
377578.625,98.2637,-376.312,0,0
377838.95,98.639,-375.648,0,0
378099.275,99.093,-374.868,0,0
378359.6,99.541,-374.142,0,0
378619.925,100.062,-373.359,0,0
378880,100.663,-372.631,0,0
379141,101.249,-371.943,0,0
379401,101.957,-371.32,0,0
379661,102.615,-370.708,0,0
379922,103.359,-370.163,0,0
380182,104.09,-369.632,0,0
380442,104.836,-369.169,0,0
380703,105.516,-368.705,0,0
380963,106.228,-368.299,0,0
381223,106.927,-367.916,0,0
381483,107.671,-367.478,0,0
381744,108.365,-367.128,0,0
382004,109.143,-366.746,0,0
382264,109.84,-366.421,0,0
382525,110.644,-366.129,0,0
382785,111.403,-365.845,0,0
383045,112.14,-365.661,0,0
383306,112.93,-365.491,0,0
383566,113.643,-365.392,0,0
383826,114.351,-365.337,0,0
384087,114.991,-365.221,0,0
384347,115.638,-365.189,0,0
384607,116.25,-365.168,0,0
384868,116.832,-365.143,0,0
385128,117.349,-365.079,0,0
385388,117.909,-365.127,0,0
385649,118.327,-365.081,0,0
385909,118.819,-365.027,0,0
386169,119.232,-364.914,0,0
386430,119.723,-364.863,0,0
386690,120.185,-364.763,0,0
386950,120.581,-364.68,0,0
387211,121.036,-364.547,0,0
387471,121.428,-364.459,0,0
387731,121.813,-364.324,0,0
387992,122.218,-364.153,0,0
388252,122.596,-363.911,0,0
388512,122.982,-363.63,0,0
388773,123.444,-363.355,0,0
389033,124.006,-363.02,0,0
389293,124.588,-362.745,0,0
389554,125.185,-362.463,0,0
389814,125.891,-362.196,0,0
390074,126.584,-362.031,0,0
390335,127.297,-361.835,0,0
390595,128.122,-361.69,0,0
390855,128.817,-361.573,0,0
391116,129.598,-361.511,0,0
391376,130.34,-361.519,0,0
391636,131.063,-361.472,0,0
391896,131.75,-361.496,0,0
392157,132.517,-361.471,0,0
392417,133.317,-361.477,0,0
392677,134.126,-361.533,0,0
392938,134.963,-361.594,0,0
393198,135.741,-361.686,0,0
393458,136.556,-361.839,0,0
393719,137.355,-362.034,0,0
393979,138.198,-362.212,0,0
394239,138.983,-362.376,0,0
394500,139.82,-362.571,0,0
394760.05,140.72,-362.814,0,0
395020.375,141.651,-363.145,0,0
395280.7,142.542,-363.465,0,0
395541.025,143.481,-363.944,0,0
395801.35,144.373,-364.442,0,0
396061.675,145.268,-364.981,0,0
396322.0,146.116,-365.581,0,0
396582.325,147.004,-366.195,0,0
396842.65,147.876,-366.895,0,0
397102.975,148.741,-367.704,0,0
397363.3,149.581,-368.536,0,0
397623.625,150.366,-369.473,0,0
397883.95,151.105,-370.466,0,0
398144.275,151.772,-371.497,0,0
398404.6,152.441,-372.679,0,0
398664.925,153.033,-373.882,0,0
398925.25,153.477,-375.212,0,0
399185.575,153.873,-376.556,0,0
399445.9,154.08,-377.973,0,0
399706.225,154.209,-379.41,0,0
399966.55,154.229,-380.855,0,0
400006.6,154.193,-381.084,0,0