File: Accelerated corrosion test data/2025-10-01_18-00-03/sample_6.csv
Frequency (Hz),Impedance (ohms),Phase (Radians),Temperature (C),Humidity (%)
10000.0,4320.38,-6168.9,0,0
10260.325,4187.14,-6106.73,0,0
10520.65,4058.55,-6044.23,0,0
10780.975,3935.7,-5981.24,0,0
11041.3,3818.09,-5917.67,0,0
11301.625,3705.57,-5855.47,0,0
11561.95,3598.14,-5792.74,0,0
11822.275,3494.38,-5730.39,0,0
12082.6,3394.4,-5668.53,0,0
12342.925,3299.19,-5606.45,0,0
12603.25,3208.2,-5542.89,0,0
12863.575,3122.35,-5483.66,0,0
13123.9,3040.72,-5426.58,0,0
13384.225,2957.9,-5369.35,0,0
13644.55,2878.9,-5311.44,0,0
13904.875,2803.09,-5253.46,0,0
14165.2,2729.99,-5196.7,0,0
14425.525,2660.79,-5140.68,0,0
14685.8,2593.51,-5084.13,0,0
14946.175,2530.33,-5029.98,0,0
15206.5,2467.59,-4976.21,0,0
15466.825,2407.88,-4922.91,0,0
15727.15,2350.05,-4871.11,0,0
15987.5,2294.54,-4819.39,0,0
16247.8,2240.39,-4768.65,0,0
16508.125,2188.69,-4718.79,0,0
16768.45,2138.56,-4669.5,0,0
17028.775,2091.44,-4620.75,0,0
17289.1,2043.92,-4573.55,0,0
17549.425,1998.2,-4527.43,0,0
17809.75,1954.07,-4480.62,0,0
18070.075,1911.11,-4434.74,0,0
18330.4,1871.35,-4389.65,0,0
18590.725,1831.63,-4346.41,0,0
18851.05,1793.44,-4301.89,0,0
19111.375,1758.06,-4259.9,0,0
19371.7,1721.52,-4219.42,0,0
19632.025,1686.37,-4178.8,0,0
19892.35,1651.35,-4138.11,0,0
20152.675,1619.48,-4097.99,0,0
20413.0,1587.17,-4059.11,0,0
20673.3,1556.26,-4020.66,0,0
20933.65,1525.84,-3982.77,0,0
21193.975,1496.67,-3944.34,0,0
21454.3,1468.59,-3907.63,0,0
21714.625,1441.03,-3871.7,0,0
21974.9,1413.86,-3835.9,0,0
22235.275,1388.36,-3799.99,0,0
22495.6,1362.42,-3764.35,0,0
22755.925,1339.31,-3727.99,0,0
23016.25,1318.68,-3693.79,0,0
23276.6,1298.81,-3663.41,0,0
23536.9,1275.55,-3633.84,0,0
23797.225,1252.94,-3603.43,0,0
24057.55,1230.55,-3572.95,0,0
24317.875,1208.67,-3541.73,0,0
24578.2,1188.27,-3511.31,0,0
24838.525,1168.28,-3481.86,0,0
25098.85,1148.99,-3451.52,0,0
25359.175,1130.28,-3422.29,0,0
25619.5,1111.79,-3393.69,0,0
25879.8,1093.22,-3365.63,0,0
26140.1,1075.8,-3337.34,0,0
26400.5,1058.99,-3309.84,0,0
26660.8,1042.75,-3282.36,0,0
26921.1,1026.79,-3255.3,0,0
27181.4,1011.42,-3228.6,0,0
27441.8,996.751,-3202.69,0,0
27702.1,982.683,-3177.28,0,0
27962.4,968.528,-3153.04,0,0
28222.7,953.326,-3129.09,0,0
28483.1,938.813,-3104,0,0
28743.4,924.794,-3080.11,0,0
29003.7,910.484,-3055.61,0,0
29264,897.816,-3030.86,0,0
29524.4,886.198,-3007.3,0,0
29784.7,874.038,-2984.12,0,0
30045,862.57,-2961.39,0,0
30305.3,850.978,-2938.76,0,0
30565.7,840.39,-2916.92,0,0
30826,829.463,-2895.47,0,0
31086.3,818.301,-2874.19,0,0
31346.6,807.178,-2853.03,0,0
31607,796.836,-2831.53,0,0
31867.3,787.394,-2810.11,0,0
32127.6,778.449,-2789.09,0,0
32387.9,769.767,-2769,0,0
32648.3,762.086,-2748.99,0,0
32908.6,754.449,-2730.3,0,0
33168.9,746.871,-2712.26,0,0
33429.2,739.289,-2695.07,0,0
33689.6,730.641,-2678.33,0,0
33949.9,722.675,-2661.43,0,0
34210.2,713.464,-2645.63,0,0
34470.5,703.959,-2628.42,0,0
34730.9,695.34,-2611.16,0,0
34991.2,687.286,-2594.27,0,0
35251.5,679.736,-2577.62,0,0
35511.8,672.184,-2562.43,0,0
35772.2,663.206,-2547.04,0,0
36032.5,654.698,-2531.43,0,0
36292.8,645.836,-2515.42,0,0
36553.1,637.416,-2499.1,0,0
36813.5,629.135,-2483.01,0,0
37073.8,621.619,-2466.97,0,0
37334.1,613.896,-2451.02,0,0
37594.4,606.499,-2435.08,0,0
37854.8,599.437,-2419.46,0,0
38115.1,592.427,-2403.75,0,0
38375.4,585.61,-2387.96,0,0
38635.7,579.351,-2372.6,0,0
38896.1,573.005,-2357.41,0,0
39156.4,567.303,-2342.42,0,0
39416.7,561.361,-2327.49,0,0
39677,555.888,-2313.09,0,0
39937.4,550.409,-2298.87,0,0
40197.7,544.863,-2284.88,0,0
40458,539.626,-2270.96,0,0
40718.3,534.172,-2257.21,0,0
40978.7,529.438,-2243.75,0,0
41239,523.786,-2230.73,0,0
41499.3,518.645,-2217.1,0,0
41759.6,513.926,-2203.51,0,0
42020,509.563,-2190.49,0,0
42280.275,504.969,-2178.57,0,0
42540.6,499.408,-2166.45,0,0
42800.925,493.652,-2153.39,0,0
43061.25,488.294,-2139.77,0,0
43321.575,484.347,-2125.94,0,0
43581.9,481.322,-2113.23,0,0
43842.225,477.608,-2101.31,0,0
44102.55,473.073,-2089.29,0,0
44362.875,468.956,-2076.68,0,0
44623.2,465.736,-2063.86,0,0
44883.525,463.068,-2051.84,0,0
45143.85,459.767,-2040.03,0,0
45404.175,457.406,-2028.26,0,0
45664.5,455.169,-2016.91,0,0
45924.825,453.139,-2006.24,0,0
46185.15,450.678,-1996.18,0,0
46445.475,447.739,-1986.03,0,0
46705.8,445.177,-1975.48,0,0
46966.125,443.131,-1965.42,0,0
47226.45,440.74,-1955.77,0,0
47486.775,438.328,-1946.17,0,0
47747.1,436.167,-1936.91,0,0
48007.425,433.994,-1927.57,0,0
48267.75,432.466,-1918.68,0,0
48528.075,430.774,-1910.31,0,0
48788.4,428.984,-1902.74,0,0
49048.725,426.886,-1895.84,0,0
49309.05,423.97,-1889.3,0,0
49569.375,420.302,-1883.01,0,0
49829.7,416.172,-1876.37,0,0
50090.025,411.439,-1869.4,0,0
50350.35,406.239,-1862.19,0,0
50610.675,400.598,-1854.17,0,0
50871.0,395.46,-1845.23,0,0
51131.325,391.225,-1836.22,0,0
51391.65,386.944,-1827.51,0,0
51651.975,382.99,-1818.23,0,0
51912.3,379.422,-1809.52,0,0
52172.625,375.706,-1800.97,0,0
52432.95,372.201,-1791.94,0,0
52693.275,369.172,-1783.34,0,0
52953.6,366.226,-1775.24,0,0
53213.925,363.204,-1767.47,0,0
53474.25,359.374,-1759.89,0,0
53734.575,355.419,-1751.76,0,0
53994.9,351.59,-1743.31,0,0
54255.225,348.358,-1734.64,0,0
54515.55,345.42,-1726.48,0,0
54775.875,342.111,-1718.66,0,0
55036.2,338.775,-1710.87,0,0
55296.525,335.137,-1703.07,0,0
55556.85,331.056,-1694.91,0,0
55817.175,327.329,-1686.09,0,0
56077.5,323.742,-1677.06,0,0
56337.825,320.559,-1667.47,0,0
56598.15,318.465,-1657.68,0,0
56858.475,317.158,-1648.62,0,0
57118.8,316.07,-1640.14,0,0
57379.125,315.194,-1632.19,0,0
57639.45,314.356,-1624.79,0,0
57899.775,313.102,-1617.91,0,0
58160.1,311.777,-1611.36,0,0
58420.4,310.032,-1605.04,0,0
58680.7,307.923,-1598.49,0,0
58941.1,305.985,-1591.98,0,0
59201.4,303.812,-1585.63,0,0
59461.7,301.363,-1579.36,0,0
59722,298.905,-1572.8,0,0
59982.4,296.561,-1566.21,0,0
60242.7,293.913,-1559.9,0,0
60503,291.082,-1553.17,0,0
60763.3,288.527,-1546.35,0,0
61023.7,285.882,-1539.7,0,0
61284,283.188,-1532.69,0,0
61544.3,280.564,-1525.72,0,0
61804.6,277.65,-1518.5,0,0
62065,275.038,-1510.62,0,0
62325.3,273.007,-1502.56,0,0
62585.6,271.815,-1494.39,0,0
62845.9,271.393,-1486.9,0,0
63106.3,271.066,-1479.77,0,0
63366.6,271.036,-1473.29,0,0
63626.9,270.958,-1467.72,0,0
63887.2,270.51,-1462.89,0,0
64147.6,269.175,-1458.71,0,0
64407.9,266.527,-1454.15,0,0
64668.2,263.505,-1448.29,0,0
64928.5,261.361,-1442.04,0,0
65188.9,259.367,-1435.86,0,0
65449.2,257.931,-1429.91,0,0
65709.5,256.416,-1424.25,0,0
65969.8,254.258,-1418.95,0,0
66230.2,252.213,-1413.65,0,0
66490.5,249.82,-1407.8,0,0
66750.8,247.479,-1402.07,0,0
67011.1,245.136,-1396.01,0,0
67271.5,242.867,-1390,0,0
67531.8,240.527,-1383.74,0,0
67792.1,238.378,-1377.26,0,0
68052.4,236.677,-1370.94,0,0
68312.8,234.817,-1364.51,0,0
68573.1,233.155,-1358.23,0,0
68833.4,231.554,-1351.69,0,0
69093.7,229.964,-1345.51,0,0
69354.1,228.475,-1338.98,0,0
69614.4,227.158,-1332.53,0,0
69874.7,225.97,-1326.1,0,0
70135,224.969,-1319.71,0,0
70395.4,223.997,-1313.38,0,0
70655.7,223.218,-1307.14,0,0
70916,222.421,-1300.9,0,0
71176.3,221.859,-1294.71,0,0
71436.7,221.412,-1288.76,0,0
71697,221.018,-1282.77,0,0
71957.3,220.694,-1276.99,0,0
72217.6,220.398,-1271.29,0,0
72478,220.181,-1265.58,0,0
72738.3,220.12,-1260.01,0,0
72998.6,220.105,-1254.64,0,0
73258.9,220.238,-1249.41,0,0
73519.3,220.173,-1244.38,0,0
73779.6,220.167,-1239.57,0,0
74039.9,220.062,-1234.84,0,0
74300.225,219.749,-1230.13,0,0
74560.55,219.471,-1225.38,0,0
74820.875,219.293,-1220.72,0,0
75081.2,219.04,-1216.08,0,0
75341.525,218.887,-1211.47,0,0
75601.85,218.66,-1207.05,0,0
75862.175,218.415,-1202.71,0,0
76122.5,217.995,-1198.4,0,0
76382.825,217.459,-1194.04,0,0
76643.15,216.943,-1189.66,0,0
76903.475,216.465,-1185.12,0,0
77163.8,216.142,-1180.54,0,0
77424.125,215.894,-1176.06,0,0
77684.45,215.722,-1171.67,0,0
77944.775,215.588,-1167.36,0,0
78205.1,215.467,-1163.13,0,0
78465.425,215.321,-1158.99,0,0
78725.75,215.243,-1154.89,0,0
78986.075,215.179,-1150.89,0,0
79246.4,215.133,-1147.06,0,0
79506.725,215.005,-1143.21,0,0
79767.05,214.926,-1139.53,0,0
80027.375,214.745,-1135.91,0,0
80287.7,214.514,-1132.34,0,0
80548.025,214.269,-1128.85,0,0
80808.35,213.975,-1125.38,0,0
81068.675,213.51,-1121.95,0,0
81329.0,213.04,-1118.57,0,0
81589.325,212.511,-1115.16,0,0
81849.65,211.994,-1111.78,0,0
82109.975,211.345,-1108.46,0,0
82370.3,210.665,-1105.07,0,0
82630.625,209.942,-1101.71,0,0
82890.95,209.093,-1098.36,0,0
83151.275,208.28,-1094.96,0,0
83411.6,207.313,-1091.51,0,0
83671.925,206.324,-1088.01,0,0
83932.25,205.344,-1084.39,0,0
84192.575,204.358,-1080.61,0,0
84452.9,203.412,-1076.77,0,0
84713.225,202.638,-1072.88,0,0
84973.55,201.883,-1068.94,0,0
85233.875,201.272,-1064.93,0,0
85494.2,200.883,-1061.04,0,0
85754.525,200.45,-1057.07,0,0
86014.85,200.166,-1053.31,0,0
86275.175,199.898,-1049.68,0,0
86535.5,199.701,-1045.98,0,0
86795.825,199.528,-1042.46,0,0
87056.15,199.31,-1039.16,0,0
87316.475,199.007,-1035.75,0,0
87576.8,198.594,-1032.44,0,0
87837.125,198.08,-1029.13,0,0
88097.45,197.698,-1025.7,0,0
88357.775,197.246,-1022.27,0,0
88618.1,196.974,-1018.84,0,0
88878.425,196.633,-1015.35,0,0
89138.75,196.26,-1011.86,0,0
89399.075,196.167,-1008.73,0,0
89659.4,195.911,-1005.14,0,0
89919.725,195.882,-1001.94,0,0
90180,195.767,-998.794,0,0
90440.4,195.705,-995.799,0,0
90700.7,195.564,-992.904,0,0
90961,195.29,-990.124,0,0
91221.3,194.757,-987.447,0,0
91481.7,193.902,-984.563,0,0
91742,193.073,-981.173,0,0
92002.3,192.612,-977.729,0,0
92262.6,192.209,-974.393,0,0
92523,191.896,-970.762,0,0
92783.3,192.095,-967.56,0,0
93043.6,191.951,-964.894,0,0
93303.9,191.512,-961.884,0,0
93564.3,190.99,-958.617,0,0
93824.6,190.717,-955.22,0,0
94084.9,190.51,-951.781,0,0
94345.2,190.595,-948.204,0,0
94605.6,191.176,-944.926,0,0
94865.9,192.053,-942.149,0,0
95126.2,192.497,-939.901,0,0
95386.5,192.317,-937.803,0,0
95646.9,192.03,-935.302,0,0
95907.2,191.832,-932.543,0,0
96167.5,191.892,-929.932,0,0
96427.8,191.837,-927.735,0,0
96688.2,191.419,-925.607,0,0
96948.5,190.648,-923.308,0,0
97208.8,189.797,-920.661,0,0
97469.1,188.889,-917.554,0,0
97729.5,188.346,-914.232,0,0
97989.8,188.051,-910.838,0,0
98250.1,187.99,-907.349,0,0
98510.4,188.325,-903.769,0,0
98770.8,189.185,-900.222,0,0
99031.1,190.693,-897.189,0,0
99291.4,192.313,-895.013,0,0
99551.7,193.8,-893.536,0,0
99812.1,194.775,-892.703,0,0
100072,194.996,-892.112,0,0
100333,194.725,-891.34,0,0
100593,193.922,-890.339,0,0
100853,193.094,-889.151,0,0
101114,191.891,-887.833,0,0
101374,190.399,-886.016,0,0
101634,189.149,-883.657,0,0
101895,188.448,-881.113,0,0
102155,188.047,-878.735,0,0
102415,187.994,-876.706,0,0
102676,187.747,-875.122,0,0
102936,187.417,-873.766,0,0
103196,186.757,-872.704,0,0
103457,185.655,-871.819,0,0
103717,184.166,-870.843,0,0
103977,182.259,-869.771,0,0
104238,179.955,-868.333,0,0
104498,177.413,-866.563,0,0
104758,174.754,-864.512,0,0
105019,171.801,-862.096,0,0
105279,168.699,-859.122,0,0
105539,165.723,-855.393,0,0
105800,163.174,-850.98,0,0
106060,161.378,-846.369,0,0
106320.175,159.851,-842.116,0,0
106580.5,158.402,-837.463,0,0
106840.825,157.442,-832.466,0,0
107101.15,157.18,-827.681,0,0
107361.475,157.263,-823.115,0,0
107621.8,157.445,-818.946,0,0
107882.125,157.871,-814.701,0,0
108142.45,158.653,-810.781,0,0
108402.775,159.46,-807.415,0,0
108663.1,159.949,-804.24,0,0
108923.425,160.288,-800.985,0,0
109183.75,160.839,-797.702,0,0
109444.075,161.398,-794.682,0,0
109704.4,161.802,-791.723,0,0
109964.725,162.171,-788.725,0,0
110225.05,162.596,-785.718,0,0
110485.375,163.122,-782.724,0,0
110745.7,163.495,-779.64,0,0
111006.025,164.063,-776.721,0,0
111266.35,164.769,-773.514,0,0
111526.675,165.79,-770.891,0,0
111787.0,166.645,-768.179,0,0
112047.325,167.696,-765.593,0,0
112307.65,168.468,-763.329,0,0
112567.975,169.139,-760.998,0,0
112828.3,169.938,-758.621,0,0
113088.625,170.583,-756.246,0,0
113348.95,171.486,-753.797,0,0
113609.275,172.687,-751.702,0,0
113869.6,173.491,-750.148,0,0
114129.925,173.855,-748.312,0,0
114390.25,174.304,-746.223,0,0
114650.575,174.996,-744.133,0,0
114910.9,175.584,-742.333,0,0
115171.225,176.227,-740.293,0,0
115431.55,177.011,-738.423,0,0
115691.875,177.736,-736.656,0,0
115952.2,178.491,-734.947,0,0
116212.525,179.413,-733.589,0,0
116472.85,180.144,-732.507,0,0
116733.175,180.446,-731.687,0,0
116993.5,180.266,-730.666,0,0
117253.825,179.967,-729.454,0,0
117514.15,179.567,-728.153,0,0
117774.475,178.933,-726.713,0,0
118034.8,178.042,-724.825,0,0
118295.125,177.35,-722.424,0,0
118555.45,177.109,-719.719,0,0
118815.775,177.398,-717.089,0,0
119076.1,177.78,-714.84,0,0
119336.425,177.896,-712.616,0,0
119596.75,178.062,-709.851,0,0
119857.075,179.118,-706.724,0,0
120117.4,180.916,-704.136,0,0
120377.725,183.173,-702.347,0,0
120638.05,185.423,-701.58,0,0
120898.375,187.091,-701.484,0,0
121158.7,188.236,-701.825,0,0
121419.025,188.573,-702.472,0,0
121679.35,188.094,-702.971,0,0
121939.675,186.981,-702.895,0,0
122200.0,185.844,-702.178,0,0
122460,184.74,-701.145,0,0
122721,183.79,-699.883,0,0
122981,182.97,-698.535,0,0
123241,182.213,-697.096,0,0
123502,181.524,-695.549,0,0
123762,180.968,-694,0,0
124022,180.467,-692.516,0,0
124283,179.987,-691.148,0,0
124543,179.267,-689.864,0,0
124803,178.392,-688.341,0,0
125064,177.574,-686.637,0,0
125324,176.936,-684.854,0,0
125584,176.39,-683.103,0,0
125845,175.802,-681.421,0,0
126105,175.196,-679.796,0,0
126365,174.439,-677.976,0,0
126626,173.692,-676.177,0,0
126886,172.957,-674.144,0,0
127146,172.243,-672.068,0,0
127406,171.661,-669.771,0,0
127667,171.288,-667.388,0,0
127927,171.053,-664.999,0,0
128187,171.05,-662.612,0,0
128448,171.256,-660.304,0,0
128708,171.79,-658.08,0,0
128968,172.364,-656.256,0,0
129229,172.966,-654.725,0,0
129489,173.418,-653.463,0,0
129749,173.614,-652.338,0,0
130010,173.689,-651.221,0,0
130270,173.631,-650.096,0,0
130530,173.513,-648.957,0,0
130791,173.378,-647.829,0,0
131051,173.204,-646.723,0,0
131311,172.922,-645.788,0,0
131572,172.432,-644.859,0,0
131832,171.778,-643.758,0,0
132092,171.191,-642.639,0,0
132353,170.608,-641.525,0,0
132613,169.86,-640.434,0,0
132873,168.96,-639.346,0,0
133134,168.035,-638.185,0,0
133394,166.964,-636.956,0,0
133654,165.685,-635.701,0,0
133915,164.419,-634.137,0,0
134175,163.147,-632.525,0,0
134435,161.905,-630.792,0,0
134696,160.619,-628.954,0,0
134956,159.365,-627.023,0,0
135216,158.181,-624.978,0,0
135477,156.939,-622.864,0,0
135737,155.744,-620.591,0,0
135997,154.691,-618.307,0,0
136258,153.629,-615.908,0,0
136518,152.666,-613.489,0,0
136778,151.723,-611.002,0,0
137039,150.913,-608.445,0,0
137299,150.168,-605.919,0,0
137559,149.398,-603.354,0,0
137819,148.702,-600.774,0,0
138080,148.078,-598.08,0,0
138340.125,147.526,-595.437,0,0
138600.45,147.002,-592.783,0,0
138860.775,146.567,-590.109,0,0
139121.1,146.149,-587.407,0,0
139381.425,145.807,-584.709,0,0
139641.75,145.487,-582.039,0,0
139902.075,145.212,-579.281,0,0
140162.4,145.017,-576.542,0,0
140422.725,144.852,-573.763,0,0
140683.05,144.84,-570.968,0,0
140943.375,144.92,-568.254,0,0
141203.7,145.048,-565.631,0,0
141464.025,145.2,-563.084,0,0
141724.35,145.303,-560.567,0,0
141984.675,145.405,-558.067,0,0
142245.0,145.442,-555.562,0,0
142505.325,145.468,-552.963,0,0
142765.65,145.606,-550.295,0,0
143025.975,145.757,-547.624,0,0
143286.3,146.017,-544.896,0,0
143546.625,146.507,-542.116,0,0
143806.95,147.188,-539.461,0,0
144067.275,147.955,-537.02,0,0
144327.6,148.668,-534.765,0,0
144587.925,149.409,-532.559,0,0
144848.25,150.149,-530.601,0,0
145108.575,150.737,-528.746,0,0
145368.9,151.22,-526.936,0,0
145629.225,151.595,-525.202,0,0
145889.55,151.777,-523.503,0,0
146149.875,151.806,-521.686,0,0
146410.2,151.833,-519.793,0,0
146670.525,151.784,-517.833,0,0
146930.85,151.714,-515.791,0,0
147191.175,151.596,-513.729,0,0
147451.5,151.491,-511.572,0,0
147711.825,151.331,-509.389,0,0
147972.15,151.171,-507.099,0,0
148232.475,150.977,-504.719,0,0
148492.8,150.81,-502.182,0,0
148753.125,150.733,-499.592,0,0
149013.45,150.732,-496.972,0,0
149273.775,150.712,-494.318,0,0
149534.1,150.668,-491.582,0,0
149794.425,150.708,-488.694,0,0
150054.75,150.825,-485.688,0,0
150315.075,151.09,-482.552,0,0
150575.4,151.532,-479.43,0,0
150835.725,152.035,-476.297,0,0
151096.05,152.601,-473.063,0,0
151356.375,153.273,-469.676,0,0
151616.7,154.322,-466.165,0,0
151877.025,155.763,-462.71,0,0
152137.35,157.492,-459.373,0,0
152397.675,159.564,-456.332,0,0
152658.0,161.941,-453.705,0,0
152918.325,164.273,-451.612,0,0
153178.65,166.326,-450.085,0,0
153438.975,167.987,-448.723,0,0
153699.3,169.309,-447.278,0,0
153959.625,170.33,-445.814,0,0
154219.95,171.232,-444.082,0,0
154480,172.015,-442.195,0,0
154741,172.829,-440.075,0,0
155001,173.89,-437.719,0,0
155261,175.048,-435.32,0,0
155522,176.519,-432.931,0,0
155782,178.281,-430.55,0,0
156042,180.261,-428.395,0,0
156303,182.511,-426.521,0,0
156563,184.783,-425.048,0,0
156823,187.012,-424.127,0,0
157084,188.903,-423.513,0,0
157344,190.298,-423.05,0,0
157604,191.394,-422.462,0,0
157864,192.331,-421.749,0,0
158125,193.066,-421.031,0,0
158385,193.74,-420.151,0,0
158645,194.324,-419.2,0,0
158906,194.829,-418.132,0,0
159166,195.342,-416.898,0,0
159426,195.983,-415.74,0,0
159687,196.467,-414.581,0,0
159947,196.938,-413.33,0,0
160207,197.353,-412.027,0,0
160468,197.808,-410.692,0,0
160728,198.213,-409.235,0,0
160988,198.682,-407.86,0,0
161249,199.119,-406.419,0,0
161509,199.602,-405.068,0,0
161769,200.022,-403.746,0,0
162030,200.207,-402.366,0,0
162290,200.357,-400.733,0,0
162550,200.719,-399.065,0,0
162811,201.032,-397.523,0,0
163071,201.308,-395.893,0,0
163331,201.575,-394.22,0,0
163592,201.876,-392.566,0,0
163852,202.002,-391.022,0,0
164112,201.958,-389.333,0,0
164373,201.759,-387.357,0,0
164633,201.638,-385.108,0,0
164893,201.802,-382.63,0,0
165154,202.157,-380.108,0,0
165414,202.586,-377.719,0,0
165674,203.18,-375.19,0,0
165935,203.876,-372.726,0,0
166195,204.671,-370.44,0,0
166455,205.4,-368.085,0,0
166716,206.2,-365.861,0,0
166976,206.938,-363.669,0,0
167236,207.662,-361.342,0,0
167497,208.382,-358.989,0,0
167757,209.228,-356.642,0,0
168017,210.074,-354.301,0,0
168277,210.987,-351.889,0,0
168538,211.936,-349.541,0,0
168798,212.992,-347.212,0,0
169058,214.025,-344.917,0,0
169319,215.073,-342.641,0,0
169579,216.154,-340.417,0,0
169839,217.169,-338.315,0,0
170100,218.086,-336.187,0,0
170360.075,218.933,-333.985,0,0
170620.4,219.729,-331.699,0,0
170880.725,220.59,-329.339,0,0
171141.05,221.483,-326.974,0,0
171401.375,222.41,-324.518,0,0
171661.7,223.385,-322.07,0,0
171922.025,224.355,-319.556,0,0
172182.35,225.307,-317.112,0,0
172442.675,226.294,-314.593,0,0
172703.0,227.254,-312.057,0,0
172963.325,228.226,-309.489,0,0
173223.65,229.207,-306.922,0,0
173483.975,230.127,-304.305,0,0
173744.3,231.012,-301.566,0,0
174004.625,231.888,-298.701,0,0
174264.95,232.815,-295.677,0,0
174525.275,233.828,-292.596,0,0
174785.6,234.881,-289.459,0,0
175045.925,235.958,-286.184,0,0
175306.25,237.192,-282.829,0,0
175566.575,238.482,-279.354,0,0
175826.9,239.947,-275.868,0,0
176087.225,241.477,-272.27,0,0
176347.55,243.031,-268.654,0,0
176607.875,244.721,-264.956,0,0
176868.2,246.561,-261.063,0,0
177128.525,248.573,-257.193,0,0
177388.85,250.742,-253.337,0,0
177649.175,252.977,-249.486,0,0
177909.5,255.327,-245.574,0,0
178169.825,257.791,-241.568,0,0
178430.15,260.41,-237.485,0,0
178690.475,263.298,-233.346,0,0
178950.8,266.386,-229.215,0,0
179211.125,269.752,-225.096,0,0
179471.45,273.355,-221.07,0,0
179731.775,277.192,-217.154,0,0
179992.1,281.236,-213.502,0,0
180252.425,285.35,-209.962,0,0
180512.75,289.52,-206.63,0,0
180773.075,293.76,-203.367,0,0
181033.4,298.118,-200.225,0,0
181293.725,302.523,-197.184,0,0
181554.05,307.071,-194.284,0,0
181814.375,311.626,-191.517,0,0
182074.7,316.291,-188.86,0,0
182335.025,321.015,-186.421,0,0
182595.35,325.693,-184.245,0,0
182855.675,330.242,-182.128,0,0
183116.0,334.713,-180.011,0,0
183376.325,339.177,-177.923,0,0
183636.65,343.799,-175.857,0,0
183896.975,348.416,-173.87,0,0
184157.3,353.169,-172.027,0,0
184417.625,357.91,-170.41,0,0
184677.95,362.543,-169.037,0,0
184938.275,367.036,-167.889,0,0
185198.6,371.284,-166.852,0,0
185458.925,375.255,-165.79,0,0
185719.25,378.97,-164.742,0,0
185979.575,382.532,-163.585,0,0
186239.9,385.654,-162.243,0,0
186500,388.796,-160.831,0,0
186761,391.727,-158.864,0,0
187021,394.54,-156.756,0,0
187281,397.173,-154.272,0,0
187542,399.726,-151.315,0,0
187802,402.402,-147.788,0,0
188062,405.25,-143.761,0,0
188322,408.537,-139.3,0,0
188583,412.105,-134.534,0,0
188843,416.075,-129.396,0,0
189103,420.439,-123.911,0,0
189364,425.126,-118.008,0,0
189624,430.502,-111.668,0,0
189884,436.604,-104.967,0,0
190145,443.762,-98.1344,0,0
190405,451.724,-91.3463,0,0
190665,460.54,-84.8034,0,0
190926,470.179,-78.4849,0,0
191186,480.62,-72.5887,0,0
191446,491.64,-67.2004,0,0
191707,503.28,-62.3987,0,0
191967,515.336,-58.3243,0,0
192227,527.557,-54.5719,0,0
192488,540.155,-51.2599,0,0
192748,553.142,-48.3555,0,0
193008,566.351,-45.6881,0,0
193269,580.071,-43.1765,0,0
193529,594.413,-41.1662,0,0
193789,609.483,-39.6525,0,0
194050,625.214,-38.9323,0,0
194310,641.326,-39.1397,0,0
194570,657.706,-40.1226,0,0
194831,674.52,-41.9906,0,0
195091,691.486,-44.922,0,0
195351,708.507,-48.7964,0,0
195612,725.476,-53.6335,0,0
195872,742.343,-59.2731,0,0
196132,758.967,-65.7618,0,0
196393,775.52,-73.0487,0,0
196653,791.826,-81.1827,0,0
196913,807.905,-89.9499,0,0
197174,823.686,-99.6276,0,0
197434,839.001,-110.036,0,0
197694,853.929,-120.762,0,0
197955,868.663,-132.018,0,0
198215,883.259,-143.752,0,0
198475,898.038,-156.293,0,0
198735,912.637,-169.829,0,0
198996,926.752,-184.352,0,0
199256,940.321,-199.72,0,0
199516,953.231,-215.792,0,0
199777,965.493,-232.621,0,0
200037,977.252,-249.95,0,0
200297,988.355,-268.277,0,0
200558,998.806,-286.943,0,0
200818,1008.73,-306.109,0,0
201078,1018.28,-326.356,0,0
201339,1027.19,-347.48,0,0
201599,1035.1,-369.788,0,0
201859,1041.83,-393.125,0,0
202120,1046.8,-417.238,0,0
202380.025,1050.09,-442.548,0,0
202640.35,1051.35,-467.677,0,0
202900.675,1050.62,-492.68,0,0
203161.0,1048.23,-516.875,0,0
203421.325,1044.29,-540.633,0,0
203681.65,1039.24,-563.359,0,0
203941.975,1033.06,-585.624,0,0
204202.3,1026.07,-606.881,0,0
204462.625,1018.15,-627.653,0,0
204722.95,1009.24,-647.606,0,0
204983.275,999.588,-666.676,0,0
205243.6,989.273,-685.458,0,0
205503.925,978.234,-703.004,0,0
205764.25,966.376,-719.931,0,0
206024.575,954.116,-735.755,0,0
206284.9,941.366,-750.485,0,0
206545.225,928.033,-764.51,0,0
206805.55,914.843,-777.333,0,0
207065.875,901.289,-789.277,0,0
207326.2,887.605,-800.401,0,0
207586.525,874.149,-810.676,0,0
207846.85,860.534,-820.128,0,0
208107.175,847.259,-828.76,0,0
208367.5,834.084,-836.818,0,0
208627.825,821.186,-844.22,0,0
208888.15,808.528,-850.967,0,0
209148.475,796.123,-857.498,0,0
209408.8,784.06,-863.469,0,0
209669.125,772.183,-869.051,0,0
209929.45,760.788,-874.491,0,0
210189.775,749.657,-879.724,0,0
210450.1,738.647,-885.003,0,0
210710.425,728.079,-890.393,0,0
210970.75,717.3,-895.955,0,0
211231.075,706.254,-901.787,0,0
211491.4,694.762,-907.569,0,0
211751.725,682.681,-913.284,0,0
212012.05,670.029,-918.492,0,0
212272.375,656.818,-923.189,0,0
212532.7,643.249,-926.994,0,0
212793.025,629.51,-929.939,0,0
213053.35,615.862,-932.199,0,0
213313.675,602.353,-933.72,0,0
213574.0,588.984,-934.455,0,0
213834.325,575.856,-934.747,0,0
214094.65,563.101,-934.282,0,0
214354.975,550.598,-933.399,0,0
214615.3,538.49,-931.934,0,0
214875.625,526.723,-930.232,0,0
215135.95,515.426,-927.94,0,0
215396.275,504.46,-925.65,0,0
215656.6,493.976,-922.531,0,0
215916.925,484.021,-919.812,0,0
216177.25,474.229,-916.589,0,0
216437.575,464.786,-913.339,0,0
216697.9,455.744,-909.958,0,0
216958.225,447.007,-906.386,0,0
217218.55,438.531,-902.74,0,0
217478.875,430.346,-898.981,0,0
217739.2,422.411,-895.169,0,0
217999.525,414.836,-891.202,0,0
218259.85,407.337,-887.267,0,0
218520,400.252,-883.121,0,0
218780,393.488,-879.05,0,0
219041,386.835,-874.898,0,0
219301,380.503,-870.736,0,0
219561,374.274,-866.408,0,0
219822,368.432,-862.266,0,0
220082,362.558,-858.009,0,0
220342,356.993,-853.935,0,0
220603,351.602,-849.684,0,0
220863,346.225,-845.514,0,0
221123,341.141,-841.211,0,0
221384,336.289,-836.943,0,0
221644,331.422,-832.501,0,0
221904,326.692,-828.192,0,0
222165,322.217,-823.803,0,0
222425,317.897,-819.279,0,0
222685,313.708,-814.795,0,0
222946,310.003,-810.147,0,0
223206,306.082,-805.65,0,0
223466,302.444,-800.971,0,0
223727,299.173,-796.375,0,0
223987,296.042,-791.734,0,0
224247,293.056,-786.952,0,0
224508,290.29,-782.261,0,0
224768,287.862,-777.696,0,0
225028,285.447,-772.936,0,0
225289,283.543,-768.423,0,0
225549,281.948,-763.831,0,0
225809,280.418,-759.386,0,0
226070,279.257,-755.105,0,0
226330,278.29,-750.984,0,0
226590,277.559,-747.131,0,0
226851,277.257,-743.469,0,0
227111,276.847,-740.099,0,0
227371,276.75,-736.949,0,0
227632,276.695,-734.335,0,0
227892,276.715,-731.988,0,0
228152,276.526,-730.089,0,0
228413,276.265,-728.353,0,0
228673,275.853,-726.981,0,0
228933,275.075,-725.731,0,0
229193,274.209,-724.697,0,0
229454,273.065,-723.7,0,0
229714,271.648,-722.744,0,0
229974,269.817,-721.764,0,0
230235,268.083,-720.839,0,0
230495,265.975,-719.54,0,0
230755,263.754,-718.199,0,0
231016,261.506,-716.756,0,0
231276,259.107,-715.132,0,0
231536,256.674,-713.34,0,0
231797,254.228,-711.23,0,0
232057,251.893,-709.168,0,0
232317,249.573,-706.886,0,0
232578,247.312,-704.481,0,0
232838,245.133,-701.919,0,0
233098,243.024,-699.279,0,0
233359,241.056,-696.557,0,0
233619,239.2,-693.725,0,0
233879,237.449,-690.799,0,0
234140,235.834,-687.885,0,0
234400,234.344,-684.95,0,0
234660.3,233,-681.972,0,0
234920.625,231.768,-679.005,0,0
235180.95,230.607,-676.126,0,0
235441.275,229.532,-673.11,0,0
235701.6,228.616,-670.27,0,0
235961.925,227.767,-667.311,0,0
236222.25,226.997,-664.435,0,0
236482.575,226.364,-661.591,0,0
236742.9,225.741,-658.735,0,0
237003.225,225.24,-655.927,0,0
237263.55,224.796,-653.152,0,0
237523.875,224.406,-650.406,0,0
237784.2,224.112,-647.673,0,0
238044.525,223.872,-644.962,0,0
238304.85,223.721,-642.323,0,0
238565.175,223.653,-639.715,0,0
238825.5,223.623,-637.208,0,0
239085.825,223.614,-634.509,0,0
239346.15,223.743,-632.111,0,0
239606.475,223.884,-629.561,0,0
239866.8,224.111,-627.236,0,0
240127.125,224.347,-624.754,0,0
240387.45,224.639,-622.503,0,0
240647.775,224.922,-620.197,0,0
240908.1,225.322,-617.932,0,0
241168.425,225.741,-615.697,0,0
241428.75,226.271,-613.397,0,0
241689.075,226.801,-611.23,0,0
241949.4,227.387,-609.09,0,0
242209.725,228.043,-606.977,0,0
242470.05,228.716,-604.906,0,0
242730.375,229.534,-602.834,0,0
242990.7,230.335,-600.826,0,0
243251.025,231.245,-598.878,0,0
243511.35,232.176,-596.973,0,0
243771.675,233.177,-595.159,0,0
244032.0,234.138,-593.315,0,0
244292.325,235.229,-591.566,0,0
244552.65,236.295,-589.847,0,0
244812.975,237.461,-588.181,0,0
245073.3,238.706,-586.473,0,0
245333.625,239.913,-584.883,0,0
245593.95,241.218,-583.254,0,0
245854.275,242.609,-581.617,0,0
246114.6,244.101,-580.053,0,0
246374.925,245.715,-578.493,0,0
246635.25,247.461,-576.949,0,0
246895.575,249.279,-575.593,0,0
247155.9,251.395,-574.34,0,0
247416.225,253.522,-573.113,0,0
247676.55,255.776,-572.236,0,0
247936.875,258.143,-571.444,0,0
248197.2,260.548,-570.858,0,0
248457.525,262.944,-570.559,0,0
248717.85,265.445,-570.448,0,0
248978.175,267.727,-570.55,0,0
249238.5,269.96,-570.848,0,0
249498.825,272.153,-571.319,0,0
249759.15,274.113,-571.907,0,0
250019.475,275.9,-572.497,0,0
250279.8,277.641,-572.992,0,0
250540,279.189,-573.457,0,0
250800,280.915,-573.839,0,0
251061,282.74,-574.157,0,0
251321,284.803,-574.468,0,0
251581,287.055,-574.902,0,0
251842,289.509,-575.522,0,0
252102,292.1,-576.402,0,0
252362,294.77,-577.557,0,0
252623,297.599,-579.031,0,0
252883,300.428,-580.897,0,0
253143,303.134,-583.102,0,0
253404,305.828,-585.665,0,0
253664,308.347,-588.642,0,0
253924,310.597,-591.994,0,0
254185,312.635,-595.699,0,0
254445,314.368,-599.64,0,0
254705,315.687,-603.757,0,0
254966,316.565,-608.262,0,0
255226,317.181,-612.869,0,0
255486,317.134,-617.397,0,0
255747,316.864,-621.985,0,0
256007,316.077,-626.665,0,0
256267,314.931,-631.128,0,0
256528,313.464,-635.486,0,0
256788,311.678,-639.713,0,0
257048,309.581,-643.783,0,0
257309,307.228,-647.662,0,0
257569,304.653,-651.309,0,0
257829,301.881,-654.793,0,0
258090,298.922,-658.09,0,0
258350,295.781,-661.151,0,0
258610,292.518,-664.049,0,0
258871,289.095,-666.726,0,0
259131,285.599,-669.193,0,0
259391,281.948,-671.354,0,0
259651,278.225,-673.424,0,0
259912,274.404,-675.314,0,0
260172,270.563,-676.811,0,0
260432,266.696,-678.281,0,0
260693,262.854,-679.439,0,0
260953,258.972,-680.36,0,0
261213,255.095,-681.146,0,0
261474,251.204,-681.674,0,0
261734,247.419,-682.059,0,0
261994,243.713,-682.274,0,0
262255,240.026,-682.335,0,0
262515,236.466,-682.224,0,0
262775,232.989,-682.022,0,0
263036,229.598,-681.749,0,0
263296,226.277,-681.361,0,0
263556,223.096,-680.888,0,0
263817,219.868,-680.419,0,0
264077,216.736,-679.833,0,0
264337,213.622,-679.205,0,0
264598,210.635,-678.462,0,0
264858,207.788,-677.775,0,0
265118,204.693,-676.963,0,0
265379,201.989,-675.863,0,0
265639,199.192,-674.924,0,0
265899,196.531,-673.902,0,0
266160,193.84,-672.858,0,0
266420,191.279,-671.7,0,0
266680.25,188.722,-670.56,0,0
266940.575,186.265,-669.409,0,0
267200.9,183.872,-668.198,0,0
267461.225,181.543,-666.95,0,0
267721.55,179.208,-665.662,0,0
267981.875,177.099,-664.387,0,0
268242.2,174.86,-663.149,0,0
268502.525,172.782,-661.773,0,0
268762.85,170.673,-660.449,0,0
269023.175,168.687,-659.125,0,0
269283.5,166.724,-657.788,0,0
269543.825,164.727,-656.513,0,0
269804.15,162.911,-655.135,0,0
270064.475,161.029,-653.777,0,0
270324.8,159.097,-652.473,0,0
270585.125,157.348,-651.097,0,0
270845.45,155.601,-649.737,0,0
271105.775,153.85,-648.311,0,0
271366.1,152.099,-646.917,0,0
271626.425,150.397,-645.574,0,0
271886.75,148.78,-644.07,0,0
272147.075,147.199,-642.646,0,0
272407.4,145.57,-641.186,0,0
272667.725,143.96,-639.791,0,0
272928.05,142.48,-638.338,0,0
273188.375,140.985,-636.898,0,0
273448.7,139.396,-635.402,0,0
273709.025,137.979,-633.935,0,0
273969.35,136.564,-632.464,0,0
274229.675,135.104,-630.933,0,0
274490.0,133.774,-629.484,0,0
274750.325,132.409,-627.916,0,0
275010.65,131.141,-626.358,0,0
275270.975,129.833,-624.873,0,0
275531.3,128.58,-623.33,0,0
275791.625,127.401,-621.818,0,0
276051.95,126.207,-620.275,0,0
276312.275,125.018,-618.736,0,0
276572.6,123.89,-617.197,0,0
276832.925,122.778,-615.657,0,0
277093.25,121.686,-614.123,0,0
277353.575,120.63,-612.561,0,0
277613.9,119.592,-611.026,0,0
277874.225,118.581,-609.477,0,0
278134.55,117.601,-607.9,0,0
278394.875,116.616,-606.324,0,0
278655.2,115.667,-604.728,0,0
278915.525,114.78,-603.121,0,0
279175.85,113.931,-601.518,0,0
279436.175,113.111,-599.861,0,0
279696.5,112.384,-598.217,0,0
279956.825,111.651,-596.628,0,0
280217.15,111.034,-594.999,0,0
280477.475,110.482,-593.4,0,0
280737.8,109.969,-591.875,0,0
280998.125,109.512,-590.42,0,0
281258.45,109.062,-588.998,0,0
281518.775,108.646,-587.621,0,0
281779.1,108.193,-586.288,0,0
282039.425,107.748,-584.99,0,0
282299.75,107.287,-583.743,0,0
282560,106.814,-582.492,0,0
282820,106.313,-581.236,0,0
283081,105.828,-579.964,0,0
283341,105.349,-578.723,0,0
283601,104.891,-577.473,0,0
283862,104.435,-576.222,0,0
284122,104.03,-574.954,0,0
284382,103.586,-573.735,0,0
284643,103.183,-572.527,0,0
284903,102.794,-571.313,0,0
285163,102.436,-570.065,0,0
285424,102.139,-568.864,0,0
285684,101.828,-567.714,0,0
285944,101.55,-566.552,0,0
286205,101.324,-565.483,0,0
286465,101.069,-564.419,0,0
286725,100.796,-563.458,0,0
286986,100.493,-562.498,0,0
287246,100.157,-561.566,0,0
287506,99.7713,-560.611,0,0
287767,99.363,-559.634,0,0
288027,98.9748,-558.66,0,0
288287,98.5925,-557.641,0,0
288548,98.2192,-556.611,0,0
288808,97.8843,-555.605,0,0
289068,97.5252,-554.589,0,0
289329,97.2443,-553.592,0,0
289589,96.9563,-552.625,0,0
289849,96.6698,-551.67,0,0
290109,96.4116,-550.718,0,0
290370,96.0998,-549.811,0,0
290630,95.8097,-548.88,0,0
290890,95.5729,-547.98,0,0
291151,95.2795,-547.118,0,0
291411,95.0275,-546.249,0,0
291671,94.764,-545.405,0,0
291932,94.4866,-544.566,0,0
292192,94.2555,-543.744,0,0
292452,93.9834,-542.965,0,0
292713,93.7381,-542.202,0,0
292973,93.4635,-541.489,0,0
293233,93.1649,-540.789,0,0
293494,92.8432,-540.126,0,0
293754,92.4734,-539.46,0,0
294014,92.0732,-538.81,0,0
294275,91.6634,-538.201,0,0
294535,91.1408,-537.539,0,0
294795,90.6677,-536.875,0,0
295056,90.1,-536.2,0,0
295316,89.5309,-535.489,0,0
295576,88.9194,-534.743,0,0
295837,88.277,-533.973,0,0
296097,87.6163,-533.159,0,0
296357,86.968,-532.295,0,0
296618,86.2911,-531.386,0,0
296878,85.6262,-530.399,0,0
297138,84.9726,-529.371,0,0
297399,84.3425,-528.285,0,0
297659,83.7589,-527.126,0,0
297919,83.2446,-525.922,0,0
298180,82.8051,-524.689,0,0
298440,82.457,-523.441,0,0
298700.2,82.1784,-522.201,0,0
298960.525,81.994,-520.983,0,0
299220.85,81.8402,-519.873,0,0
299481.175,81.7534,-518.752,0,0
299741.5,81.6943,-517.744,0,0
300001.825,81.5914,-516.698,0,0
300262.15,81.5736,-515.813,0,0
300522.475,81.491,-514.896,0,0
300782.8,81.4299,-514.047,0,0
301043.125,81.35,-513.175,0,0
301303.45,81.2106,-512.3,0,0
301563.775,81.1717,-511.56,0,0
301824.1,80.9791,-510.752,0,0
302084.425,80.8384,-509.969,0,0
302344.75,80.7296,-509.272,0,0
302605.075,80.5617,-508.428,0,0
302865.4,80.3943,-507.689,0,0
303125.725,80.1684,-506.839,0,0
303386.05,79.9592,-506.114,0,0
303646.375,79.8193,-505.286,0,0
303906.7,79.6213,-504.51,0,0
304167.025,79.4171,-503.693,0,0
304427.35,79.1975,-502.899,0,0
304687.675,79.0213,-502.001,0,0
304948.0,78.8717,-501.152,0,0
305208.325,78.7847,-500.289,0,0
305468.65,78.799,-499.368,0,0
305728.975,78.8441,-498.535,0,0
305989.3,78.8937,-497.728,0,0
306249.625,79.0138,-497.041,0,0
306509.95,79.0965,-496.317,0,0
306770.275,79.2002,-495.764,0,0
307030.6,79.2293,-495.202,0,0
307290.925,79.2644,-494.732,0,0
307551.25,79.1997,-494.291,0,0
307811.575,79.1437,-493.85,0,0
308071.9,78.984,-493.414,0,0
308332.225,78.7986,-492.959,0,0
308592.55,78.5718,-492.511,0,0
308852.875,78.3738,-492.008,0,0
309113.2,78.1322,-491.509,0,0
309373.525,77.8792,-491.028,0,0
309633.85,77.6295,-490.508,0,0
309894.175,77.3901,-490.001,0,0
310154.5,77.1376,-489.448,0,0
310414.825,76.8789,-488.956,0,0
310675.15,76.6078,-488.379,0,0
310935.475,76.3181,-487.896,0,0
311195.8,76.0114,-487.36,0,0
311456.125,75.7615,-486.831,0,0
311716.45,75.4388,-486.247,0,0
311976.775,75.1211,-485.685,0,0
312237.1,74.7944,-485.1,0,0
312497.425,74.3993,-484.564,0,0
312757.75,74.0901,-483.97,0,0
313018.075,73.7671,-483.339,0,0
313278.4,73.4389,-482.765,0,0
313538.725,73.13,-482.16,0,0
313799.05,72.7926,-481.44,0,0
314059.375,72.4795,-480.912,0,0
314319.7,72.17,-480.219,0,0
314580,71.8978,-479.569,0,0
314840,71.5907,-478.969,0,0
315101,71.332,-478.283,0,0
315361,71.0306,-477.637,0,0
315621,70.8306,-476.98,0,0
315882,70.5296,-476.363,0,0
316142,70.2163,-475.798,0,0
316402,69.9711,-475.122,0,0
316663,69.7085,-474.512,0,0
316923,69.4147,-473.925,0,0
317183,69.1074,-473.259,0,0
317444,68.8466,-472.695,0,0
317704,68.5917,-472.047,0,0
317964,68.2483,-471.446,0,0
318225,68.0158,-470.856,0,0
318485,67.6965,-470.209,0,0
318745,67.4002,-469.567,0,0
319006,67.084,-468.958,0,0
319266,66.7864,-468.298,0,0
319526,66.5008,-467.667,0,0
319787,66.1412,-467.01,0,0
320047,65.8658,-466.368,0,0
320307,65.536,-465.718,0,0
320567,65.1825,-465.033,0,0
320828,64.9111,-464.365,0,0
321088,64.5467,-463.645,0,0
321348,64.2912,-462.945,0,0
321609,64.0519,-462.186,0,0
321869,63.7642,-461.449,0,0
322129,63.5201,-460.732,0,0
322390,63.2663,-459.997,0,0
322650,63.1211,-459.274,0,0
322910,62.8422,-458.61,0,0
323171,62.7005,-457.898,0,0
323431,62.5213,-457.201,0,0
323691,62.2776,-456.561,0,0
323952,62.0864,-455.906,0,0
324212,61.9047,-455.249,0,0
324472,61.6645,-454.592,0,0
324733,61.4782,-453.908,0,0
324993,61.2727,-453.282,0,0
325253,61.0643,-452.569,0,0
325514,60.8166,-451.923,0,0
325774,60.5763,-451.26,0,0
326034,60.3428,-450.602,0,0
326295,60.1734,-449.92,0,0
326555,59.9818,-449.259,0,0
326815,59.7928,-448.562,0,0
327076,59.5781,-447.878,0,0
327336,59.3645,-447.234,0,0
327596,59.1467,-446.541,0,0
327857,59.0326,-445.853,0,0
328117,58.8351,-445.141,0,0
328377,58.6555,-444.514,0,0
328638,58.4987,-443.833,0,0
328898,58.258,-443.182,0,0
329158,58.0909,-442.48,0,0
329419,57.9179,-441.81,0,0
329679,57.7875,-441.186,0,0
329939,57.6152,-440.489,0,0
330200,57.4384,-439.805,0,0
330460,57.2488,-439.155,0,0
330720.15,57.0863,-438.481,0,0
330980.475,56.9551,-437.833,0,0
331240.8,56.8126,-437.122,0,0
331501.125,56.5965,-436.447,0,0
331761.45,56.4668,-435.776,0,0
332021.775,56.3134,-435.149,0,0
332282.1,56.1716,-434.437,0,0
332542.425,56.0642,-433.776,0,0
332802.75,55.924,-433.087,0,0
333063.075,55.7508,-432.422,0,0
333323.4,55.6482,-431.739,0,0
333583.725,55.5202,-431.065,0,0
333844.05,55.4152,-430.366,0,0
334104.375,55.3067,-429.681,0,0
334364.7,55.1861,-429.047,0,0
334625.025,55.1056,-428.336,0,0
334885.35,55.0627,-427.716,0,0
335145.675,54.9634,-427.034,0,0
335406.0,54.8378,-426.383,0,0
335666.325,54.7994,-425.74,0,0
335926.65,54.6648,-425.093,0,0
336186.975,54.6417,-424.442,0,0
336447.3,54.5859,-423.848,0,0
336707.625,54.4685,-423.215,0,0
336967.95,54.4225,-422.537,0,0
337228.275,54.3416,-421.996,0,0
337488.6,54.2595,-421.341,0,0
337748.925,54.1743,-420.691,0,0
338009.25,54.078,-420.054,0,0
338269.575,54.0187,-419.492,0,0
338529.9,53.9231,-418.861,0,0
338790.225,53.8679,-418.209,0,0
339050.55,53.7943,-417.552,0,0
339310.875,53.7252,-416.974,0,0
339571.2,53.6704,-416.358,0,0
339831.525,53.6239,-415.695,0,0
340091.85,53.5663,-415.115,0,0
340352.175,53.53,-414.462,0,0
340612.5,53.4886,-413.882,0,0
340872.825,53.4512,-413.232,0,0
341133.15,53.4097,-412.648,0,0
341393.475,53.3788,-412.005,0,0
341653.8,53.373,-411.388,0,0
341914.125,53.3808,-410.765,0,0
342174.45,53.357,-410.151,0,0
342434.775,53.4111,-409.576,0,0
342695.1,53.4273,-409.023,0,0
342955.425,53.4907,-408.382,0,0
343215.75,53.5309,-407.904,0,0
343476.075,53.6027,-407.39,0,0
343736.4,53.6576,-406.91,0,0
343996.725,53.6736,-406.502,0,0
344257.05,53.6409,-406.075,0,0
344517.375,53.5708,-405.676,0,0
344777.7,53.4464,-405.245,0,0
345038.025,53.3348,-404.819,0,0
345298.35,53.2209,-404.349,0,0
345558.675,53.0096,-403.817,0,0
345819.0,52.8823,-403.309,0,0
346079.325,52.74,-402.782,0,0
346339.65,52.5975,-402.215,0,0
346599.975,52.5016,-401.65,0,0
346860,52.3665,-401.041,0,0
347121,52.2573,-400.463,0,0
347381,52.1982,-399.858,0,0
347641,52.0829,-399.278,0,0
347902,52.0105,-398.702,0,0
348162,51.9805,-398.104,0,0
348422,51.9071,-397.51,0,0
348683,51.8315,-396.933,0,0
348943,51.8013,-396.359,0,0
349203,51.7546,-395.786,0,0
349464,51.7477,-395.198,0,0
349724,51.703,-394.643,0,0
349984,51.6525,-394.09,0,0
350245,51.6352,-393.473,0,0
350505,51.6068,-392.969,0,0
350765,51.6199,-392.377,0,0
351025,51.5755,-391.805,0,0
351286,51.5446,-391.265,0,0
351546,51.5722,-390.683,0,0
351806,51.6077,-390.135,0,0
352067,51.5873,-389.631,0,0
352327,51.6278,-389.059,0,0
352587,51.6116,-388.556,0,0
352848,51.6811,-388.039,0,0
353108,51.653,-387.539,0,0
353368,51.6592,-387.034,0,0
353629,51.6929,-386.546,0,0
353889,51.7026,-386.076,0,0
354149,51.6958,-385.585,0,0
354410,51.6733,-385.115,0,0
354670,51.6374,-384.646,0,0
354930,51.6088,-384.153,0,0
355191,51.6179,-383.667,0,0
355451,51.5585,-383.174,0,0
355711,51.5147,-382.716,0,0
355972,51.5006,-382.176,0,0
356232,51.4966,-381.69,0,0
356492,51.4617,-381.166,0,0
356753,51.455,-380.679,0,0
357013,51.4108,-380.166,0,0
357273,51.4033,-379.652,0,0
357534,51.4218,-379.143,0,0
357794,51.4606,-378.646,0,0
358054,51.4573,-378.132,0,0
358315,51.4783,-377.678,0,0
358575,51.5757,-377.213,0,0
358835,51.5549,-376.732,0,0
359096,51.5261,-376.319,0,0
359356,51.5775,-375.879,0,0
359616,51.5751,-375.431,0,0
359877,51.6165,-374.988,0,0
360137,51.5972,-374.588,0,0
360397,51.58,-374.151,0,0
360658,51.5487,-373.78,0,0
360918,51.5389,-373.376,0,0
361178,51.4923,-372.962,0,0
361438,51.4589,-372.525,0,0
361699,51.3944,-372.06,0,0
361959,51.3646,-371.678,0,0
362219,51.2782,-371.282,0,0
362480,51.2361,-370.811,0,0
362740.1,51.1294,-370.378,0,0
363000.425,51.0863,-369.944,0,0
363260.75,51.0197,-369.497,0,0
363521.075,50.9403,-369.051,0,0
363781.4,50.8708,-368.519,0,0
364041.725,50.7925,-368.092,0,0
364302.05,50.7567,-367.636,0,0
364562.375,50.6789,-367.16,0,0
364822.7,50.5809,-366.7,0,0
365083.025,50.5417,-366.213,0,0
365343.35,50.5131,-365.73,0,0
365603.675,50.4868,-365.227,0,0
365864.0,50.4287,-364.759,0,0
366124.325,50.3714,-364.267,0,0
366384.65,50.3231,-363.786,0,0
366644.975,50.3054,-363.316,0,0
366905.3,50.2651,-362.836,0,0
367165.625,50.2284,-362.366,0,0
367425.95,50.2082,-361.939,0,0
367686.275,50.1648,-361.407,0,0
367946.6,50.1625,-360.973,0,0
368206.925,50.1262,-360.474,0,0
368467.25,50.0929,-359.991,0,0
368727.575,50.0488,-359.495,0,0
368987.9,50.0418,-359.041,0,0
369248.225,50.0173,-358.537,0,0
369508.55,50.0069,-358.033,0,0
369768.875,50.0026,-357.576,0,0
370029.2,50.0289,-357.094,0,0
370289.525,50.0096,-356.613,0,0
370549.85,50.0039,-356.112,0,0
370810.175,50.0133,-355.673,0,0
371070.5,50.0291,-355.199,0,0
371330.825,50.0691,-354.742,0,0
371591.15,50.0996,-354.289,0,0
371851.475,50.1482,-353.802,0,0
372111.8,50.1629,-353.358,0,0
372372.125,50.2413,-352.92,0,0
372632.45,50.2929,-352.514,0,0
372892.775,50.4013,-352.107,0,0
373153.1,50.4301,-351.71,0,0
373413.425,50.5158,-351.34,0,0
373673.75,50.5667,-351.031,0,0
373934.075,50.5826,-350.698,0,0
374194.4,50.5377,-350.425,0,0
374454.725,50.5201,-350.099,0,0
374715.05,50.4614,-349.799,0,0
374975.375,50.3661,-349.494,0,0
375235.7,50.269,-349.127,0,0
375496.025,50.1589,-348.785,0,0
375756.35,50.046,-348.411,0,0
376016.675,49.9181,-348.018,0,0
376277.0,49.8084,-347.602,0,0
376537.325,49.7114,-347.191,0,0
376797.65,49.5964,-346.764,0,0
377057.975,49.4813,-346.367,0,0
377318.3,49.4067,-345.92,0,0
377578.625,49.2963,-345.52,0,0
377838.95,49.1969,-345.071,0,0
378099.275,49.0743,-344.657,0,0
378359.6,48.946,-344.224,0,0
378619.925,48.849,-343.788,0,0
378880,48.7285,-343.371,0,0
379141,48.6019,-342.914,0,0
379401,48.4787,-342.484,0,0
379661,48.3353,-341.979,0,0
379922,48.1873,-341.518,0,0
380182,48.0929,-340.975,0,0
380442,47.9179,-340.494,0,0
380703,47.7874,-339.981,0,0
380963,47.6708,-339.406,0,0
381223,47.6046,-338.884,0,0
381483,47.513,-338.277,0,0
381744,47.4545,-337.722,0,0
382004,47.3939,-337.142,0,0
382264,47.3679,-336.544,0,0
382525,47.4136,-335.981,0,0
382785,47.4938,-335.394,0,0
383045,47.563,-334.839,0,0
383306,47.646,-334.391,0,0
383566,47.7467,-333.927,0,0
383826,47.7925,-333.528,0,0
384087,47.7967,-333.173,0,0
384347,47.8245,-332.741,0,0
384607,47.8025,-332.388,0,0
384868,47.7327,-331.997,0,0
385128,47.7038,-331.566,0,0
385388,47.6238,-331.126,0,0
385649,47.5252,-330.676,0,0
385909,47.44,-330.216,0,0
386169,47.3732,-329.759,0,0
386430,47.2679,-329.352,0,0
386690,47.1943,-328.821,0,0
386950,47.1236,-328.333,0,0
387211,47.0337,-327.859,0,0
387471,46.9808,-327.344,0,0
387731,46.8948,-326.821,0,0
387992,46.8607,-326.342,0,0
388252,46.7702,-325.804,0,0
388512,46.7279,-325.277,0,0
388773,46.6869,-324.769,0,0
389033,46.6515,-324.241,0,0
389293,46.6176,-323.735,0,0
389554,46.5765,-323.199,0,0
389814,46.5494,-322.669,0,0
390074,46.5148,-322.159,0,0
390335,46.5157,-321.625,0,0
390595,46.4856,-321.048,0,0
390855,46.4983,-320.574,0,0
391116,46.4313,-320.036,0,0
391376,46.4404,-319.512,0,0
391636,46.4336,-318.978,0,0
391896,46.4255,-318.476,0,0
392157,46.3944,-317.938,0,0
392417,46.4243,-317.407,0,0
392677,46.4206,-316.888,0,0
392938,46.4117,-316.349,0,0
393198,46.4166,-315.809,0,0
393458,46.4166,-315.265,0,0
393719,46.4054,-314.745,0,0
393979,46.4273,-314.256,0,0
394239,46.4507,-313.696,0,0
394500,46.4332,-313.179,0,0
394760.05,46.4881,-312.621,0,0
395020.375,46.4789,-312.095,0,0
395280.7,46.486,-311.574,0,0
395541.025,46.4913,-311.02,0,0
395801.35,46.5151,-310.478,0,0
396061.675,46.5582,-309.933,0,0
396322.0,46.5792,-309.392,0,0
396582.325,46.6094,-308.866,0,0
396842.65,46.6413,-308.299,0,0
397102.975,46.6746,-307.755,0,0
397363.3,46.7236,-307.242,0,0
397623.625,46.7315,-306.692,0,0
397883.95,46.8009,-306.138,0,0
398144.275,46.8521,-305.59,0,0
398404.6,46.8803,-305.033,0,0
398664.925,46.973,-304.505,0,0
398925.25,47.0087,-303.98,0,0
399185.575,47.0735,-303.449,0,0
399445.9,47.1027,-302.911,0,0
399706.225,47.1936,-302.369,0,0
399966.55,47.2217,-301.825,0,0
400006.6,47.2231,-301.757,0,0