File: Accelerated corrosion test data/2025-10-01_18-00-03/sample_4.csv
Frequency (Hz),Impedance (ohms),Phase (Radians),Temperature (C),Humidity (%)
10000.0,268.415,-11720.4,0,0
10260.325,265.175,-11426.2,0,0
10520.65,255.473,-11145.7,0,0
10780.975,249.392,-10878.8,0,0
11041.3,244.208,-10623.8,0,0
11301.625,239.136,-10384,0,0
11561.95,233.067,-10151.3,0,0
11822.275,228.817,-9929,0,0
12082.6,223.824,-9717.1,0,0
12342.925,219.843,-9513.3,0,0
12603.25,216.69,-9316.69,0,0
12863.575,212.915,-9132.09,0,0
13123.9,212.508,-8956.36,0,0
13384.225,203.856,-8779.66,0,0
13644.55,200.34,-8610.4,0,0
13904.875,196.838,-8447.51,0,0
14165.2,199.155,-8288.46,0,0
14425.525,203.82,-8136.83,0,0
14685.8,202.624,-8027.77,0,0
14946.175,185.992,-7874.32,0,0
15206.5,185.055,-7732.71,0,0
15466.825,192.44,-7590.04,0,0
15727.15,192.105,-7489.74,0,0
15987.5,189.674,-7377.15,0,0
16247.8,174.524,-7250.74,0,0
16508.125,188.558,-7126.01,0,0
16768.45,182.5,-7027.53,0,0
17028.775,173.834,-6938.11,0,0
17289.1,163.545,-6826.86,0,0
17549.425,161.666,-6724.51,0,0
17809.75,158.968,-6624.18,0,0
18070.075,155.863,-6526.92,0,0
18330.4,157.026,-6432.58,0,0
18590.725,156.275,-6346.38,0,0
18851.05,152.517,-6261.49,0,0
19111.375,148.274,-6174.1,0,0
19371.7,145.953,-6089.62,0,0
19632.025,144.791,-6006.61,0,0
19892.35,146.72,-5926.9,0,0
20152.675,146.78,-5851.89,0,0
20413.0,143.258,-5779.39,0,0
20673.3,142.83,-5704.65,0,0
20933.65,139.994,-5633.03,0,0
21193.975,142.224,-5559.39,0,0
21454.3,154.498,-5495.77,0,0
21714.625,145.202,-5436.92,0,0
21974.9,152.933,-5370.53,0,0
22235.275,150.693,-5319.03,0,0
22495.6,137.865,-5266.39,0,0
22755.925,130.841,-5202.7,0,0
23016.25,127.675,-5141.41,0,0
23276.6,125.338,-5082.09,0,0
23536.9,124.014,-5025.93,0,0
23797.225,121.417,-4969.67,0,0
24057.55,120.011,-4914.64,0,0
24317.875,119.149,-4860.74,0,0
24578.2,117.209,-4808.89,0,0
24838.525,116.908,-4757.33,0,0
25098.85,116.899,-4707.85,0,0
25359.175,114.743,-4660.33,0,0
25619.5,115.236,-4611.07,0,0
25879.8,113.031,-4567.35,0,0
26140.1,110.26,-4519.11,0,0
26400.5,109.521,-4472.95,0,0
26660.8,109.959,-4428.09,0,0
26921.1,108.916,-4385.03,0,0
27181.4,108.08,-4340.56,0,0
27441.8,108.621,-4296.38,0,0
27702.1,111.026,-4252.81,0,0
27962.4,119.642,-4214.15,0,0
28222.7,122.034,-4181.48,0,0
28483.1,115.669,-4150.24,0,0
28743.4,112.28,-4111.13,0,0
29003.7,113.25,-4070.47,0,0
29264,117.122,-4036.98,0,0
29524.4,114.4,-4006.66,0,0
29784.7,108.868,-3974.08,0,0
30045,109.227,-3939.68,0,0
30305.3,103.547,-3905.45,0,0
30565.7,102.554,-3870.87,0,0
30826,100.916,-3837.13,0,0
31086.3,100.817,-3803.89,0,0
31346.6,101.621,-3771.46,0,0
31607,100.579,-3741.35,0,0
31867.3,98.4263,-3709.94,0,0
32127.6,100.778,-3679.46,0,0
32387.9,99.0594,-3652.96,0,0
32648.3,98.7339,-3623.24,0,0
32908.6,96.34,-3596.71,0,0
33168.9,93.9944,-3567.96,0,0
33429.2,91.9735,-3539.3,0,0
33689.6,90.8317,-3511.14,0,0
33949.9,89.8147,-3483.27,0,0
34210.2,89.934,-3456.08,0,0
34470.5,88.3435,-3430.11,0,0
34730.9,86.9245,-3403.18,0,0
34991.2,86.8665,-3377.04,0,0
35251.5,86.0975,-3351.75,0,0
35511.8,85.2747,-3326.53,0,0
35772.2,84.8452,-3301.77,0,0
36032.5,83.8457,-3277.43,0,0
36292.8,83.0579,-3252.86,0,0
36553.1,82.9237,-3229.04,0,0
36813.5,83.1199,-3205.15,0,0
37073.8,82.6132,-3183.16,0,0
37334.1,81.5934,-3160.19,0,0
37594.4,81.1473,-3137.25,0,0
37854.8,80.8726,-3115.46,0,0
38115.1,79.8307,-3093.78,0,0
38375.4,79.4337,-3071.52,0,0
38635.7,79.2633,-3049.76,0,0
38896.1,79.4235,-3028.84,0,0
39156.4,78.862,-3008.36,0,0
39416.7,78.388,-2987.32,0,0
39677,78.2753,-2966.46,0,0
39937.4,78.8072,-2945.46,0,0
40197.7,80.4089,-2925.1,0,0
40458,82.4117,-2908.27,0,0
40718.3,80.0279,-2889.73,0,0
40978.7,80.643,-2870.19,0,0
41239,81.4325,-2851.38,0,0
41499.3,83.8791,-2835.91,0,0
41759.6,80.3267,-2819.75,0,0
42020,79.4504,-2801.4,0,0
42280.275,79.3448,-2782.43,0,0
42540.6,80.242,-2766.59,0,0
42800.925,78.1056,-2750.55,0,0
43061.25,77.5386,-2732.35,0,0
43321.575,77.5545,-2716.44,0,0
43581.9,76.1672,-2699.83,0,0
43842.225,75.4539,-2682.79,0,0
44102.55,75.1294,-2667.11,0,0
44362.875,73.9836,-2650.26,0,0
44623.2,73.8205,-2634.21,0,0
44883.525,73.2179,-2618.51,0,0
45143.85,72.7123,-2602.54,0,0
45404.175,72.3874,-2585.9,0,0
45664.5,73.7474,-2570.19,0,0
45924.825,73.9423,-2555.91,0,0
46185.15,72.631,-2542.07,0,0
46445.475,72.1053,-2526.24,0,0
46705.8,73.0095,-2511.39,0,0
46966.125,73.1807,-2497.69,0,0
47226.45,73.6675,-2484.17,0,0
47486.775,72.4139,-2471.97,0,0
47747.1,71.4062,-2457.45,0,0
48007.425,70.6792,-2443.61,0,0
48267.75,70.2402,-2429.5,0,0
48528.075,69.6238,-2416.36,0,0
48788.4,68.8374,-2403.17,0,0
49048.725,67.5937,-2389,0,0
49309.05,68.0223,-2375.29,0,0
49569.375,67.1592,-2362.23,0,0
49829.7,66.7455,-2348.78,0,0
50090.025,66.4397,-2335.57,0,0
50350.35,66.2944,-2322.48,0,0
50610.675,66.1673,-2309.59,0,0
50871.0,65.7278,-2296.9,0,0
51131.325,65.4966,-2283.99,0,0
51391.65,65.5744,-2271.05,0,0
51651.975,66.0293,-2258.61,0,0
51912.3,65.5818,-2246.07,0,0
52172.625,66.0107,-2233.55,0,0
52432.95,66.0752,-2221.29,0,0
52693.275,66.6785,-2208.52,0,0
52953.6,68.2757,-2196.69,0,0
53213.925,68.3266,-2185.4,0,0
53474.25,69.2096,-2173.25,0,0
53734.575,70.9552,-2161.25,0,0
53994.9,73.6758,-2150.65,0,0
54255.225,75.6568,-2141.02,0,0
54515.55,77.9257,-2133.01,0,0
54775.875,77.0056,-2125.99,0,0
55036.2,75.4299,-2116.33,0,0
55296.525,74.7653,-2107.2,0,0
55556.85,73.2695,-2097.74,0,0
55817.175,72.1809,-2088.17,0,0
56077.5,70.2567,-2077.94,0,0
56337.825,68.6912,-2067.37,0,0
56598.15,67.9032,-2056.11,0,0
56858.475,67.4917,-2044.99,0,0
57118.8,67.5752,-2034.1,0,0
57379.125,67.8297,-2023.82,0,0
57639.45,68.0334,-2013.68,0,0
57899.775,68.206,-2003.26,0,0
58160.1,68.6234,-1993.18,0,0
58420.4,69.5792,-1983.27,0,0
58680.7,69.4464,-1974.19,0,0
58941.1,69.5876,-1963.58,0,0
59201.4,71.1151,-1952.87,0,0
59461.7,73.4268,-1943.35,0,0
59722,76.0343,-1934.57,0,0
59982.4,78.6345,-1927.75,0,0
60242.7,78.9262,-1920.64,0,0
60503,80.6143,-1912.77,0,0
60763.3,83.4161,-1907.34,0,0
61023.7,82.432,-1904.05,0,0
61284,79.7593,-1898.79,0,0
61544.3,75.5657,-1891.76,0,0
61804.6,73.5069,-1882.38,0,0
62065,71.7873,-1874.04,0,0
62325.3,69.9665,-1866.07,0,0
62585.6,67.3635,-1856.63,0,0
62845.9,66.7526,-1846.68,0,0
63106.3,66.3424,-1837.13,0,0
63366.6,66.7571,-1828.38,0,0
63626.9,66.657,-1820.27,0,0
63887.2,66.0038,-1811.9,0,0
64147.6,65.5465,-1803.03,0,0
64407.9,65.8334,-1794.03,0,0
64668.2,66.576,-1785.91,0,0
64928.5,66.7881,-1778.17,0,0
65188.9,66.8977,-1769.76,0,0
65449.2,67.655,-1762.12,0,0
65709.5,67.7065,-1753.84,0,0
65969.8,69.0692,-1746.03,0,0
66230.2,69.9451,-1739.13,0,0
66490.5,70.4856,-1732.01,0,0
66750.8,70.9883,-1725.13,0,0
67011.1,71.4734,-1717.89,0,0
67271.5,72.5511,-1711.03,0,0
67531.8,73.4555,-1704.72,0,0
67792.1,74.6251,-1698.63,0,0
68052.4,75.2953,-1693.56,0,0
68312.8,75.1752,-1688.6,0,0
68573.1,74.5925,-1683.44,0,0
68833.4,73.4847,-1678.3,0,0
69093.7,71.6028,-1672.68,0,0
69354.1,69.7309,-1666.46,0,0
69614.4,68.0412,-1659.35,0,0
69874.7,66.8158,-1652.05,0,0
70135,66.1194,-1644.81,0,0
70395.4,65.2192,-1637.45,0,0
70655.7,65.6497,-1629.48,0,0
70916,66.8577,-1623.52,0,0
71176.3,66.5698,-1618.15,0,0
71436.7,66.0389,-1612.17,0,0
71697,65.6805,-1606.9,0,0
71957.3,63.7022,-1601.54,0,0
72217.6,61.5695,-1594.64,0,0
72478,60.4636,-1587.11,0,0
72738.3,59.8142,-1580.08,0,0
72998.6,58.8712,-1572.84,0,0
73258.9,58.6857,-1565.15,0,0
73519.3,58.9509,-1558,0,0
73779.6,59.3555,-1551.15,0,0
74039.9,59.89,-1544.44,0,0
74300.225,60.2149,-1538.13,0,0
74560.55,60.493,-1531.73,0,0
74820.875,60.9627,-1525.42,0,0
75081.2,61.5592,-1519.23,0,0
75341.525,62.128,-1513.35,0,0
75601.85,62.605,-1507.69,0,0
75862.175,62.8002,-1501.94,0,0
76122.5,63.1936,-1496.47,0,0
76382.825,63.4576,-1491.18,0,0
76643.15,63.117,-1485.6,0,0
76903.475,63.1209,-1479.38,0,0
77163.8,64.164,-1473.25,0,0
77424.125,65.3938,-1468.2,0,0
77684.45,66.2198,-1463.67,0,0
77944.775,66.4518,-1459.54,0,0
78205.1,66.1695,-1455.18,0,0
78465.425,65.6881,-1450.65,0,0
78725.75,65.0193,-1446.02,0,0
78986.075,64.1938,-1441.14,0,0
79246.4,63.3108,-1436.02,0,0
79506.725,62.6122,-1430.59,0,0
79767.05,62.0188,-1425.12,0,0
80027.375,61.5815,-1419.66,0,0
80287.7,61.3217,-1414.17,0,0
80548.025,61.1702,-1408.85,0,0
80808.35,60.9652,-1403.61,0,0
81068.675,60.8336,-1398.4,0,0
81329.0,60.7041,-1393.3,0,0
81589.325,60.5517,-1388.31,0,0
81849.65,60.2937,-1383.27,0,0
82109.975,60.0075,-1378.22,0,0
82370.3,59.8243,-1373.2,0,0
82630.625,59.5947,-1368.14,0,0
82890.95,59.4414,-1363.12,0,0
83151.275,59.1619,-1358.18,0,0
83411.6,59.0255,-1353.18,0,0
83671.925,58.8235,-1348.17,0,0
83932.25,58.6579,-1343.29,0,0
84192.575,58.4717,-1338.38,0,0
84452.9,58.369,-1333.54,0,0
84713.225,58.156,-1328.6,0,0
84973.55,58.1309,-1323.68,0,0
85233.875,58.0228,-1318.99,0,0
85494.2,57.9434,-1314.2,0,0
85754.525,57.778,-1309.48,0,0
86014.85,57.6429,-1304.8,0,0
86275.175,57.6494,-1300.03,0,0
86535.5,57.6308,-1295.39,0,0
86795.825,57.5846,-1290.83,0,0
87056.15,57.4952,-1286.43,0,0
87316.475,57.3634,-1281.94,0,0
87576.8,57.2364,-1277.6,0,0
87837.125,56.8975,-1273.31,0,0
88097.45,56.2786,-1269.02,0,0
88357.775,55.6857,-1264.39,0,0
88618.1,55.1865,-1259.53,0,0
88878.425,54.8558,-1254.78,0,0
89138.75,54.5547,-1249.81,0,0
89399.075,54.548,-1244.91,0,0
89659.4,54.5655,-1240.29,0,0
89919.725,54.5517,-1235.7,0,0
90180,54.4983,-1231.2,0,0
90440.4,54.4183,-1226.63,0,0
90700.7,54.3376,-1221.98,0,0
90961,54.0889,-1217.45,0,0
91221.3,54.1609,-1212.83,0,0
91481.7,54.329,-1208.11,0,0
91742,54.4165,-1203.58,0,0
92002.3,54.6825,-1199.08,0,0
92262.6,55.0043,-1194.73,0,0
92523,55.273,-1190.48,0,0
92783.3,55.5153,-1186.4,0,0
93043.6,55.5047,-1182.4,0,0
93303.9,55.5089,-1178.37,0,0
93564.3,55.3689,-1174.29,0,0
93824.6,55.2307,-1170.18,0,0
94084.9,54.8958,-1165.97,0,0
94345.2,54.645,-1161.69,0,0
94605.6,54.4148,-1157.3,0,0
94865.9,54.273,-1152.8,0,0
95126.2,54.3275,-1148.33,0,0
95386.5,54.2283,-1143.94,0,0
95646.9,54.3785,-1139.39,0,0
95907.2,54.5984,-1134.94,0,0
96167.5,54.84,-1130.69,0,0
96427.8,55.1154,-1126.38,0,0
96688.2,55.2694,-1122.18,0,0
96948.5,55.452,-1117.86,0,0
97208.8,55.7525,-1113.59,0,0
97469.1,56.0305,-1109.42,0,0
97729.5,56.2914,-1105.22,0,0
97989.8,56.5325,-1100.97,0,0
98250.1,56.9052,-1096.64,0,0
98510.4,57.3516,-1092.4,0,0
98770.8,57.8383,-1088.12,0,0
99031.1,58.4583,-1083.86,0,0
99291.4,59.2852,-1079.76,0,0
99551.7,59.9966,-1076.05,0,0
99812.1,60.4309,-1072.05,0,0
100072,61.1124,-1067.91,0,0
100333,62.1944,-1063.79,0,0
100593,63.6029,-1060.24,0,0
100853,64.7485,-1057.23,0,0
101114,65.5322,-1054.34,0,0
101374,66.2048,-1051.66,0,0
101634,66.5148,-1049.26,0,0
101895,66.1113,-1047.03,0,0
102155,64.8832,-1044.18,0,0
102415,63.8077,-1040.43,0,0
102676,63.0723,-1036.67,0,0
102936,62.0139,-1032.6,0,0
103196,61.1578,-1027.93,0,0
103457,60.7623,-1022.89,0,0
103717,60.9211,-1017.78,0,0
103977,61.4543,-1012.77,0,0
104238,62.2298,-1008.08,0,0
104498,63.0819,-1003.34,0,0
104758,64.2797,-998.723,0,0
105019,65.63,-994.396,0,0
105279,67.0345,-990.274,0,0
105539,68.3668,-986.246,0,0
105800,69.7912,-982.394,0,0
106060,71.1825,-978.699,0,0
106320.175,72.552,-974.97,0,0
106580.5,74.068,-971.385,0,0
106840.825,75.5983,-967.982,0,0
107101.15,76.922,-964.672,0,0
107361.475,78.2767,-961.331,0,0
107621.8,79.5988,-957.917,0,0
107882.125,81.1905,-954.48,0,0
108142.45,82.8654,-951.218,0,0
108402.775,84.6264,-948.14,0,0
108663.1,86.4011,-945.293,0,0
108923.425,88.1684,-942.643,0,0
109183.75,89.8754,-940.118,0,0
109444.075,91.5488,-937.686,0,0
109704.4,92.9962,-935.486,0,0
109964.725,94.3876,-933.339,0,0
110225.05,95.7754,-931.131,0,0
110485.375,97.0881,-929.01,0,0
110745.7,98.2544,-927.118,0,0
111006.025,99.5169,-925.125,0,0
111266.35,100.322,-923.323,0,0
111526.675,101.429,-921.334,0,0
111787.0,102.363,-919.547,0,0
112047.325,103.205,-917.745,0,0
112307.65,104.065,-916.024,0,0
112567.975,104.803,-914.326,0,0
112828.3,105.43,-912.637,0,0
113088.625,106.062,-911.044,0,0
113348.95,106.581,-909.515,0,0
113609.275,106.982,-907.991,0,0
113869.6,107.217,-906.347,0,0
114129.925,107.472,-904.746,0,0
114390.25,107.66,-903.214,0,0
114650.575,107.815,-901.694,0,0
114910.9,107.852,-900.012,0,0
115171.225,107.811,-898.598,0,0
115431.55,107.6,-897.043,0,0
115691.875,107.228,-895.448,0,0
115952.2,106.852,-893.599,0,0
116212.525,106.501,-891.887,0,0
116472.85,105.984,-890.214,0,0
116733.175,105.279,-888.357,0,0
116993.5,104.47,-886.338,0,0
117253.825,103.602,-884.078,0,0
117514.15,102.849,-881.604,0,0
117774.475,102.128,-879.076,0,0
118034.8,101.422,-876.24,0,0
118295.125,100.945,-873.27,0,0
118555.45,100.645,-870.086,0,0
118815.775,100.708,-866.736,0,0
119076.1,101.3,-863.424,0,0
119336.425,102.384,-860.417,0,0
119596.75,103.824,-857.913,0,0
119857.075,105.336,-856.09,0,0
120117.4,106.939,-855.024,0,0
120377.725,107.796,-854.865,0,0
120638.05,107.558,-855.087,0,0
120898.375,106.148,-854.672,0,0
121158.7,104.502,-853.455,0,0
121419.025,102.881,-851.675,0,0
121679.35,101.471,-849.535,0,0
121939.675,100.262,-847.229,0,0
122200.0,99.0878,-844.828,0,0
122460,98.0533,-842.305,0,0
122721,97.1021,-839.695,0,0
122981,96.2908,-837.024,0,0
123241,95.5544,-834.407,0,0
123502,94.8748,-831.738,0,0
123762,94.2425,-829.096,0,0
124022,93.6612,-826.536,0,0
124283,92.9771,-824,0,0
124543,92.2896,-821.339,0,0
124803,91.6697,-818.604,0,0
125064,91.0993,-815.851,0,0
125324,90.6391,-813.155,0,0
125584,90.1273,-810.474,0,0
125845,89.6737,-807.783,0,0
126105,89.2859,-805.226,0,0
126365,88.8267,-802.734,0,0
126626,88.1761,-800.309,0,0
126886,87.4048,-797.728,0,0
127146,86.6551,-795,0,0
127406,85.9709,-792.192,0,0
127667,85.4217,-789.461,0,0
127927,84.7587,-786.783,0,0
128187,84.0775,-784.145,0,0
128448,83.2318,-781.382,0,0
128708,82.3883,-778.474,0,0
128968,81.5358,-775.591,0,0
129229,80.5916,-772.638,0,0
129489,79.6346,-769.47,0,0
129749,78.7468,-766.142,0,0
130010,77.9608,-762.717,0,0
130270,77.2829,-759.281,0,0
130530,76.6919,-755.787,0,0
130791,76.1515,-752.282,0,0
131051,75.6017,-748.705,0,0
131311,75.1922,-745.051,0,0
131572,74.8939,-741.412,0,0
131832,74.6571,-737.818,0,0
132092,74.4207,-734.233,0,0
132353,74.1915,-730.542,0,0
132613,74.0812,-726.828,0,0
132873,74.0672,-723.148,0,0
133134,74.0845,-719.525,0,0
133394,74.1234,-715.871,0,0
133654,74.2272,-712.158,0,0
133915,74.3487,-708.461,0,0
134175,74.5736,-704.749,0,0
134435,74.8224,-701.082,0,0
134696,75.1301,-697.413,0,0
134956,75.5162,-693.695,0,0
135216,75.9826,-689.989,0,0
135477,76.534,-686.385,0,0
135737,77.0979,-682.801,0,0
135997,77.6565,-679.376,0,0
136258,78.1181,-675.841,0,0
136518,78.7247,-672.277,0,0
136778,79.405,-668.778,0,0
137039,80.1887,-665.386,0,0
137299,80.9057,-662.16,0,0
137559,81.4565,-658.987,0,0
137819,81.8578,-655.764,0,0
138080,82.1506,-652.374,0,0
138340.125,82.5299,-648.824,0,0
138600.45,83.0259,-645.229,0,0
138860.775,83.5379,-641.614,0,0
139121.1,84.0764,-637.956,0,0
139381.425,84.7134,-634.211,0,0
139641.75,85.4565,-630.493,0,0
139902.075,86.1724,-626.781,0,0
140162.4,86.9649,-623.006,0,0
140422.725,87.8373,-619.21,0,0
140683.05,88.7979,-615.396,0,0
140943.375,89.845,-611.586,0,0
141203.7,91.0088,-607.836,0,0
141464.025,92.1759,-604.182,0,0
141724.35,93.3275,-600.524,0,0
141984.675,94.4937,-596.86,0,0
142245.0,95.6884,-593.15,0,0
142505.325,96.9289,-589.413,0,0
142765.65,98.2321,-585.715,0,0
143025.975,99.5756,-582.004,0,0
143286.3,100.969,-578.213,0,0
143546.625,102.406,-574.461,0,0
143806.95,103.912,-570.697,0,0
144067.275,105.458,-566.915,0,0
144327.6,107.124,-563.114,0,0
144587.925,108.874,-559.352,0,0
144848.25,110.666,-555.603,0,0
145108.575,112.577,-551.895,0,0
145368.9,114.484,-548.215,0,0
145629.225,116.495,-544.524,0,0
145889.55,118.581,-540.913,0,0
146149.875,120.654,-537.303,0,0
146410.2,122.794,-533.667,0,0
146670.525,125.019,-530.078,0,0
146930.85,127.244,-526.565,0,0
147191.175,129.511,-522.98,0,0
147451.5,131.882,-519.407,0,0
147711.825,134.345,-515.885,0,0
147972.15,136.77,-512.416,0,0
148232.475,139.228,-508.83,0,0
148492.8,141.865,-505.191,0,0
148753.125,144.642,-501.581,0,0
149013.45,147.556,-498.009,0,0
149273.775,150.597,-494.466,0,0
149534.1,153.774,-490.978,0,0
149794.425,157.113,-487.571,0,0
150054.75,160.518,-484.331,0,0
150315.075,163.938,-481.128,0,0
150575.4,167.536,-477.881,0,0
150835.725,171.363,-474.715,0,0
151096.05,175.386,-471.774,0,0
151356.375,179.531,-469.052,0,0
151616.7,183.684,-466.587,0,0
151877.025,187.823,-464.242,0,0
152137.35,192.071,-461.962,0,0
152397.675,196.443,-459.892,0,0
152658.0,200.882,-458.116,0,0
152918.325,205.348,-456.59,0,0
153178.65,209.792,-455.388,0,0
153438.975,214.06,-454.523,0,0
153699.3,218.104,-453.798,0,0
153959.625,222.007,-453.254,0,0
154219.95,225.695,-452.856,0,0
154480,229.063,-452.616,0,0
154741,232.08,-452.255,0,0
155001,234.882,-451.611,0,0
155261,237.852,-450.873,0,0
155522,240.675,-449.93,0,0
155782,243.704,-449.074,0,0
156042,246.656,-448.284,0,0
156303,249.725,-447.481,0,0
156563,252.592,-446.825,0,0
156823,255.163,-445.895,0,0
157084,257.96,-444.61,0,0
157344,261.024,-443.332,0,0
157604,264.109,-442.199,0,0
157864,267.347,-440.746,0,0
158125,271.036,-439.046,0,0
158385,275.458,-437.901,0,0
158645,279.781,-437.209,0,0
158906,284.195,-436.624,0,0
159166,289.09,-436.508,0,0
159426,293.767,-437.237,0,0
159687,298.213,-438.187,0,0
159947,302.376,-439.721,0,0
160207,306.026,-441.597,0,0
160468,308.917,-443.477,0,0
160728,311.852,-445.056,0,0
160988,314.797,-447.292,0,0
161249,316.762,-449.803,0,0
161509,317.97,-451.711,0,0
161769,318.733,-453.226,0,0
162030,319.278,-454.131,0,0
162290,319.776,-454.372,0,0
162550,320.618,-454.187,0,0
162811,321.868,-453.871,0,0
163071,323.026,-453.397,0,0
163331,324.39,-452.77,0,0
163592,326.054,-451.896,0,0
163852,327.857,-450.919,0,0
164112,329.97,-449.721,0,0
164373,332.757,-448.334,0,0
164633,336.085,-447.164,0,0
164893,339.642,-446.671,0,0
165154,343.373,-446.51,0,0
165414,346.84,-446.619,0,0
165674,350.194,-446.635,0,0
165935,353.825,-446.822,0,0
166195,357.724,-446.876,0,0
166455,361.899,-447.2,0,0
166716,366.624,-447.711,0,0
166976,371.629,-448.995,0,0
167236,376.79,-450.835,0,0
167497,381.928,-453.158,0,0
167757,387.313,-456.456,0,0
168017,392.44,-460.713,0,0
168277,396.91,-465.951,0,0
168538,400.342,-471.705,0,0
168798,402.998,-477.61,0,0
169058,405.048,-483.634,0,0
169319,406.56,-489.795,0,0
169579,407.32,-496.23,0,0
169839,407.421,-502.536,0,0
170100,407.09,-508.72,0,0
170360.075,406.311,-515.221,0,0
170620.4,404.608,-522.047,0,0
170880.725,401.668,-528.902,0,0
171141.05,397.4,-535.082,0,0
171401.375,392.34,-540.243,0,0
171661.7,386.954,-544.49,0,0
171922.025,381.203,-547.979,0,0
172182.35,375.31,-550.683,0,0
172442.675,369.363,-552.905,0,0
172703.0,362.964,-554.591,0,0
172963.325,356.153,-555.184,0,0
173223.65,349.665,-554.672,0,0
173483.975,343.635,-553.596,0,0
173744.3,337.736,-551.893,0,0
174004.625,332.321,-549.57,0,0
174264.95,327.242,-546.947,0,0
174525.275,322.4,-543.889,0,0
174785.6,317.967,-540.282,0,0
175045.925,314.096,-536.415,0,0
175306.25,310.603,-532.372,0,0
175566.575,307.429,-528.116,0,0
175826.9,304.683,-523.556,0,0
176087.225,302.443,-518.923,0,0
176347.55,300.608,-514.237,0,0
176607.875,299.181,-509.526,0,0
176868.2,298.164,-504.862,0,0
177128.525,297.446,-500.283,0,0
177388.85,296.971,-495.779,0,0
177649.175,296.843,-491.324,0,0
177909.5,297.051,-487.121,0,0
178169.825,297.315,-483.187,0,0
178430.15,297.57,-479.356,0,0
178690.475,297.902,-475.543,0,0
178950.8,298.292,-471.777,0,0
179211.125,298.794,-468.038,0,0
179471.45,299.344,-464.322,0,0
179731.775,300.027,-460.605,0,0
179992.1,300.783,-456.952,0,0
180252.425,301.584,-453.368,0,0
180512.75,302.402,-449.784,0,0
180773.075,303.298,-446.191,0,0
181033.4,304.181,-442.534,0,0
181293.725,305.202,-438.877,0,0
181554.05,306.27,-435.199,0,0
181814.375,307.387,-431.531,0,0
182074.7,308.512,-427.79,0,0
182335.025,309.68,-423.994,0,0
182595.35,310.922,-420.078,0,0
182855.675,312.262,-416.068,0,0
183116.0,313.681,-411.932,0,0
183376.325,315.278,-407.669,0,0
183636.65,317.086,-403.318,0,0
183896.975,319.077,-398.898,0,0
184157.3,321.268,-394.457,0,0
184417.625,323.678,-390.004,0,0
184677.95,326.241,-385.541,0,0
184938.275,328.951,-381.051,0,0
185198.6,331.826,-376.521,0,0
185458.925,334.934,-371.896,0,0
185719.25,338.315,-367.231,0,0
185979.575,341.999,-362.615,0,0
186239.9,345.932,-358.083,0,0
186500,350.034,-353.627,0,0
186761,354.366,-349.228,0,0
187021,358.897,-344.853,0,0
187281,363.643,-340.612,0,0
187542,368.701,-336.378,0,0
187802,373.948,-332.271,0,0
188062,379.401,-328.149,0,0
188322,385.239,-324.315,0,0
188583,391.207,-320.52,0,0
188843,397.427,-316.812,0,0
189103,403.987,-313.378,0,0
189364,410.711,-310.095,0,0
189624,417.598,-307.012,0,0
189884,424.76,-303.992,0,0
190145,432.4,-301.213,0,0
190405,440.149,-298.834,0,0
190665,448.149,-296.69,0,0
190926,456.379,-295.034,0,0
191186,464.846,-293.605,0,0
191446,473.231,-292.666,0,0
191707,481.885,-292.038,0,0
191967,490.628,-291.669,0,0
192227,499.279,-291.825,0,0
192488,507.916,-292.377,0,0
192748,516.582,-293.191,0,0
193008,525.237,-294.406,0,0
193269,533.762,-295.96,0,0
193529,542.162,-297.786,0,0
193789,550.416,-299.868,0,0
194050,558.535,-302.068,0,0
194310,566.672,-304.391,0,0
194570,574.866,-306.985,0,0
194831,583.008,-309.873,0,0
195091,591.053,-312.999,0,0
195351,598.97,-316.287,0,0
195612,606.907,-319.704,0,0
195872,614.815,-323.305,0,0
196132,622.796,-327.142,0,0
196393,630.773,-331.202,0,0
196653,638.741,-335.462,0,0
196913,646.853,-339.921,0,0
197174,655.148,-344.714,0,0
197434,663.514,-349.984,0,0
197694,671.865,-355.728,0,0
197955,680.279,-362.047,0,0
198215,688.467,-368.982,0,0
198475,696.344,-376.385,0,0
198735,704.05,-384.178,0,0
198996,711.551,-392.554,0,0
199256,718.737,-401.59,0,0
199516,725.272,-411.166,0,0
199777,731.279,-421.059,0,0
200037,736.58,-431.361,0,0
200297,741.31,-441.778,0,0
200558,745.462,-452.415,0,0
200818,748.97,-463.142,0,0
201078,751.983,-474.035,0,0
201339,754.148,-485.06,0,0
201599,755.555,-495.838,0,0
201859,756.511,-506.195,0,0
202120,757.093,-516.39,0,0
202380.025,757.399,-526.537,0,0
202640.35,756.924,-536.449,0,0
202900.675,755.8,-545.776,0,0
203161.0,754.617,-554.288,0,0
203421.325,753.693,-562.244,0,0
203681.65,753.074,-570.167,0,0
203941.975,752.539,-578.299,0,0
204202.3,751.966,-586.569,0,0
204462.625,750.9,-594.875,0,0
204722.95,749.55,-602.827,0,0
204983.275,748.474,-610.592,0,0
205243.6,747.484,-618.448,0,0
205503.925,746.412,-626.49,0,0
205764.25,745.122,-634.895,0,0
206024.575,743.449,-643.22,0,0
206284.9,741.598,-651.4,0,0
206545.225,739.64,-659.653,0,0
206805.55,737.66,-667.984,0,0
207065.875,735.482,-676.804,0,0
207326.2,732.741,-685.941,0,0
207586.525,729.297,-695.042,0,0
207846.85,725.276,-704.294,0,0
208107.175,720.564,-713.47,0,0
208367.5,714.882,-722.365,0,0
208627.825,708.371,-730.713,0,0
208888.15,701.369,-738.199,0,0
209148.475,694.031,-745.058,0,0
209408.8,686.408,-751.094,0,0
209669.125,678.6,-756.315,0,0
209929.45,670.798,-760.83,0,0
210189.775,663.384,-764.582,0,0
210450.1,656.107,-767.765,0,0
210710.425,649.225,-770.563,0,0
210970.75,642.496,-773.104,0,0
211231.075,635.776,-775.401,0,0
211491.4,629.164,-777.085,0,0
211751.725,622.733,-778.167,0,0
212012.05,616.761,-778.802,0,0
212272.375,611.333,-779.085,0,0
212532.7,606.344,-779.107,0,0
212793.025,601.857,-778.91,0,0
213053.35,598.001,-778.613,0,0
213313.675,594.726,-778.367,0,0
213574.0,591.696,-778.141,0,0
213834.325,589.251,-777.861,0,0
214094.65,587.491,-777.891,0,0
214354.975,586.147,-778.205,0,0
214615.3,585.212,-779.051,0,0
214875.625,584.561,-780.425,0,0
215135.95,584.026,-782.377,0,0
215396.275,583.46,-784.855,0,0
215656.6,582.84,-787.892,0,0
215916.925,581.956,-791.427,0,0
216177.25,580.714,-795.339,0,0
216437.575,579.074,-799.497,0,0
216697.9,577.014,-803.862,0,0
216958.225,574.56,-808.258,0,0
217218.55,571.812,-812.605,0,0
217478.875,568.814,-816.983,0,0
217739.2,565.434,-821.483,0,0
217999.525,561.775,-825.852,0,0
218259.85,557.839,-830.131,0,0
218520,553.43,-834.107,0,0
218780,549.064,-837.788,0,0
219041,544.721,-841.238,0,0
219301,540.513,-844.75,0,0
219561,536.237,-848.332,0,0
219822,531.835,-852.063,0,0
220082,527.051,-855.957,0,0
220342,521.916,-859.792,0,0
220603,516.446,-863.331,0,0
220863,510.818,-866.756,0,0
221123,505.036,-869.998,0,0
221384,498.932,-873.204,0,0
221644,492.528,-876.09,0,0
221904,485.857,-878.751,0,0
222165,478.871,-880.873,0,0
222425,471.891,-882.54,0,0
222685,464.996,-883.781,0,0
222946,458.361,-884.724,0,0
223206,451.865,-885.531,0,0
223466,445.327,-886.274,0,0
223727,438.752,-886.842,0,0
223987,432.113,-887.175,0,0
224247,425.598,-887.254,0,0
224508,419.145,-887.117,0,0
224768,412.77,-887.004,0,0
225028,406.168,-886.543,0,0
225289,399.947,-886.044,0,0
225549,393.456,-885.314,0,0
225809,386.972,-884.458,0,0
226070,380.522,-883.223,0,0
226330,374.066,-881.701,0,0
226590,367.757,-879.836,0,0
226851,361.619,-877.667,0,0
227111,355.917,-875.449,0,0
227371,350.289,-873.079,0,0
227632,344.86,-870.617,0,0
227892,339.379,-868.075,0,0
228152,334.027,-865.425,0,0
228413,328.712,-862.55,0,0
228673,323.642,-859.297,0,0
228933,318.763,-855.949,0,0
229193,314.149,-852.494,0,0
229454,309.733,-848.94,0,0
229714,305.547,-845.25,0,0
229974,301.461,-841.46,0,0
230235,297.771,-837.564,0,0
230495,294.357,-833.673,0,0
230755,291.221,-829.71,0,0
231016,288.299,-825.784,0,0
231276,285.612,-821.832,0,0
231536,283.248,-818.019,0,0
231797,281.077,-814.333,0,0
232057,278.972,-810.873,0,0
232317,276.967,-807.416,0,0
232578,275.027,-803.949,0,0
232838,273.309,-800.576,0,0
233098,271.658,-797.195,0,0
233359,270.189,-793.905,0,0
233619,268.821,-790.604,0,0
233879,267.703,-787.452,0,0
234140,266.678,-784.454,0,0
234400,265.778,-781.615,0,0
234660.3,264.849,-778.869,0,0
234920.625,264.073,-776.302,0,0
235180.95,263.309,-773.756,0,0
235441.275,262.649,-771.34,0,0
235701.6,262.053,-769.089,0,0
235961.925,261.419,-767.005,0,0
236222.25,260.759,-765.064,0,0
236482.575,259.917,-763.042,0,0
236742.9,259.156,-761.15,0,0
237003.225,258.438,-759.228,0,0
237263.55,257.717,-757.304,0,0
237523.875,257.085,-755.493,0,0
237784.2,256.492,-753.703,0,0
238044.525,255.863,-752.002,0,0
238304.85,255.351,-750.387,0,0
238565.175,254.91,-748.843,0,0
238825.5,254.409,-747.505,0,0
239085.825,253.834,-746.228,0,0
239346.15,253.261,-745.067,0,0
239606.475,252.533,-743.977,0,0
239866.8,251.843,-742.9,0,0
240127.125,251.063,-741.844,0,0
240387.45,250.234,-740.872,0,0
240647.775,249.409,-739.978,0,0
240908.1,248.437,-739.122,0,0
241168.425,247.314,-738.299,0,0
241428.75,246.039,-737.447,0,0
241689.075,244.713,-736.514,0,0
241949.4,243.342,-735.458,0,0
242209.725,241.962,-734.371,0,0
242470.05,240.602,-733.285,0,0
242730.375,239.135,-732.135,0,0
242990.7,237.659,-730.872,0,0
243251.025,236.241,-729.545,0,0
243511.35,234.869,-728.12,0,0
243771.675,233.516,-726.78,0,0
244032.0,232.209,-725.398,0,0
244292.325,230.868,-723.935,0,0
244552.65,229.549,-722.569,0,0
244812.975,228.161,-721.101,0,0
245073.3,226.876,-719.662,0,0
245333.625,225.464,-718.061,0,0
245593.95,224.119,-716.448,0,0
245854.275,222.746,-714.688,0,0
246114.6,221.694,-712.937,0,0
246374.925,220.653,-711.172,0,0
246635.25,219.631,-709.412,0,0
246895.575,218.726,-707.745,0,0
247155.9,217.789,-706.04,0,0
247416.225,217.046,-704.369,0,0
247676.55,216.358,-702.875,0,0
247936.875,215.588,-701.582,0,0
248197.2,214.813,-700.27,0,0
248457.525,213.819,-699.104,0,0
248717.85,212.728,-697.867,0,0
248978.175,211.673,-696.601,0,0
249238.5,210.429,-695.366,0,0
249498.825,209.192,-694.017,0,0
249759.15,207.894,-692.562,0,0
250019.475,206.486,-691.047,0,0
250279.8,205.26,-689.434,0,0
250540,204.031,-687.804,0,0
250800,202.785,-686.298,0,0
251061,201.439,-684.778,0,0
251321,199.95,-683.238,0,0
251581,198.378,-681.628,0,0
251842,196.693,-679.885,0,0
252102,194.871,-677.957,0,0
252362,192.963,-675.828,0,0
252623,191.033,-673.44,0,0
252883,189.113,-670.766,0,0
253143,187.327,-667.703,0,0
253404,185.802,-664.424,0,0
253664,184.557,-661.023,0,0
253924,183.53,-657.545,0,0
254185,182.687,-654.003,0,0
254445,182.077,-650.383,0,0
254705,181.652,-646.692,0,0
254966,181.377,-643.078,0,0
255226,181.352,-639.463,0,0
255486,181.401,-635.791,0,0
255747,181.584,-632.109,0,0
256007,181.914,-628.304,0,0
256267,182.504,-624.399,0,0
256528,183.424,-620.501,0,0
256788,184.611,-616.653,0,0
257048,186.037,-612.895,0,0
257309,187.694,-609.276,0,0
257569,189.55,-605.756,0,0
257829,191.571,-602.345,0,0
258090,193.798,-599.046,0,0
258350,196.121,-595.866,0,0
258610,198.651,-592.714,0,0
258871,201.465,-589.711,0,0
259131,204.476,-586.861,0,0
259391,207.681,-584.131,0,0
259651,211.174,-581.691,0,0
259912,214.849,-579.522,0,0
260172,218.635,-577.545,0,0
260432,222.645,-575.892,0,0
260693,226.789,-574.504,0,0
260953,231.064,-573.503,0,0
261213,235.406,-572.867,0,0
261474,239.78,-572.635,0,0
261734,244.065,-572.844,0,0
261994,248.172,-573.319,0,0
262255,252.174,-573.973,0,0
262515,256.198,-574.864,0,0
262775,260.15,-576.1,0,0
263036,264.04,-577.598,0,0
263296,267.894,-579.601,0,0
263556,271.392,-581.88,0,0
263817,274.517,-584.368,0,0
264077,277.4,-586.888,0,0
264337,280.19,-589.462,0,0
264598,282.941,-592.268,0,0
264858,285.657,-595.342,0,0
265118,288.144,-598.714,0,0
265379,290.425,-602.471,0,0
265639,292.263,-606.503,0,0
265899,293.683,-610.753,0,0
266160,294.682,-615.155,0,0
266420,295.262,-619.69,0,0
266680.25,295.24,-624.223,0,0
266940.575,294.66,-628.688,0,0
267200.9,293.537,-632.893,0,0
267461.225,292.118,-636.73,0,0
267721.55,290.48,-640.217,0,0
267981.875,288.715,-643.477,0,0
268242.2,286.837,-646.538,0,0
268502.525,284.86,-649.404,0,0
268762.85,282.672,-652.085,0,0
269023.175,280.569,-654.635,0,0
269283.5,278.227,-657.233,0,0
269543.825,275.479,-659.658,0,0
269804.15,272.4,-661.684,0,0
270064.475,269.181,-663.065,0,0
270324.8,266.097,-663.888,0,0
270585.125,263.358,-664.326,0,0
270845.45,261.046,-664.655,0,0
271105.775,258.971,-664.956,0,0
271366.1,257.165,-665.192,0,0
271626.425,255.551,-665.519,0,0
271886.75,254.175,-666.002,0,0
272147.075,252.854,-666.629,0,0
272407.4,251.636,-667.524,0,0
272667.725,250.305,-668.664,0,0
272928.05,248.681,-669.964,0,0
273188.375,246.943,-671.244,0,0
273448.7,245.106,-672.496,0,0
273709.025,243.106,-673.861,0,0
273969.35,240.88,-675.231,0,0
274229.675,238.555,-676.609,0,0
274490.0,235.915,-678.024,0,0
274750.325,232.976,-679.384,0,0
275010.65,229.7,-680.466,0,0
275270.975,226.227,-681.37,0,0
275531.3,222.505,-682.023,0,0
275791.625,218.586,-682.224,0,0
276051.95,214.679,-682.044,0,0
276312.275,210.769,-681.562,0,0
276572.6,206.833,-680.797,0,0
276832.925,202.929,-679.598,0,0
277093.25,199.114,-678.035,0,0
277353.575,195.615,-676.132,0,0
277613.9,192.311,-673.951,0,0
277874.225,189.324,-671.559,0,0
278134.55,186.62,-668.99,0,0
278394.875,184.142,-666.324,0,0
278655.2,181.94,-663.509,0,0
278915.525,180.058,-660.606,0,0
279175.85,178.484,-657.663,0,0
279436.175,177.287,-654.703,0,0
279696.5,176.393,-651.876,0,0
279956.825,175.8,-649.14,0,0
280217.15,175.45,-646.706,0,0
280477.475,175.229,-644.505,0,0
280737.8,174.999,-642.504,0,0
280998.125,174.832,-640.687,0,0
281258.45,174.671,-638.977,0,0
281518.775,174.485,-637.413,0,0
281779.1,174.158,-635.97,0,0
282039.425,173.741,-634.482,0,0
282299.75,173.305,-632.869,0,0
282560,172.938,-631.165,0,0
282820,172.72,-629.362,0,0
283081,172.705,-627.566,0,0
283341,172.95,-625.849,0,0
283601,173.377,-624.341,0,0
283862,173.892,-623.1,0,0
284122,174.384,-622.14,0,0
284382,174.732,-621.396,0,0
284643,174.935,-620.7,0,0
284903,175,-620.059,0,0
285163,175.074,-619.428,0,0
285424,175.036,-618.868,0,0
285684,174.968,-618.345,0,0
285944,174.767,-617.906,0,0
286205,174.417,-617.5,0,0
286465,173.837,-617.037,0,0
286725,173.134,-616.459,0,0
286986,172.329,-615.784,0,0
287246,171.371,-614.946,0,0
287506,170.278,-613.805,0,0
287767,169.169,-612.219,0,0
288027,168.308,-610.243,0,0
288287,167.838,-608.026,0,0
288548,167.706,-605.702,0,0
288808,167.967,-603.309,0,0
289068,168.562,-600.927,0,0
289329,169.579,-598.608,0,0
289589,170.964,-596.474,0,0
289849,172.727,-594.552,0,0
290109,174.779,-593.018,0,0
290370,177.034,-591.846,0,0
290630,179.346,-591.095,0,0
290890,181.696,-590.664,0,0
291151,184.086,-590.56,0,0
291411,186.464,-590.853,0,0
291671,188.835,-591.509,0,0
291932,191.042,-592.536,0,0
292192,193.039,-593.888,0,0
292452,194.841,-595.507,0,0
292713,196.409,-597.341,0,0
292973,197.776,-599.41,0,0
293233,198.948,-601.718,0,0
293494,199.814,-604.364,0,0
293754,200.2,-607.178,0,0
294014,200.136,-610.085,0,0
294275,199.674,-612.966,0,0
294535,198.818,-615.841,0,0
294795,197.498,-618.603,0,0
295056,195.831,-621.202,0,0
295316,193.776,-623.515,0,0
295576,191.469,-625.505,0,0
295837,189.017,-627.176,0,0
296097,186.421,-628.533,0,0
296357,183.756,-629.63,0,0
296618,181.062,-630.455,0,0
296878,178.313,-630.96,0,0
297138,175.612,-631.204,0,0
297399,173.037,-631.213,0,0
297659,170.518,-631.035,0,0
297919,168.127,-630.672,0,0
298180,165.861,-630.148,0,0
298440,163.773,-629.527,0,0
298700.2,161.823,-628.869,0,0
298960.525,159.996,-628.214,0,0
299220.85,158.233,-627.571,0,0
299481.175,156.488,-626.923,0,0
299741.5,154.764,-626.235,0,0
300001.825,153.11,-625.534,0,0
300262.15,151.469,-624.823,0,0
300522.475,149.831,-624.074,0,0
300782.8,148.21,-623.258,0,0
301043.125,146.63,-622.447,0,0
301303.45,145.034,-621.552,0,0
301563.775,143.473,-620.63,0,0
301824.1,141.916,-619.612,0,0
302084.425,140.407,-618.539,0,0
302344.75,138.966,-617.373,0,0
302605.075,137.631,-616.168,0,0
302865.4,136.362,-614.94,0,0
303125.725,135.161,-613.695,0,0
303386.05,134.008,-612.439,0,0
303646.375,132.907,-611.162,0,0
303906.7,131.89,-609.851,0,0
304167.025,130.973,-608.525,0,0
304427.35,130.097,-607.238,0,0
304687.675,129.293,-605.94,0,0
304948.0,128.535,-604.659,0,0
305208.325,127.824,-603.366,0,0
305468.65,127.193,-602.079,0,0
305728.975,126.66,-600.806,0,0
305989.3,126.202,-599.585,0,0
306249.625,125.828,-598.433,0,0
306509.95,125.502,-597.353,0,0
306770.275,125.199,-596.344,0,0
307030.6,124.92,-595.426,0,0
307290.925,124.628,-594.587,0,0
307551.25,124.316,-593.808,0,0
307811.575,123.982,-593.043,0,0
308071.9,123.633,-592.346,0,0
308332.225,123.291,-591.679,0,0
308592.55,122.911,-591.056,0,0
308852.875,122.495,-590.492,0,0
309113.2,122.027,-589.951,0,0
309373.525,121.521,-589.409,0,0
309633.85,120.968,-588.891,0,0
309894.175,120.377,-588.348,0,0
310154.5,119.746,-587.813,0,0
310414.825,119.094,-587.265,0,0
310675.15,118.393,-586.705,0,0
310935.475,117.662,-586.093,0,0
311195.8,116.923,-585.459,0,0
311456.125,116.153,-584.801,0,0
311716.45,115.368,-584.1,0,0
311976.775,114.569,-583.36,0,0
312237.1,113.776,-582.545,0,0
312497.425,113.009,-581.688,0,0
312757.75,112.267,-580.76,0,0
313018.075,111.611,-579.832,0,0
313278.4,110.994,-578.872,0,0
313538.725,110.438,-577.921,0,0
313799.05,109.908,-576.964,0,0
314059.375,109.425,-576.039,0,0
314319.7,108.982,-575.102,0,0
314580,108.6,-574.238,0,0
314840,108.209,-573.288,0,0
315101,107.909,-572.471,0,0
315361,107.5,-571.695,0,0
315621,107.269,-570.922,0,0
315882,107.006,-570.156,0,0
316142,106.726,-569.494,0,0
316402,106.473,-568.787,0,0
316663,106.039,-568.214,0,0
316923,105.762,-567.661,0,0
317183,105.539,-567.114,0,0
317444,105.104,-566.584,0,0
317704,104.859,-566.092,0,0
317964,104.458,-565.657,0,0
318225,104.08,-565.254,0,0
318485,103.634,-564.957,0,0
318745,103.128,-564.699,0,0
319006,102.465,-564.267,0,0
319266,101.817,-563.925,0,0
319526,101.117,-563.663,0,0
319787,100.414,-563.173,0,0
320047,99.6486,-562.824,0,0
320307,98.8619,-562.425,0,0
320567,98.1152,-561.989,0,0
320828,97.2028,-561.578,0,0
321088,96.2576,-561.189,0,0
321348,95.1841,-560.766,0,0
321609,94.1685,-560.27,0,0
321869,92.9402,-559.685,0,0
322129,91.7241,-559.062,0,0
322390,90.3692,-558.238,0,0
322650,89.0172,-557.347,0,0
322910,87.7298,-556.21,0,0
323171,86.4947,-555.014,0,0
323431,85.3165,-553.76,0,0
323691,84.2297,-552.286,0,0
323952,83.2948,-550.804,0,0
324212,82.4597,-549.279,0,0
324472,81.7413,-547.786,0,0
324733,81.179,-546.244,0,0
324993,80.6728,-544.816,0,0
325253,80.144,-543.34,0,0
325514,79.6919,-541.979,0,0
325774,79.2712,-540.598,0,0
326034,78.9257,-539.297,0,0
326295,78.5532,-537.953,0,0
326555,78.1523,-536.601,0,0
326815,77.7468,-535.337,0,0
327076,77.3484,-533.943,0,0
327336,77.0693,-532.677,0,0
327596,76.7466,-531.298,0,0
327857,76.4409,-529.975,0,0
328117,76.2596,-528.523,0,0
328377,76.0231,-527.147,0,0
328638,75.9274,-525.695,0,0
328898,75.8526,-524.34,0,0
329158,75.7807,-522.923,0,0
329419,75.8061,-521.508,0,0
329679,75.9826,-520.054,0,0
329939,76.1582,-518.775,0,0
330200,76.4278,-517.469,0,0
330460,76.8524,-516.274,0,0
330720.15,77.1758,-515.163,0,0
330980.475,77.6104,-514.172,0,0
331240.8,77.9697,-513.283,0,0
331501.125,78.3926,-512.498,0,0
331761.45,78.7087,-511.688,0,0
332021.775,78.9499,-510.968,0,0
332282.1,79.21,-510.36,0,0
332542.425,79.4117,-509.774,0,0
332802.75,79.5498,-509.164,0,0
333063.075,79.6628,-508.602,0,0
333323.4,79.619,-508.091,0,0
333583.725,79.6374,-507.531,0,0
333844.05,79.6119,-507,0,0
334104.375,79.4464,-506.393,0,0
334364.7,79.3063,-505.894,0,0
334625.025,79.0928,-505.298,0,0
334885.35,78.8591,-504.65,0,0
335145.675,78.5678,-503.954,0,0
335406.0,78.2594,-503.315,0,0
335666.325,77.9519,-502.516,0,0
335926.65,77.6342,-501.742,0,0
336186.975,77.2832,-500.91,0,0
336447.3,76.9458,-499.965,0,0
336707.625,76.6094,-499.074,0,0
336967.95,76.2811,-498.076,0,0
337228.275,75.9808,-496.976,0,0
337488.6,75.7317,-495.871,0,0
337748.925,75.5006,-494.63,0,0
338009.25,75.3748,-493.412,0,0
338269.575,75.3529,-492.179,0,0
338529.9,75.338,-490.852,0,0
338790.225,75.4533,-489.572,0,0
339050.55,75.6433,-488.338,0,0
339310.875,75.8917,-487.03,0,0
339571.2,76.255,-485.813,0,0
339831.525,76.6474,-484.616,0,0
340091.85,77.1231,-483.391,0,0
340352.175,77.6021,-482.379,0,0
340612.5,78.1989,-481.268,0,0
340872.825,78.8267,-480.172,0,0
341133.15,79.5444,-479.202,0,0
341393.475,80.3553,-478.321,0,0
341653.8,81.1616,-477.442,0,0
341914.125,82.0698,-476.759,0,0
342174.45,83.0306,-476.095,0,0
342434.775,83.939,-475.617,0,0
342695.1,84.8989,-475.358,0,0
342955.425,85.7812,-475.166,0,0
343215.75,86.637,-475.095,0,0
343476.075,87.312,-475.147,0,0
343736.4,87.9709,-475.238,0,0
343996.725,88.5044,-475.495,0,0
344257.05,88.8888,-475.661,0,0
344517.375,89.1762,-475.898,0,0
344777.7,89.3611,-476.119,0,0
345038.025,89.4779,-476.415,0,0
345298.35,89.456,-476.631,0,0
345558.675,89.3476,-476.831,0,0
345819.0,89.2502,-476.953,0,0
346079.325,89.0366,-477.041,0,0
346339.65,88.7413,-477.092,0,0
346599.975,88.4677,-477.097,0,0
346860,88.1049,-477.042,0,0
347121,87.7307,-476.951,0,0
347381,87.4037,-476.884,0,0
347641,86.9503,-476.671,0,0
347902,86.5694,-476.51,0,0
348162,86.1227,-476.269,0,0
348422,85.7049,-476.016,0,0
348683,85.1824,-475.694,0,0
348943,84.7535,-475.362,0,0
349203,84.3011,-474.966,0,0
349464,83.7929,-474.494,0,0
349724,83.3302,-474.049,0,0
349984,82.7889,-473.561,0,0
350245,82.3254,-472.948,0,0
350505,81.8086,-472.289,0,0
350765,81.4091,-471.653,0,0
351025,81.0268,-470.932,0,0
351286,80.6766,-470.23,0,0
351546,80.314,-469.438,0,0
351806,79.9689,-468.7,0,0
352067,79.6708,-467.927,0,0
352327,79.4176,-467.104,0,0
352587,79.2486,-466.204,0,0
352848,79.1271,-465.364,0,0
353108,78.9879,-464.498,0,0
353368,78.9793,-463.624,0,0
353629,79.0453,-462.779,0,0
353889,79.1441,-461.958,0,0
354149,79.2682,-461.169,0,0
354410,79.5084,-460.479,0,0
354670,79.7004,-459.92,0,0
354930,79.9249,-459.363,0,0
355191,80.0839,-458.899,0,0
355451,80.2398,-458.494,0,0
355711,80.3016,-458.116,0,0
355972,80.3383,-457.656,0,0
356232,80.3127,-457.321,0,0
356492,80.2734,-456.91,0,0
356753,80.3019,-456.583,0,0
357013,80.1649,-456.209,0,0
357273,80.0738,-455.849,0,0
357534,79.9099,-455.475,0,0
357794,79.6925,-455.099,0,0
358054,79.4196,-454.735,0,0
358315,79.0838,-454.291,0,0
358575,78.6759,-453.788,0,0
358835,78.2682,-453.111,0,0
359096,77.9379,-452.435,0,0
359356,77.5573,-451.568,0,0
359616,77.3459,-450.752,0,0
359877,77.0821,-449.848,0,0
360137,76.972,-448.942,0,0
360397,76.9667,-448.021,0,0
360658,76.9617,-447.145,0,0
360918,76.9755,-446.24,0,0
361178,77.0842,-445.321,0,0
361438,77.2238,-444.488,0,0
361699,77.4044,-443.613,0,0
361959,77.6507,-442.815,0,0
362219,77.9503,-442.021,0,0
362480,78.2746,-441.334,0,0
362740.1,78.5437,-440.675,0,0
363000.425,78.9384,-440.032,0,0
363260.75,79.2404,-439.458,0,0
363521.075,79.5584,-439.001,0,0
363781.4,79.8126,-438.581,0,0
364041.725,80.0586,-438.077,0,0
364302.05,80.2023,-437.711,0,0
364562.375,80.2937,-437.304,0,0
364822.7,80.3033,-436.924,0,0
365083.025,80.2957,-436.42,0,0
365343.35,80.3042,-435.903,0,0
365603.675,80.2367,-435.32,0,0
365864.0,80.1848,-434.604,0,0
366124.325,80.2,-433.892,0,0
366384.65,80.2828,-433.142,0,0
366644.975,80.3744,-432.291,0,0
366905.3,80.5495,-431.471,0,0
367165.625,80.7714,-430.629,0,0
367425.95,81.1044,-429.731,0,0
367686.275,81.4415,-428.904,0,0
367946.6,81.8164,-428.061,0,0
368206.925,82.384,-427.205,0,0
368467.25,82.8798,-426.432,0,0
368727.575,83.6086,-425.619,0,0
368987.9,84.3571,-424.876,0,0
369248.225,85.1507,-424.203,0,0
369508.55,86.0008,-423.683,0,0
369768.875,86.8986,-423.235,0,0
370029.2,87.8333,-422.846,0,0
370289.525,88.721,-422.598,0,0
370549.85,89.5772,-422.324,0,0
370810.175,90.5221,-422.236,0,0
371070.5,91.4463,-422.181,0,0
371330.825,92.4145,-422.222,0,0
371591.15,93.3007,-422.383,0,0
371851.475,94.2235,-422.659,0,0
372111.8,95.0179,-423.101,0,0
372372.125,95.7794,-423.586,0,0
372632.45,96.4209,-424.209,0,0
372892.775,96.9334,-424.874,0,0
373153.1,97.286,-425.655,0,0
373413.425,97.5653,-426.435,0,0
373673.75,97.6332,-427.235,0,0
373934.075,97.5687,-427.939,0,0
374194.4,97.2817,-428.62,0,0
374454.725,96.9581,-429.178,0,0
374715.05,96.5507,-429.594,0,0
374975.375,96.15,-429.937,0,0
375235.7,95.6816,-430.176,0,0
375496.025,95.3102,-430.306,0,0
375756.35,94.9355,-430.401,0,0
376016.675,94.544,-430.425,0,0
376277.0,94.322,-430.454,0,0
376537.325,93.996,-430.496,0,0
376797.65,93.7668,-430.555,0,0
377057.975,93.4683,-430.533,0,0
377318.3,93.173,-430.534,0,0
377578.625,92.9,-430.631,0,0
377838.95,92.5989,-430.64,0,0
378099.275,92.257,-430.681,0,0
378359.6,91.9136,-430.651,0,0
378619.925,91.5495,-430.587,0,0
378880,91.2304,-430.527,0,0
379141,90.9015,-430.479,0,0
379401,90.5545,-430.372,0,0
379661,90.2817,-430.157,0,0
379922,89.9583,-430.067,0,0
380182,89.6954,-430.017,0,0
380442,89.3596,-429.884,0,0
380703,89.0626,-429.798,0,0
380963,88.7592,-429.633,0,0
381223,88.4529,-429.517,0,0
381483,88.1447,-429.375,0,0
381744,87.8759,-429.204,0,0
382004,87.5236,-429.036,0,0
382264,87.2616,-428.784,0,0
382525,87.146,-428.577,0,0
382785,86.9923,-428.474,0,0
383045,86.8618,-428.34,0,0
383306,86.7625,-428.408,0,0
383566,86.5918,-428.514,0,0
383826,86.4106,-428.703,0,0
384087,86.0492,-428.946,0,0
384347,85.6712,-429.211,0,0
384607,85.085,-429.464,0,0
384868,84.4001,-429.671,0,0
385128,83.6597,-429.831,0,0
385388,82.7641,-429.899,0,0
385649,81.9029,-429.839,0,0
385909,81.003,-429.668,0,0
386169,80.0605,-429.402,0,0
386430,79.1017,-429.056,0,0
386690,78.1876,-428.604,0,0
386950,77.2632,-428.057,0,0
387211,76.4776,-427.475,0,0
387471,75.627,-426.797,0,0
387731,74.8237,-425.999,0,0
387992,74.1786,-425.164,0,0
388252,73.5554,-424.267,0,0
388512,73.0681,-423.291,0,0
388773,72.676,-422.347,0,0
389033,72.4503,-421.393,0,0
389293,72.2752,-420.482,0,0
389554,72.2194,-419.603,0,0
389814,72.2634,-418.793,0,0
390074,72.2647,-418.02,0,0
390335,72.4562,-417.422,0,0
390595,72.5958,-416.89,0,0
390855,72.8364,-416.477,0,0
391116,73.011,-416.177,0,0
391376,73.1109,-415.992,0,0
391636,73.1786,-415.957,0,0
391896,73.1182,-415.958,0,0
392157,72.9755,-416.023,0,0
392417,72.6754,-416.046,0,0
392677,72.271,-416.112,0,0
392938,71.7987,-416.092,0,0
393198,71.1518,-416.077,0,0
393458,70.5322,-415.979,0,0
393719,69.7756,-415.78,0,0
393979,69.0288,-415.466,0,0
394239,68.1888,-415.061,0,0
394500,67.4216,-414.599,0,0
394760.05,66.6564,-413.988,0,0
395020.375,65.902,-413.391,0,0
395280.7,65.2215,-412.688,0,0
395541.025,64.5323,-411.971,0,0
395801.35,63.8728,-411.247,0,0
396061.675,63.3023,-410.431,0,0
396322.0,62.7744,-409.577,0,0
396582.325,62.2039,-408.723,0,0
396842.65,61.7462,-407.862,0,0
397102.975,61.3244,-406.958,0,0
397363.3,60.9172,-406.079,0,0
397623.625,60.5682,-405.141,0,0
397883.95,60.2339,-404.248,0,0
398144.275,59.938,-403.374,0,0
398404.6,59.6675,-402.482,0,0
398664.925,59.3353,-401.613,0,0
398925.25,59.1064,-400.703,0,0
399185.575,58.8244,-399.763,0,0
399445.9,58.6206,-398.826,0,0
399706.225,58.3839,-397.935,0,0
399966.55,58.2176,-396.938,0,0
400006.6,58.1708,-396.832,0,0