File: Accelerated corrosion test data/2025-10-01_18-00-03/sample_1.csv
Frequency (Hz),Impedance (ohms),Phase (Radians),Temperature (C),Humidity (%)
10000.0,271.253,-12108.2,0,0
10260.325,268.136,-11797.9,0,0
10520.65,247.122,-11520.4,0,0
10780.975,240.961,-11239.4,0,0
11041.3,244.044,-10979.9,0,0
11301.625,236.464,-10726.1,0,0
11561.95,250.362,-10483.3,0,0
11822.275,225.612,-10247.4,0,0
12082.6,243.65,-10015.9,0,0
12342.925,222.245,-9844.63,0,0
12603.25,227.86,-9634.32,0,0
12863.575,235.007,-9432.72,0,0
13123.9,234.621,-9244.52,0,0
13384.225,218.57,-9072.26,0,0
13644.55,228.116,-8891.87,0,0
13904.875,229.804,-8715.29,0,0
14165.2,221.925,-8572.63,0,0
14425.525,233.544,-8427.22,0,0
14685.8,233.862,-8253.82,0,0
14946.175,201.458,-8150.93,0,0
15206.5,200.009,-7997.06,0,0
15466.825,202.301,-7866.8,0,0
15727.15,200.406,-7747.34,0,0
15987.5,192.802,-7614.68,0,0
16247.8,170.645,-7492.17,0,0
16508.125,187.275,-7368.72,0,0
16768.45,184.559,-7254.21,0,0
17028.775,191.329,-7149.36,0,0
17289.1,185.263,-7043.75,0,0
17549.425,173.715,-6939.86,0,0
17809.75,175.105,-6838.29,0,0
18070.075,168.546,-6741.88,0,0
18330.4,163.179,-6644.49,0,0
18590.725,147.152,-6551.77,0,0
18851.05,155.648,-6454.66,0,0
19111.375,162.639,-6371.64,0,0
19371.7,156.398,-6281.81,0,0
19632.025,146.762,-6193.91,0,0
19892.35,161.898,-6107.96,0,0
20152.675,156.473,-6021.62,0,0
20413.0,179.971,-5937.59,0,0
20673.3,185.01,-5895.78,0,0
20933.65,171.906,-5824.6,0,0
21193.975,169.1,-5761.69,0,0
21454.3,166.368,-5689.28,0,0
21714.625,147.129,-5624.39,0,0
21974.9,158.186,-5536.14,0,0
22235.275,182.224,-5497.6,0,0
22495.6,154.339,-5452.01,0,0
22755.925,144.862,-5383.13,0,0
23016.25,143.364,-5317.59,0,0
23276.6,138.139,-5257.65,0,0
23536.9,133.135,-5197.49,0,0
23797.225,133.489,-5136.46,0,0
24057.55,136.964,-5076.86,0,0
24317.875,127.689,-5027.97,0,0
24578.2,118.965,-4970.81,0,0
24838.525,118.488,-4920.09,0,0
25098.85,120.543,-4867.09,0,0
25359.175,111.845,-4818.23,0,0
25619.5,114.177,-4767.08,0,0
25879.8,113.18,-4716.04,0,0
26140.1,111.724,-4667.47,0,0
26400.5,112.053,-4617.51,0,0
26660.8,112.213,-4568,0,0
26921.1,125.042,-4523.27,0,0
27181.4,127.996,-4488.52,0,0
27441.8,113.824,-4454,0,0
27702.1,108.076,-4403.91,0,0
27962.4,119.306,-4358.32,0,0
28222.7,117.972,-4318.47,0,0
28483.1,126.603,-4275.27,0,0
28743.4,132.25,-4258.79,0,0
29003.7,118.284,-4221.63,0,0
29264,121.658,-4188.05,0,0
29524.4,112.32,-4151.48,0,0
29784.7,113.093,-4111.11,0,0
30045,104.522,-4078.8,0,0
30305.3,104.688,-4040.53,0,0
30565.7,101.004,-4001.69,0,0
30826,108.928,-3967.79,0,0
31086.3,108.119,-3939.93,0,0
31346.6,99.1911,-3909.96,0,0
31607,97.6587,-3873.59,0,0
31867.3,103.18,-3840.08,0,0
32127.6,103.767,-3810.19,0,0
32387.9,98.6307,-3784.73,0,0
32648.3,98.7373,-3752.29,0,0
32908.6,103.414,-3724.8,0,0
33168.9,93.5865,-3695.37,0,0
33429.2,90.6036,-3667.37,0,0
33689.6,87.1246,-3638.01,0,0
33949.9,87.7948,-3607.53,0,0
34210.2,90.2723,-3581.89,0,0
34470.5,87.3811,-3554.61,0,0
34730.9,87.0549,-3526.88,0,0
34991.2,83.1533,-3500.13,0,0
35251.5,85.6271,-3473.71,0,0
35511.8,83.5329,-3447.6,0,0
35772.2,80.8911,-3422.35,0,0
36032.5,79.8743,-3397.24,0,0
36292.8,80.1445,-3371.95,0,0
36553.1,78.6936,-3347.15,0,0
36813.5,81.2131,-3322.89,0,0
37073.8,77.6652,-3299.45,0,0
37334.1,76.5868,-3275.77,0,0
37594.4,80.1823,-3252.78,0,0
37854.8,77.1221,-3230.23,0,0
38115.1,74.319,-3207.44,0,0
38375.4,76.0939,-3184.89,0,0
38635.7,76.2057,-3163.31,0,0
38896.1,76.8713,-3141.25,0,0
39156.4,74.5255,-3119.83,0,0
39416.7,74.0819,-3099.3,0,0
39677,74.9789,-3078.14,0,0
39937.4,78.492,-3057.29,0,0
40197.7,78.1005,-3036.96,0,0
40458,74.4331,-3016.92,0,0
40718.3,75.7891,-2996.33,0,0
40978.7,76.6699,-2977.86,0,0
41239,77.2112,-2959.41,0,0
41499.3,76.5574,-2941.78,0,0
41759.6,76.9027,-2923.01,0,0
42020,73.7679,-2903.41,0,0
42280.275,74.6854,-2885.25,0,0
42540.6,73.7982,-2868.23,0,0
42800.925,72.8759,-2851.02,0,0
43061.25,72.3082,-2833.1,0,0
43321.575,71.691,-2816.02,0,0
43581.9,73.2755,-2798.81,0,0
43842.225,73.104,-2780.54,0,0
44102.55,69.6425,-2763.81,0,0
44362.875,72.5951,-2747.03,0,0
44623.2,71.8405,-2731.88,0,0
44883.525,71.1495,-2715.85,0,0
45143.85,73.0095,-2700.09,0,0
45404.175,70.6106,-2685.43,0,0
45664.5,70.0716,-2670.63,0,0
45924.825,70.1416,-2655.25,0,0
46185.15,67.5755,-2640.39,0,0
46445.475,67.9754,-2624.86,0,0
46705.8,66.0564,-2609.66,0,0
46966.125,64.967,-2594.7,0,0
47226.45,66.5981,-2579.96,0,0
47486.775,65.4308,-2566.15,0,0
47747.1,64.8,-2552.02,0,0
48007.425,64.8904,-2537.47,0,0
48267.75,64.4598,-2523.87,0,0
48528.075,63.6065,-2510.06,0,0
48788.4,63.3405,-2495.97,0,0
49048.725,62.5401,-2482.25,0,0
49309.05,63.3939,-2468.49,0,0
49569.375,62.2385,-2455.15,0,0
49829.7,61.7698,-2442.21,0,0
50090.025,61.7089,-2429.27,0,0
50350.35,60.8897,-2416.01,0,0
50610.675,60.7117,-2402.91,0,0
50871.0,60.8077,-2390.04,0,0
51131.325,60.4824,-2377.37,0,0
51391.65,61.4374,-2365.2,0,0
51651.975,60.0693,-2352.74,0,0
51912.3,60.2731,-2340.34,0,0
52172.625,59.8794,-2328.37,0,0
52432.95,59.1953,-2316.31,0,0
52693.275,59.8804,-2304.22,0,0
52953.6,59.1587,-2292.36,0,0
53213.925,58.6968,-2280.81,0,0
53474.25,60.0488,-2269.33,0,0
53734.575,60.2013,-2257.99,0,0
53994.9,58.99,-2246.94,0,0
54255.225,59.765,-2235.81,0,0
54515.55,58.56,-2224.58,0,0
54775.875,59.0039,-2213.45,0,0
55036.2,57.8632,-2202.27,0,0
55296.525,58.6524,-2191.24,0,0
55556.85,57.1641,-2180.85,0,0
55817.175,58.1029,-2170.41,0,0
56077.5,57.0422,-2159.55,0,0
56337.825,57.1722,-2149.02,0,0
56598.15,58.1077,-2138.62,0,0
56858.475,57.0765,-2128.39,0,0
57118.8,56.2663,-2118.04,0,0
57379.125,55.8281,-2107.71,0,0
57639.45,56.4123,-2097.77,0,0
57899.775,57.0664,-2087.95,0,0
58160.1,56.6583,-2078.14,0,0
58420.4,56.3578,-2068.41,0,0
58680.7,56.6233,-2058.59,0,0
58941.1,55.1323,-2049.15,0,0
59201.4,56.3675,-2039.54,0,0
59461.7,56.0404,-2030.65,0,0
59722,56.3041,-2021.02,0,0
59982.4,55.9138,-2011.81,0,0
60242.7,55.7969,-2002.64,0,0
60503,55.5323,-1993.67,0,0
60763.3,55.5752,-1985.17,0,0
61023.7,55.6338,-1976.36,0,0
61284,55.893,-1967.29,0,0
61544.3,55.1731,-1958.32,0,0
61804.6,55.1323,-1949.92,0,0
62065,54.0195,-1941.37,0,0
62325.3,54.4942,-1932.46,0,0
62585.6,53.8331,-1923.76,0,0
62845.9,53.4022,-1914.84,0,0
63106.3,54.4229,-1906.4,0,0
63366.6,53.2818,-1897.96,0,0
63626.9,54.1828,-1889.61,0,0
63887.2,54.5086,-1881.12,0,0
64147.6,54.0809,-1872.81,0,0
64407.9,54.007,-1864.77,0,0
64668.2,53.9245,-1856.51,0,0
64928.5,54.8442,-1848.18,0,0
65188.9,55.7267,-1840.05,0,0
65449.2,56.67,-1832.72,0,0
65709.5,56.3181,-1825.95,0,0
65969.8,56.9196,-1818.76,0,0
66230.2,56.6468,-1811.56,0,0
66490.5,56.5755,-1804.15,0,0
66750.8,55.718,-1797.11,0,0
67011.1,54.9304,-1790.09,0,0
67271.5,55.4302,-1781.88,0,0
67531.8,55.6212,-1774.89,0,0
67792.1,55.4999,-1768.43,0,0
68052.4,55.365,-1761.79,0,0
68312.8,54.4997,-1754.46,0,0
68573.1,54.5788,-1747.05,0,0
68833.4,54.7378,-1740.33,0,0
69093.7,54.7052,-1733.61,0,0
69354.1,54.4094,-1727.03,0,0
69614.4,53.6318,-1720.32,0,0
69874.7,53.2707,-1713.51,0,0
70135,52.9914,-1706.61,0,0
70395.4,52.1015,-1699.84,0,0
70655.7,51.8952,-1692.94,0,0
70916,51.7366,-1685.97,0,0
71176.3,51.692,-1679.29,0,0
71436.7,51.0385,-1672.92,0,0
71697,50.7624,-1666.16,0,0
71957.3,50.4769,-1659.22,0,0
72217.6,50.039,-1652.53,0,0
72478,50.366,-1645.76,0,0
72738.3,49.4594,-1638.9,0,0
72998.6,49.3561,-1632.26,0,0
73258.9,49.429,-1625.65,0,0
73519.3,49.1439,-1619.02,0,0
73779.6,49.1374,-1612.35,0,0
74039.9,49.0374,-1605.9,0,0
74300.225,49.1094,-1599.39,0,0
74560.55,49.445,-1593.02,0,0
74820.875,49.8651,-1586.77,0,0
75081.2,49.7947,-1580.56,0,0
75341.525,49.3364,-1574.23,0,0
75601.85,49.6928,-1567.63,0,0
75862.175,50.2307,-1561.48,0,0
76122.5,50.4392,-1555.48,0,0
76382.825,50.6435,-1549.84,0,0
76643.15,50.8958,-1543.82,0,0
76903.475,50.7778,-1537.76,0,0
77163.8,51.2573,-1531.99,0,0
77424.125,51.0671,-1526.22,0,0
77684.45,51.6345,-1520.18,0,0
77944.775,52.2898,-1514.4,0,0
78205.1,52.1621,-1508.82,0,0
78465.425,52.7058,-1503.51,0,0
78725.75,52.9245,-1498.33,0,0
78986.075,53.0564,-1493.19,0,0
79246.4,53.0271,-1487.87,0,0
79506.725,53.6761,-1482.7,0,0
79767.05,52.566,-1477.53,0,0
80027.375,53.1675,-1472.11,0,0
80287.7,53.0387,-1466.53,0,0
80548.025,52.8467,-1460.97,0,0
80808.35,52.7139,-1455.61,0,0
81068.675,52.1139,-1450.23,0,0
81329.0,52.8263,-1444.72,0,0
81589.325,52.8191,-1439.39,0,0
81849.65,52.7702,-1433.93,0,0
82109.975,52.4896,-1428.6,0,0
82370.3,52.6311,-1423.23,0,0
82630.625,52.4224,-1417.87,0,0
82890.95,52.7069,-1412.27,0,0
83151.275,53.3073,-1407.03,0,0
83411.6,53.9448,-1401.66,0,0
83671.925,54.2011,-1396.52,0,0
83932.25,54.2374,-1391.58,0,0
84192.575,54.4376,-1386.67,0,0
84452.9,55.0534,-1381.65,0,0
84713.225,55.81,-1376.65,0,0
84973.55,56.0354,-1371.97,0,0
85233.875,56.0575,-1367.36,0,0
85494.2,56.2299,-1362.66,0,0
85754.525,56.6043,-1357.86,0,0
86014.85,56.9496,-1352.85,0,0
86275.175,57.2589,-1348.31,0,0
86535.5,57.581,-1343.77,0,0
86795.825,57.9358,-1339,0,0
87056.15,58.0015,-1334.61,0,0
87316.475,58.456,-1330.25,0,0
87576.8,58.4358,-1325.91,0,0
87837.125,58.4491,-1321.02,0,0
88097.45,57.929,-1316.37,0,0
88357.775,58.1197,-1311.59,0,0
88618.1,58.7475,-1306.78,0,0
88878.425,58.3892,-1302.27,0,0
89138.75,58.9131,-1297.07,0,0
89399.075,58.9173,-1292.14,0,0
89659.4,59.9745,-1287.15,0,0
89919.725,60.7483,-1282.07,0,0
90180,62.1147,-1277.6,0,0
90440.4,62.5142,-1273.42,0,0
90700.7,63.3276,-1268.68,0,0
90961,64.3702,-1263.91,0,0
91221.3,65.8879,-1259.66,0,0
91481.7,67.1534,-1255.64,0,0
91742,68.5146,-1251.89,0,0
92002.3,69.5178,-1248.18,0,0
92262.6,71.0641,-1244.37,0,0
92523,72.3545,-1240.84,0,0
92783.3,73.8275,-1237.86,0,0
93043.6,75.3307,-1234.75,0,0
93303.9,77.2269,-1232.28,0,0
93564.3,78.7652,-1230.96,0,0
93824.6,79.0787,-1230.11,0,0
94084.9,78.0034,-1229.21,0,0
94345.2,76.3003,-1227.24,0,0
94605.6,74.979,-1224.12,0,0
94865.9,73.4798,-1221.85,0,0
95126.2,71.296,-1218.47,0,0
95386.5,69.8463,-1214.56,0,0
95646.9,68.2399,-1210.33,0,0
95907.2,67.2892,-1205.82,0,0
96167.5,67.0235,-1201.61,0,0
96427.8,66.2944,-1197.92,0,0
96688.2,65.5489,-1193.71,0,0
96948.5,64.8947,-1189.33,0,0
97208.8,64.5314,-1184.72,0,0
97469.1,64.4238,-1180.46,0,0
97729.5,64.4824,-1176.38,0,0
97989.8,64.4901,-1172.46,0,0
98250.1,64.5479,-1168.65,0,0
98510.4,64.2432,-1164.61,0,0
98770.8,63.9905,-1160.54,0,0
99031.1,63.8206,-1156.49,0,0
99291.4,64.3116,-1152.32,0,0
99551.7,64.0237,-1148.22,0,0
99812.1,64.1489,-1144.28,0,0
100072,64.523,-1140.46,0,0
100333,64.404,-1136.64,0,0
100593,64.957,-1132.72,0,0
100853,64.4264,-1129.11,0,0
101114,64.3411,-1125.25,0,0
101374,64.0333,-1121.42,0,0
101634,63.5554,-1117.2,0,0
101895,63.9755,-1112.45,0,0
102155,63.6273,-1107.71,0,0
102415,64.4476,-1102.98,0,0
102676,65.3808,-1098.61,0,0
102936,66.152,-1094.47,0,0
103196,67.1361,-1090.4,0,0
103457,67.9091,-1086.27,0,0
103717,68.9652,-1081.88,0,0
103977,70.6106,-1077.74,0,0
104238,72.2293,-1074.05,0,0
104498,73.8444,-1070.77,0,0
104758,75.0632,-1067.59,0,0
105019,76.4047,-1064.33,0,0
105279,77.7562,-1060.92,0,0
105539,79.2792,-1057.73,0,0
105800,80.8934,-1054.76,0,0
106060,82.2028,-1051.97,0,0
106320.175,83.6985,-1049.16,0,0
106580.5,85.4073,-1046.6,0,0
106840.825,86.9405,-1044.37,0,0
107101.15,87.9702,-1042.36,0,0
107361.475,89.0852,-1040.2,0,0
107621.8,89.8578,-1038.13,0,0
107882.125,90.8183,-1035.76,0,0
108142.45,92.1901,-1033.66,0,0
108402.775,92.891,-1031.77,0,0
108663.1,93.9999,-1029.97,0,0
108923.425,94.5798,-1028.46,0,0
109183.75,94.8011,-1026.91,0,0
109444.075,95.3177,-1025.21,0,0
109704.4,95.3056,-1023.62,0,0
109964.725,95.103,-1021.96,0,0
110225.05,95.0363,-1020.11,0,0
110485.375,94.8457,-1018.3,0,0
110745.7,94.3364,-1016.29,0,0
111006.025,93.9475,-1013.75,0,0
111266.35,94.125,-1011.38,0,0
111526.675,93.9748,-1008.89,0,0
111787.0,94.2353,-1006.66,0,0
112047.325,94.4296,-1004.5,0,0
112307.65,94.6359,-1002.54,0,0
112567.975,94.6746,-1000.68,0,0
112828.3,94.791,-998.862,0,0
113088.625,94.7446,-997.047,0,0
113348.95,94.2339,-995.417,0,0
113609.275,93.9594,-993.602,0,0
113869.6,93.3765,-991.974,0,0
114129.925,92.5532,-990.196,0,0
114390.25,91.7039,-988.119,0,0
114650.575,90.7771,-985.98,0,0
114910.9,89.9148,-983.75,0,0
115171.225,89.1292,-981.592,0,0
115431.55,87.9892,-979.359,0,0
115691.875,86.87,-976.707,0,0
115952.2,85.8194,-973.823,0,0
116212.525,85.0542,-970.988,0,0
116472.85,84.3211,-968.172,0,0
116733.175,83.5017,-965.334,0,0
116993.5,82.5859,-962.338,0,0
117253.825,82.0386,-959.189,0,0
117514.15,81.3971,-956.098,0,0
117774.475,80.8721,-952.823,0,0
118034.8,80.4322,-949.588,0,0
118295.125,80.2862,-946.303,0,0
118555.45,80.1617,-943.036,0,0
118815.775,80.0844,-939.892,0,0
119076.1,80.1615,-936.734,0,0
119336.425,80.3755,-933.691,0,0
119596.75,80.4967,-930.797,0,0
119857.075,80.6244,-927.753,0,0
120117.4,80.8612,-924.762,0,0
120377.725,81.4798,-922.076,0,0
120638.05,81.7374,-919.585,0,0
120898.375,81.8884,-917.239,0,0
121158.7,81.9579,-914.902,0,0
121419.025,81.9288,-912.646,0,0
121679.35,81.4732,-910.306,0,0
121939.675,81.3117,-907.667,0,0
122200.0,80.8529,-905.05,0,0
122460,80.3656,-902.321,0,0
122721,79.9637,-899.3,0,0
122981,79.7706,-896.261,0,0
123241,79.7366,-893.279,0,0
123502,79.7012,-890.397,0,0
123762,79.6203,-887.482,0,0
124022,79.6352,-884.454,0,0
124283,79.8904,-881.488,0,0
124543,80.0464,-878.648,0,0
124803,80.1731,-875.787,0,0
125064,80.3179,-872.869,0,0
125324,80.5389,-869.983,0,0
125584,80.8458,-867.164,0,0
125845,81.1237,-864.371,0,0
126105,81.3651,-861.54,0,0
126365,81.6268,-858.798,0,0
126626,81.876,-856.14,0,0
126886,82.0275,-853.304,0,0
127146,82.2451,-850.539,0,0
127406,82.4476,-847.534,0,0
127667,83.0204,-844.414,0,0
127927,83.477,-841.516,0,0
128187,84.0736,-838.637,0,0
128448,84.7347,-835.852,0,0
128708,85.4372,-833.188,0,0
128968,86.0048,-830.585,0,0
129229,86.5787,-827.839,0,0
129489,87.216,-825.116,0,0
129749,88.0103,-822.342,0,0
130010,88.9462,-819.652,0,0
130270,89.9764,-817.107,0,0
130530,90.9818,-814.737,0,0
130791,91.9639,-812.48,0,0
131051,92.9657,-810.389,0,0
131311,93.7806,-808.376,0,0
131572,94.5397,-806.374,0,0
131832,95.2826,-804.355,0,0
132092,95.9175,-802.407,0,0
132353,96.4887,-800.503,0,0
132613,97.0904,-798.529,0,0
132873,97.6231,-796.608,0,0
133134,98.1285,-794.69,0,0
133394,98.5588,-792.784,0,0
133654,98.9236,-790.889,0,0
133915,99.2559,-789.001,0,0
134175,99.4741,-786.995,0,0
134435,99.7228,-784.893,0,0
134696,100.009,-782.708,0,0
134956,100.316,-780.433,0,0
135216,100.843,-778.25,0,0
135477,101.262,-776.148,0,0
135737,101.573,-773.972,0,0
135997,102.165,-771.695,0,0
136258,102.78,-769.58,0,0
136518,103.355,-767.553,0,0
136778,103.965,-765.441,0,0
137039,104.54,-763.348,0,0
137299,105.337,-761.164,0,0
137559,106.237,-759.317,0,0
137819,107.107,-757.685,0,0
138080,107.869,-756.238,0,0
138340.125,108.175,-754.951,0,0
138600.45,108.385,-753.542,0,0
138860.775,108.449,-751.935,0,0
139121.1,108.539,-750.192,0,0
139381.425,108.67,-748.487,0,0
139641.75,108.64,-746.821,0,0
139902.075,108.556,-744.977,0,0
140162.4,108.409,-742.914,0,0
140422.725,108.475,-740.848,0,0
140683.05,108.568,-738.757,0,0
140943.375,108.606,-736.577,0,0
141203.7,108.882,-734.35,0,0
141464.025,109.274,-732.267,0,0
141724.35,109.438,-730.203,0,0
141984.675,109.908,-728.095,0,0
142245.0,110.362,-726.228,0,0
142505.325,110.514,-724.46,0,0
142765.65,110.645,-722.507,0,0
143025.975,110.732,-720.565,0,0
143286.3,110.785,-718.669,0,0
143546.625,110.653,-716.572,0,0
143806.95,110.591,-714.278,0,0
144067.275,110.723,-711.848,0,0
144327.6,110.934,-709.441,0,0
144587.925,111.168,-707.07,0,0
144848.25,111.464,-704.641,0,0
145108.575,112.074,-702.207,0,0
145368.9,112.659,-699.923,0,0
145629.225,113.231,-697.701,0,0
145889.55,113.794,-695.619,0,0
146149.875,114.229,-693.519,0,0
146410.2,114.768,-691.236,0,0
146670.525,115.512,-689.076,0,0
146930.85,116.131,-687.206,0,0
147191.175,116.565,-685.28,0,0
147451.5,117.067,-683.267,0,0
147711.825,117.588,-681.38,0,0
147972.15,117.982,-679.486,0,0
148232.475,118.262,-677.521,0,0
148492.8,118.638,-675.584,0,0
148753.125,118.749,-673.551,0,0
149013.45,119.033,-671.393,0,0
149273.775,119.344,-669.134,0,0
149534.1,119.857,-666.976,0,0
149794.425,120.267,-664.909,0,0
150054.75,120.684,-662.834,0,0
150315.075,121.045,-660.868,0,0
150575.4,121.249,-658.951,0,0
150835.725,121.231,-656.999,0,0
151096.05,120.993,-654.798,0,0
151356.375,120.847,-652.198,0,0
151616.7,120.931,-649.424,0,0
151877.025,121.185,-646.618,0,0
152137.35,121.486,-643.819,0,0
152397.675,121.799,-640.961,0,0
152658.0,122.168,-638.036,0,0
152918.325,122.795,-635.058,0,0
153178.65,123.496,-632.184,0,0
153438.975,124.07,-629.4,0,0
153699.3,124.402,-626.351,0,0
153959.625,124.986,-623.011,0,0
154219.95,125.76,-619.507,0,0
154480,126.833,-615.76,0,0
154741,128.449,-612.016,0,0
155001,130.359,-608.634,0,0
155261,132.307,-605.526,0,0
155522,134.24,-602.393,0,0
155782,136.379,-599.314,0,0
156042,138.61,-596.397,0,0
156303,140.848,-593.593,0,0
156563,143.308,-590.747,0,0
156823,145.938,-588.155,0,0
157084,148.613,-585.779,0,0
157344,151.361,-583.652,0,0
157604,153.941,-581.756,0,0
157864,156.516,-579.946,0,0
158125,158.824,-578.387,0,0
158385,160.834,-576.483,0,0
158645,162.989,-574.394,0,0
158906,165.484,-572.095,0,0
159166,168.114,-569.905,0,0
159426,170.9,-567.908,0,0
159687,173.624,-565.986,0,0
159947,176.509,-563.766,0,0
160207,180.028,-561.595,0,0
160468,183.929,-559.865,0,0
160728,187.985,-558.738,0,0
160988,191.924,-558.145,0,0
161249,195.688,-557.912,0,0
161509,199.01,-557.903,0,0
161769,202.375,-557.851,0,0
162030,205.686,-558.04,0,0
162290,208.774,-558.468,0,0
162550,211.587,-558.917,0,0
162811,214.48,-559.338,0,0
163071,217.391,-559.854,0,0
163331,220.366,-560.696,0,0
163592,223.03,-561.991,0,0
163852,225.148,-563.248,0,0
164112,226.975,-564.233,0,0
164373,229.039,-564.881,0,0
164633,231.42,-565.655,0,0
164893,233.824,-566.718,0,0
165154,236.307,-568.106,0,0
165414,238.774,-570.041,0,0
165674,240.777,-572.353,0,0
165935,242.295,-574.875,0,0
166195,243.417,-577.438,0,0
166455,244.21,-579.908,0,0
166716,244.625,-582.49,0,0
166976,244.544,-584.951,0,0
167236,244.266,-587.086,0,0
167497,243.907,-589.176,0,0
167757,243.302,-591.365,0,0
168017,242.175,-593.426,0,0
168277,240.726,-595.026,0,0
168538,239.328,-596.345,0,0
168798,237.75,-597.511,0,0
169058,236.021,-598.441,0,0
169319,234.087,-599.208,0,0
169579,231.921,-599.444,0,0
169839,229.962,-599.163,0,0
170100,228.132,-598.683,0,0
170360.075,226.414,-597.932,0,0
170620.4,225.098,-596.938,0,0
170880.725,224.184,-595.992,0,0
171141.05,223.349,-595.285,0,0
171401.375,222.473,-594.635,0,0
171661.7,221.471,-594.157,0,0
171922.025,220.131,-593.537,0,0
172182.35,218.801,-592.49,0,0
172442.675,217.689,-591.269,0,0
172703.0,216.685,-589.994,0,0
172963.325,215.702,-588.616,0,0
173223.65,214.795,-587.162,0,0
173483.975,213.937,-585.446,0,0
173744.3,213.441,-583.451,0,0
174004.625,213.373,-581.5,0,0
174264.95,213.623,-579.866,0,0
174525.275,213.888,-578.405,0,0
174785.6,214.227,-577.027,0,0
175045.925,214.621,-576.022,0,0
175306.25,215.016,-575.191,0,0
175566.575,215.1,-574.574,0,0
175826.9,215.012,-573.73,0,0
176087.225,215.045,-572.801,0,0
176347.55,215.127,-572.083,0,0
176607.875,215.219,-571.547,0,0
176868.2,214.969,-571.156,0,0
177128.525,214.443,-570.449,0,0
177388.85,214.033,-569.462,0,0
177649.175,213.916,-568.456,0,0
177909.5,213.865,-567.74,0,0
178169.825,213.651,-567.091,0,0
178430.15,213.388,-566.506,0,0
178690.475,213.09,-566.031,0,0
178950.8,212.584,-565.698,0,0
179211.125,211.792,-565.288,0,0
179471.45,210.843,-564.644,0,0
179731.775,209.96,-564.083,0,0
179992.1,208.851,-563.572,0,0
180252.425,207.245,-562.838,0,0
180512.75,205.648,-561.531,0,0
180773.075,204.362,-560.196,0,0
181033.4,202.926,-558.838,0,0
181293.725,201.38,-557.259,0,0
181554.05,200.028,-555.459,0,0
181814.375,198.697,-553.716,0,0
182074.7,197.191,-551.865,0,0
182335.025,195.529,-549.742,0,0
182595.35,193.953,-547.152,0,0
182855.675,192.66,-544.286,0,0
183116.0,191.711,-541.402,0,0
183376.325,190.846,-538.471,0,0
183636.65,190.155,-535.491,0,0
183896.975,189.623,-532.483,0,0
184157.3,189.239,-529.459,0,0
184417.625,188.975,-526.464,0,0
184677.95,188.776,-523.425,0,0
184938.275,188.687,-520.422,0,0
185198.6,188.654,-517.492,0,0
185458.925,188.594,-514.504,0,0
185719.25,188.636,-511.401,0,0
185979.575,188.805,-508.284,0,0
186239.9,189.058,-505.145,0,0
186500,189.382,-501.923,0,0
186761,189.895,-498.753,0,0
187021,190.526,-495.745,0,0
187281,191.227,-492.737,0,0
187542,191.865,-489.825,0,0
187802,192.569,-486.99,0,0
188062,193.049,-484.077,0,0
188322,193.435,-480.948,0,0
188583,194.212,-477.661,0,0
188843,195.051,-474.301,0,0
189103,196.029,-470.965,0,0
189364,197.247,-467.699,0,0
189624,198.566,-464.548,0,0
189884,199.849,-461.507,0,0
190145,201.059,-458.506,0,0
190405,202.304,-455.424,0,0
190665,203.726,-452.252,0,0
190926,205.152,-449.282,0,0
191186,206.58,-446.359,0,0
191446,207.87,-443.331,0,0
191707,209.33,-440.112,0,0
191967,210.874,-436.89,0,0
192227,212.427,-433.92,0,0
192488,213.779,-430.852,0,0
192748,215.136,-427.597,0,0
193008,216.57,-424.05,0,0
193269,218.318,-420.317,0,0
193529,220.248,-416.635,0,0
193789,222.379,-413.07,0,0
194050,224.419,-409.516,0,0
194310,226.526,-405.774,0,0
194570,228.787,-401.931,0,0
194831,231.253,-397.88,0,0
195091,234.179,-393.918,0,0
195351,237.201,-390.093,0,0
195612,240.348,-386.367,0,0
195872,243.512,-382.682,0,0
196132,246.824,-378.827,0,0
196393,250.33,-374.899,0,0
196653,254.213,-371.027,0,0
196913,258.449,-367.228,0,0
197174,262.977,-363.773,0,0
197434,267.452,-360.685,0,0
197694,271.91,-357.81,0,0
197955,276.296,-354.81,0,0
198215,280.806,-351.953,0,0
198475,285.256,-349.108,0,0
198735,289.753,-346.239,0,0
198996,294.397,-343.242,0,0
199256,299.221,-340.221,0,0
199516,304.26,-337.266,0,0
199777,309.326,-334.234,0,0
200037,314.679,-331.131,0,0
200297,320.417,-327.915,0,0
200558,326.546,-324.848,0,0
200818,333.022,-321.975,0,0
201078,339.826,-319.266,0,0
201339,347.05,-316.838,0,0
201599,354.46,-314.767,0,0
201859,362.039,-312.888,0,0
202120,369.899,-311.234,0,0
202380.025,378.129,-310.001,0,0
202640.35,386.492,-309.187,0,0
202900.675,395.063,-308.651,0,0
203161.0,403.759,-308.441,0,0
203421.325,412.789,-308.559,0,0
203681.65,422.038,-309.232,0,0
203941.975,431.773,-310.213,0,0
204202.3,441.83,-312.046,0,0
204462.625,452.006,-314.925,0,0
204722.95,462.064,-318.796,0,0
204983.275,471.489,-323.661,0,0
205243.6,480.463,-329.115,0,0
205503.925,488.979,-335.286,0,0
205764.25,496.73,-341.955,0,0
206024.575,503.838,-348.881,0,0
206284.9,510.399,-356.101,0,0
206545.225,516.475,-363.72,0,0
206805.55,521.91,-371.701,0,0
207065.875,526.518,-379.9,0,0
207326.2,530.163,-388.189,0,0
207586.525,533.072,-396.214,0,0
207846.85,535.506,-403.862,0,0
208107.175,537.493,-411.511,0,0
208367.5,539.02,-418.919,0,0
208627.825,539.96,-426.307,0,0
208888.15,540.309,-433.467,0,0
209148.475,539.957,-440.299,0,0
209408.8,538.991,-446.513,0,0
209669.125,537.772,-451.911,0,0
209929.45,536.353,-456.801,0,0
210189.775,534.984,-461.21,0,0
210450.1,533.524,-465.134,0,0
210710.425,531.814,-468.62,0,0
210970.75,530.037,-471.449,0,0
211231.075,528.299,-473.408,0,0
211491.4,526.993,-474.69,0,0
211751.725,526.283,-475.349,0,0
212012.05,526.106,-475.513,0,0
212272.375,526.759,-475.374,0,0
212532.7,528.398,-475.329,0,0
212793.025,530.785,-475.947,0,0
213053.35,533.215,-477.067,0,0
213313.675,535.649,-478.276,0,0
213574.0,538.374,-479.566,0,0
213834.325,541.443,-481.112,0,0
214094.65,544.74,-483.019,0,0
214354.975,548.281,-485.356,0,0
214615.3,551.564,-488.4,0,0
214875.625,554.514,-491.676,0,0
215135.95,557.124,-494.911,0,0
215396.275,559.735,-498.335,0,0
215656.6,561.975,-501.791,0,0
215916.925,563.717,-505.029,0,0
216177.25,565.411,-507.665,0,0
216437.575,567.388,-509.744,0,0
216697.9,570.145,-511.518,0,0
216958.225,573.627,-513.644,0,0
217218.55,577.541,-516.219,0,0
217478.875,581.489,-519.41,0,0
217739.2,585.366,-522.902,0,0
217999.525,589.218,-526.563,0,0
218259.85,593.141,-530.342,0,0
218520,597.156,-534.207,0,0
218780,601.473,-538.288,0,0
219041,606.011,-542.721,0,0
219301,610.863,-547.599,0,0
219561,615.674,-553.138,0,0
219822,620.446,-559.264,0,0
220082,625.166,-565.69,0,0
220342,629.656,-572.736,0,0
220603,634.127,-580.042,0,0
220863,638.496,-588.133,0,0
221123,642.419,-596.86,0,0
221384,645.891,-605.964,0,0
221644,648.95,-615.347,0,0
221904,651.875,-625.188,0,0
222165,654.184,-635.523,0,0
222425,656.116,-646.408,0,0
222685,657.248,-657.747,0,0
222946,657.673,-669.347,0,0
223206,657.369,-681.209,0,0
223466,656.207,-693.114,0,0
223727,654.193,-705.205,0,0
223987,651.307,-716.943,0,0
224247,647.856,-728.461,0,0
224508,643.85,-739.635,0,0
224768,639.571,-750.76,0,0
225028,634.466,-762.034,0,0
225289,628.596,-772.999,0,0
225549,621.901,-783.42,0,0
225809,614.562,-793.513,0,0
226070,606.909,-803.021,0,0
226330,598.613,-811.929,0,0
226590,589.859,-820.415,0,0
226851,580.766,-828.165,0,0
227111,571.372,-834.995,0,0
227371,561.9,-841.304,0,0
227632,552.575,-847.132,0,0
227892,543.141,-852.615,0,0
228152,533.489,-857.67,0,0
228413,523.615,-862.097,0,0
228673,513.83,-866.047,0,0
228933,503.867,-869.414,0,0
229193,494.155,-872.308,0,0
229454,484.11,-874.686,0,0
229714,474.47,-876.563,0,0
229974,464.675,-877.906,0,0
230235,455.321,-878.57,0,0
230495,445.983,-878.751,0,0
230755,437.197,-878.656,0,0
231016,428.679,-878.109,0,0
231276,420.625,-877.222,0,0
231536,412.89,-876.149,0,0
231797,405.645,-874.907,0,0
232057,398.833,-873.676,0,0
232317,392.1,-872.547,0,0
232578,385.659,-871.374,0,0
232838,379.187,-870.141,0,0
233098,372.959,-868.758,0,0
233359,366.857,-867.291,0,0
233619,361.04,-865.742,0,0
233879,355.311,-864.253,0,0
234140,349.688,-862.797,0,0
234400,344.226,-861.174,0,0
234660.3,339.066,-859.56,0,0
234920.625,333.872,-857.962,0,0
235180.95,328.553,-856.401,0,0
235441.275,323.359,-854.628,0,0
235701.6,318.184,-852.691,0,0
235961.925,313.379,-850.692,0,0
236222.25,308.649,-848.589,0,0
236482.575,304.276,-846.434,0,0
236742.9,299.992,-844.412,0,0
237003.225,295.915,-842.505,0,0
237263.55,291.848,-840.732,0,0
237523.875,287.702,-839.016,0,0
237784.2,283.561,-837.315,0,0
238044.525,279.415,-835.536,0,0
238304.85,275.221,-833.789,0,0
238565.175,271.034,-831.833,0,0
238825.5,266.743,-830.006,0,0
239085.825,262.573,-827.898,0,0
239346.15,258.384,-825.747,0,0
239606.475,254.222,-823.26,0,0
239866.8,250.146,-820.831,0,0
240127.125,246.331,-818.166,0,0
240387.45,242.69,-815.341,0,0
240647.775,239.338,-812.55,0,0
240908.1,235.954,-809.892,0,0
241168.425,232.839,-807.136,0,0
241428.75,229.647,-804.369,0,0
241689.075,226.698,-801.455,0,0
241949.4,223.889,-798.922,0,0
242209.725,221.312,-796.143,0,0
242470.05,218.73,-793.43,0,0
242730.375,216.257,-790.826,0,0
242990.7,213.859,-788.385,0,0
243251.025,211.458,-785.918,0,0
243511.35,209.154,-783.536,0,0
243771.675,206.804,-781.214,0,0
244032.0,204.493,-778.913,0,0
244292.325,202.216,-776.627,0,0
244552.65,199.755,-774.377,0,0
244812.975,197.364,-771.985,0,0
245073.3,195.052,-769.582,0,0
245333.625,192.775,-767.165,0,0
245593.95,190.599,-764.705,0,0
245854.275,188.366,-762.273,0,0
246114.6,186.247,-759.738,0,0
246374.925,184.18,-757.18,0,0
246635.25,182.126,-754.651,0,0
246895.575,180.214,-752.116,0,0
247155.9,178.287,-749.586,0,0
247416.225,176.446,-747.049,0,0
247676.55,174.633,-744.46,0,0
247936.875,173.053,-741.915,0,0
248197.2,171.287,-739.368,0,0
248457.525,169.651,-736.789,0,0
248717.85,168.065,-734.266,0,0
248978.175,166.497,-731.704,0,0
249238.5,165.042,-729.181,0,0
249498.825,163.624,-726.609,0,0
249759.15,162.145,-724.115,0,0
250019.475,160.847,-721.617,0,0
250279.8,159.557,-719.134,0,0
250540,158.239,-716.629,0,0
250800,157.064,-714.117,0,0
251061,155.848,-711.664,0,0
251321,154.664,-709.104,0,0
251581,153.525,-706.669,0,0
251842,152.478,-704.157,0,0
252102,151.405,-701.648,0,0
252362,150.36,-699.143,0,0
252623,149.374,-696.686,0,0
252883,148.358,-694.165,0,0
253143,147.469,-691.63,0,0
253404,146.526,-689.028,0,0
253664,145.693,-686.365,0,0
253924,144.985,-683.718,0,0
254185,144.396,-681.042,0,0
254445,143.856,-678.407,0,0
254705,143.426,-675.828,0,0
254966,143.139,-673.301,0,0
255226,142.762,-670.773,0,0
255486,142.501,-668.37,0,0
255747,142.263,-665.913,0,0
256007,142.036,-663.511,0,0
256267,141.841,-661.088,0,0
256528,141.716,-658.691,0,0
256788,141.658,-656.306,0,0
257048,141.666,-653.951,0,0
257309,141.748,-651.616,0,0
257569,141.884,-649.317,0,0
257829,142.059,-647.066,0,0
258090,142.269,-644.851,0,0
258350,142.528,-642.655,0,0
258610,142.833,-640.528,0,0
258871,143.113,-638.304,0,0
259131,143.599,-636.104,0,0
259391,144.165,-634.003,0,0
259651,144.826,-631.908,0,0
259912,145.54,-629.926,0,0
260172,146.327,-627.981,0,0
260432,147.149,-626.181,0,0
260693,148.038,-624.399,0,0
260953,149.061,-622.744,0,0
261213,150.066,-621.174,0,0
261474,151.105,-619.765,0,0
261734,152.118,-618.433,0,0
261994,153.151,-617.172,0,0
262255,154.157,-615.991,0,0
262515,155.207,-614.825,0,0
262775,156.273,-613.716,0,0
263036,157.44,-612.674,0,0
263296,158.663,-611.783,0,0
263556,159.965,-610.991,0,0
263817,161.316,-610.332,0,0
264077,162.658,-609.936,0,0
264337,163.985,-609.689,0,0
264598,165.218,-609.684,0,0
264858,166.379,-609.648,0,0
265118,167.463,-609.986,0,0
265379,168.472,-610.454,0,0
265639,169.254,-611.04,0,0
265899,169.947,-611.717,0,0
266160,170.466,-612.506,0,0
266420,170.838,-613.466,0,0
266680.25,170.979,-614.553,0,0
266940.575,170.834,-615.633,0,0
267200.9,170.391,-616.781,0,0
267461.225,169.683,-617.899,0,0
267721.55,168.654,-618.927,0,0
267981.875,167.404,-619.732,0,0
268242.2,165.957,-620.351,0,0
268502.525,164.388,-620.728,0,0
268762.85,162.693,-620.99,0,0
269023.175,160.866,-620.919,0,0
269283.5,159.044,-620.677,0,0
269543.825,157.17,-620.206,0,0
269804.15,155.423,-619.421,0,0
270064.475,153.71,-618.468,0,0
270324.8,152.145,-617.386,0,0
270585.125,150.615,-616.22,0,0
270845.45,149.19,-614.897,0,0
271105.775,147.889,-613.436,0,0
271366.1,146.626,-611.829,0,0
271626.425,145.625,-610.138,0,0
271886.75,144.771,-608.379,0,0
272147.075,144.044,-606.643,0,0
272407.4,143.487,-604.902,0,0
272667.725,143.052,-603.176,0,0
272928.05,142.729,-601.465,0,0
273188.375,142.544,-599.806,0,0
273448.7,142.459,-598.212,0,0
273709.025,142.426,-596.691,0,0
273969.35,142.459,-595.262,0,0
274229.675,142.532,-593.84,0,0
274490.0,142.691,-592.446,0,0
274750.325,142.862,-591.104,0,0
275010.65,143.135,-589.901,0,0
275270.975,143.453,-588.743,0,0
275531.3,143.749,-587.676,0,0
275791.625,144.017,-586.643,0,0
276051.95,144.283,-585.575,0,0
276312.275,144.639,-584.547,0,0
276572.6,145.086,-583.568,0,0
276832.925,145.554,-582.695,0,0
277093.25,146.088,-581.927,0,0
277353.575,146.578,-581.289,0,0
277613.9,147.046,-580.713,0,0
277874.225,147.449,-580.228,0,0
278134.55,147.846,-579.708,0,0
278394.875,148.285,-579.251,0,0
278655.2,148.753,-578.939,0,0
278915.525,149.228,-578.721,0,0
279175.85,149.583,-578.66,0,0
279436.175,149.88,-578.699,0,0
279696.5,150.084,-578.803,0,0
279956.825,150.035,-579.015,0,0
280217.15,149.964,-579.182,0,0
280477.475,149.745,-579.362,0,0
280737.8,149.344,-579.536,0,0
280998.125,148.832,-579.614,0,0
281258.45,148.289,-579.6,0,0
281518.775,147.683,-579.55,0,0
281779.1,147.044,-579.455,0,0
282039.425,146.388,-579.316,0,0
282299.75,145.67,-579.157,0,0
282560,144.854,-578.955,0,0
282820,143.972,-578.661,0,0
283081,143.024,-578.255,0,0
283341,142.135,-577.705,0,0
283601,141.316,-577.083,0,0
283862,140.549,-576.467,0,0
284122,139.746,-575.908,0,0
284382,138.926,-575.357,0,0
284643,137.999,-574.746,0,0
284903,137.034,-574.051,0,0
285163,136.124,-573.221,0,0
285424,135.101,-572.399,0,0
285684,134.16,-571.474,0,0
285944,133.189,-570.425,0,0
286205,132.227,-569.284,0,0
286465,131.366,-568.072,0,0
286725,130.504,-566.818,0,0
286986,129.652,-565.478,0,0
287246,128.832,-564.04,0,0
287506,128.04,-562.47,0,0
287767,127.369,-560.796,0,0
288027,126.83,-558.988,0,0
288287,126.474,-557.064,0,0
288548,126.363,-555.117,0,0
288808,126.471,-553.25,0,0
289068,126.747,-551.472,0,0
289329,127.135,-549.828,0,0
289589,127.604,-548.357,0,0
289849,128.094,-547.003,0,0
290109,128.607,-545.737,0,0
290370,129.085,-544.633,0,0
290630,129.483,-543.588,0,0
290890,129.858,-542.542,0,0
291151,130.224,-541.491,0,0
291411,130.617,-540.426,0,0
291671,131.062,-539.447,0,0
291932,131.491,-538.559,0,0
292192,131.848,-537.699,0,0
292452,132.2,-536.825,0,0
292713,132.502,-536.009,0,0
292973,132.786,-535.185,0,0
293233,133.017,-534.384,0,0
293494,133.262,-533.566,0,0
293754,133.364,-532.698,0,0
294014,133.434,-531.727,0,0
294275,133.477,-530.665,0,0
294535,133.607,-529.52,0,0
294795,133.794,-528.228,0,0
295056,134.064,-526.873,0,0
295316,134.437,-525.436,0,0
295576,134.979,-523.942,0,0
295837,135.771,-522.441,0,0
296097,136.759,-521.003,0,0
296357,137.895,-519.77,0,0
296618,139.108,-518.708,0,0
296878,140.302,-517.79,0,0
297138,141.482,-516.967,0,0
297399,142.645,-516.194,0,0
297659,143.844,-515.49,0,0
297919,145.046,-514.847,0,0
298180,146.249,-514.258,0,0
298440,147.453,-513.723,0,0
298700.2,148.711,-513.248,0,0
298960.525,149.909,-512.764,0,0
299220.85,151.339,-512.367,0,0
299481.175,152.673,-512.13,0,0
299741.5,154.068,-512.004,0,0
300001.825,155.308,-511.998,0,0
300262.15,156.558,-511.957,0,0
300522.475,157.802,-511.952,0,0
300782.8,159.03,-512.082,0,0
301043.125,160.289,-512.235,0,0
301303.45,161.557,-512.449,0,0
301563.775,162.772,-512.679,0,0
301824.1,164.051,-513.021,0,0
302084.425,165.204,-513.479,0,0
302344.75,166.342,-514.037,0,0
302605.075,167.519,-514.692,0,0
302865.4,168.491,-515.342,0,0
303125.725,169.524,-516.034,0,0
303386.05,170.524,-516.782,0,0
303646.375,171.515,-517.668,0,0
303906.7,172.475,-518.627,0,0
304167.025,173.291,-519.699,0,0
304427.35,173.911,-520.727,0,0
304687.675,174.519,-521.773,0,0
304948.0,175.088,-522.764,0,0
305208.325,175.552,-523.751,0,0
305468.65,176.071,-524.791,0,0
305728.975,176.522,-525.878,0,0
305989.3,176.952,-527.02,0,0
306249.625,177.363,-528.161,0,0
306509.95,177.739,-529.411,0,0
306770.275,178.014,-530.629,0,0
307030.6,178.276,-531.9,0,0
307290.925,178.496,-533.15,0,0
307551.25,178.595,-534.541,0,0
307811.575,178.773,-536.027,0,0
308071.9,178.693,-537.498,0,0
308332.225,178.518,-539.111,0,0
308592.55,178.236,-540.617,0,0
308852.875,177.788,-542.189,0,0
309113.2,177.255,-543.683,0,0
309373.525,176.632,-545.057,0,0
309633.85,175.975,-546.536,0,0
309894.175,175.257,-547.941,0,0
310154.5,174.389,-549.33,0,0
310414.825,173.566,-550.589,0,0
310675.15,172.555,-551.935,0,0
310935.475,171.595,-553.167,0,0
311195.8,170.568,-554.384,0,0
311456.125,169.481,-555.721,0,0
311716.45,168.199,-556.973,0,0
311976.775,166.794,-558.102,0,0
312237.1,165.418,-559.257,0,0
312497.425,163.842,-560.245,0,0
312757.75,162.225,-561.195,0,0
313018.075,160.41,-562.033,0,0
313278.4,158.77,-562.659,0,0
313538.725,157.128,-563.24,0,0
313799.05,155.29,-563.745,0,0
314059.375,153.671,-564.195,0,0
314319.7,151.81,-564.527,0,0
314580,150.103,-564.855,0,0
314840,148.373,-565.041,0,0
315101,146.585,-565.094,0,0
315361,144.907,-565.107,0,0
315621,143.277,-565.142,0,0
315882,141.553,-565.068,0,0
316142,139.93,-565,0,0
316402,138.143,-564.92,0,0
316663,136.497,-564.715,0,0
316923,134.814,-564.324,0,0
317183,133.198,-563.951,0,0
317444,131.523,-563.515,0,0
317704,130.008,-562.925,0,0
317964,128.431,-562.402,0,0
318225,127.058,-561.803,0,0
318485,125.672,-561.211,0,0
318745,124.336,-560.582,0,0
319006,123.02,-560.006,0,0
319266,121.712,-559.435,0,0
319526,120.406,-558.834,0,0
319787,119.032,-558.181,0,0
320047,117.686,-557.581,0,0
320307,116.338,-556.843,0,0
320567,115.061,-556.014,0,0
320828,113.718,-555.239,0,0
321088,112.417,-554.343,0,0
321348,111.182,-553.445,0,0
321609,109.967,-552.481,0,0
321869,108.757,-551.411,0,0
322129,107.699,-550.355,0,0
322390,106.63,-549.261,0,0
322650,105.605,-548.129,0,0
322910,104.689,-546.899,0,0
323171,103.768,-545.699,0,0
323431,103.039,-544.549,0,0
323691,102.328,-543.279,0,0
323952,101.686,-542.083,0,0
324212,101.179,-540.846,0,0
324472,100.701,-539.662,0,0
324733,100.306,-538.507,0,0
324993,99.9646,-537.431,0,0
325253,99.703,-536.389,0,0
325514,99.4711,-535.426,0,0
325774,99.2645,-534.565,0,0
326034,98.998,-533.682,0,0
326295,98.849,-532.87,0,0
326555,98.6215,-532.139,0,0
326815,98.4115,-531.36,0,0
327076,98.2093,-530.668,0,0
327336,98.0736,-530.014,0,0
327596,97.9198,-529.344,0,0
327857,97.75,-528.774,0,0
328117,97.5863,-528.292,0,0
328377,97.3808,-527.794,0,0
328638,97.1912,-527.331,0,0
328898,96.9599,-526.894,0,0
329158,96.6818,-526.497,0,0
329419,96.4367,-526.098,0,0
329679,96.1794,-525.734,0,0
329939,95.8727,-525.366,0,0
330200,95.5461,-525.099,0,0
330460,95.1256,-524.846,0,0
330720.15,94.7946,-524.589,0,0
330980.475,94.3414,-524.332,0,0
331240.8,93.8059,-524.129,0,0
331501.125,93.253,-523.911,0,0
331761.45,92.6745,-523.623,0,0
332021.775,92.0418,-523.288,0,0
332282.1,91.3609,-523.024,0,0
332542.425,90.7748,-522.714,0,0
332802.75,89.9941,-522.413,0,0
333063.075,89.2565,-522.084,0,0
333323.4,88.5467,-521.682,0,0
333583.725,87.7423,-521.245,0,0
333844.05,86.9435,-520.794,0,0
334104.375,86.1498,-520.294,0,0
334364.7,85.3799,-519.768,0,0
334625.025,84.489,-519.235,0,0
334885.35,83.7318,-518.539,0,0
335145.675,82.885,-517.979,0,0
335406.0,82.0801,-517.234,0,0
335666.325,81.3419,-516.472,0,0
335926.65,80.6411,-515.79,0,0
336186.975,79.9364,-515.009,0,0
336447.3,79.2483,-514.262,0,0
336707.625,78.6569,-513.535,0,0
336967.95,78.0107,-512.748,0,0
337228.275,77.3339,-512.016,0,0
337488.6,76.694,-511.323,0,0
337748.925,76.0407,-510.505,0,0
338009.25,75.3954,-509.725,0,0
338269.575,74.8028,-508.901,0,0
338529.9,74.1686,-508.072,0,0
338790.225,73.553,-507.246,0,0
339050.55,73.0531,-506.318,0,0
339310.875,72.4829,-505.518,0,0
339571.2,71.9749,-504.601,0,0
339831.525,71.4557,-503.752,0,0
340091.85,70.9943,-502.942,0,0
340352.175,70.4864,-502.109,0,0
340612.5,69.9624,-501.223,0,0
340872.825,69.6198,-500.363,0,0
341133.15,69.1185,-499.512,0,0
341393.475,68.7166,-498.696,0,0
341653.8,68.2566,-497.788,0,0
341914.125,67.8325,-496.975,0,0
342174.45,67.4517,-496.125,0,0
342434.775,66.9823,-495.319,0,0
342695.1,66.547,-494.456,0,0
342955.425,66.2562,-493.675,0,0
343215.75,65.7794,-492.791,0,0
343476.075,65.4277,-491.967,0,0
343736.4,65.0554,-491.176,0,0
343996.725,64.6034,-490.362,0,0
344257.05,64.2321,-489.504,0,0
344517.375,63.8255,-488.673,0,0
344777.7,63.3858,-487.809,0,0
345038.025,62.9831,-486.961,0,0
345298.35,62.5751,-486.056,0,0
345558.675,62.2328,-485.106,0,0
345819.0,61.8622,-484.216,0,0
346079.325,61.5184,-483.306,0,0
346339.65,61.2083,-482.445,0,0
346599.975,60.8571,-481.5,0,0
346860,60.5581,-480.577,0,0
347121,60.2511,-479.599,0,0
347381,59.976,-478.738,0,0
347641,59.6733,-477.773,0,0
347902,59.3799,-476.822,0,0
348162,59.1255,-475.839,0,0
348422,58.8526,-474.879,0,0
348683,58.6384,-473.93,0,0
348943,58.4461,-472.948,0,0
349203,58.1684,-471.945,0,0
349464,58.0914,-471,0,0
349724,57.9082,-470.03,0,0
349984,57.8475,-469.019,0,0
350245,57.7462,-468.019,0,0
350505,57.7028,-467.038,0,0
350765,57.6313,-466.183,0,0
351025,57.6192,-465.258,0,0
351286,57.5911,-464.343,0,0
351546,57.5473,-463.457,0,0
351806,57.5819,-462.605,0,0
352067,57.5201,-461.743,0,0
352327,57.5294,-460.899,0,0
352587,57.5132,-460.059,0,0
352848,57.511,-459.22,0,0
353108,57.5061,-458.437,0,0
353368,57.4972,-457.548,0,0
353629,57.4769,-456.743,0,0
353889,57.5205,-455.875,0,0
354149,57.5307,-455.006,0,0
354410,57.5511,-454.251,0,0
354670,57.5944,-453.417,0,0
354930,57.6905,-452.613,0,0
355191,57.7524,-451.79,0,0
355451,57.8312,-451.007,0,0
355711,57.9362,-450.271,0,0
355972,58.003,-449.483,0,0
356232,58.1557,-448.729,0,0
356492,58.2721,-448.021,0,0
356753,58.4279,-447.355,0,0
357013,58.5207,-446.674,0,0
357273,58.5971,-445.996,0,0
357534,58.6885,-445.375,0,0
357794,58.7908,-444.69,0,0
358054,58.8078,-444.098,0,0
358315,58.907,-443.435,0,0
358575,58.952,-442.762,0,0
358835,58.9143,-442.238,0,0
359096,58.9635,-441.524,0,0
359356,59.0196,-440.823,0,0
359616,59.0291,-440.139,0,0
359877,59.0279,-439.473,0,0
360137,59.1556,-438.819,0,0
360397,59.2361,-438.146,0,0
360658,59.3138,-437.496,0,0
360918,59.3708,-436.908,0,0
361178,59.4708,-436.218,0,0
361438,59.4469,-435.633,0,0
361699,59.5719,-435.03,0,0
361959,59.5193,-434.374,0,0
362219,59.6148,-433.742,0,0
362480,59.6058,-433.105,0,0
362740.1,59.699,-432.46,0,0
363000.425,59.7224,-431.788,0,0
363260.75,59.6845,-431.152,0,0
363521.075,59.7617,-430.487,0,0
363781.4,59.8017,-429.797,0,0
364041.725,59.849,-429.128,0,0
364302.05,59.8894,-428.406,0,0
364562.375,60.0076,-427.734,0,0
364822.7,60.0435,-427.006,0,0
365083.025,60.1736,-426.269,0,0
365343.35,60.2524,-425.564,0,0
365603.675,60.3997,-424.919,0,0
365864.0,60.4974,-424.205,0,0
366124.325,60.6715,-423.563,0,0
366384.65,60.7806,-422.853,0,0
366644.975,60.9132,-422.23,0,0
366905.3,61.0218,-421.57,0,0
367165.625,61.0565,-420.919,0,0
367425.95,61.1951,-420.187,0,0
367686.275,61.2627,-419.437,0,0
367946.6,61.3633,-418.643,0,0
368206.925,61.4828,-417.815,0,0
368467.25,61.5998,-416.972,0,0
368727.575,61.8977,-416.077,0,0
368987.9,62.1429,-415.19,0,0
369248.225,62.4997,-414.27,0,0
369508.55,62.956,-413.438,0,0
369768.875,63.3835,-412.617,0,0
370029.2,63.9643,-411.812,0,0
370289.525,64.5094,-411.052,0,0
370549.85,65.1005,-410.387,0,0
370810.175,65.7149,-409.73,0,0
371070.5,66.3451,-409.127,0,0
371330.825,67.004,-408.559,0,0
371591.15,67.6134,-408.038,0,0
371851.475,68.3219,-407.543,0,0
372111.8,68.9418,-407.139,0,0
372372.125,69.6457,-406.776,0,0
372632.45,70.2922,-406.453,0,0
372892.775,70.9849,-406.151,0,0
373153.1,71.657,-405.893,0,0
373413.425,72.2852,-405.724,0,0
373673.75,72.9464,-405.583,0,0
373934.075,73.5442,-405.497,0,0
374194.4,74.0791,-405.459,0,0
374454.725,74.6438,-405.458,0,0
374715.05,75.0743,-405.489,0,0
374975.375,75.4655,-405.551,0,0
375235.7,75.8394,-405.547,0,0
375496.025,76.2094,-405.573,0,0
375756.35,76.499,-405.59,0,0
376016.675,76.7746,-405.519,0,0
376277.0,77.0515,-405.49,0,0
376537.325,77.3846,-405.475,0,0
376797.65,77.6888,-405.462,0,0
377057.975,78.0047,-405.451,0,0
377318.3,78.3087,-405.469,0,0
377578.625,78.5892,-405.496,0,0
377838.95,78.8583,-405.572,0,0
378099.275,79.1043,-405.662,0,0
378359.6,79.3467,-405.716,0,0
378619.925,79.5463,-405.849,0,0
378880,79.7518,-406,0,0
379141,79.9115,-406.089,0,0
379401,80.0358,-406.217,0,0
379661,80.1217,-406.364,0,0
379922,80.2067,-406.463,0,0
380182,80.3185,-406.512,0,0
380442,80.4017,-406.64,0,0
380703,80.5006,-406.735,0,0
380963,80.6167,-406.819,0,0
381223,80.761,-406.974,0,0
381483,80.8864,-407.217,0,0
381744,80.9831,-407.518,0,0
382004,80.9738,-407.902,0,0
382264,80.9471,-408.194,0,0
382525,80.7992,-408.577,0,0
382785,80.5917,-408.922,0,0
383045,80.3603,-409.252,0,0
383306,79.9881,-409.589,0,0
383566,79.633,-409.863,0,0
383826,79.2262,-410.132,0,0
384087,78.7129,-410.359,0,0
384347,78.1968,-410.477,0,0
384607,77.6603,-410.565,0,0
384868,77.0687,-410.575,0,0
385128,76.5237,-410.585,0,0
385388,75.9915,-410.54,0,0
385649,75.3923,-410.453,0,0
385909,74.8261,-410.306,0,0
386169,74.274,-410.187,0,0
386430,73.6522,-410.006,0,0
386690,73.1334,-409.76,0,0
386950,72.5067,-409.49,0,0
387211,71.9232,-409.193,0,0
387471,71.3475,-408.819,0,0
387731,70.7939,-408.37,0,0
387992,70.2999,-407.948,0,0
388252,69.7924,-407.429,0,0
388512,69.4165,-406.904,0,0
388773,69.0461,-406.379,0,0
389033,68.6936,-405.86,0,0
389293,68.451,-405.385,0,0
389554,68.1427,-404.891,0,0
389814,67.9072,-404.388,0,0
390074,67.6889,-403.921,0,0
390335,67.5162,-403.464,0,0
390595,67.362,-403.06,0,0
390855,67.1984,-402.678,0,0
391116,67.0068,-402.282,0,0
391376,66.8289,-401.944,0,0
391636,66.6463,-401.665,0,0
391896,66.4138,-401.374,0,0
392157,66.1442,-401.086,0,0
392417,65.8599,-400.801,0,0
392677,65.5845,-400.507,0,0
392938,65.2426,-400.215,0,0
393198,64.8978,-399.866,0,0
393458,64.5083,-399.588,0,0
393719,64.0914,-399.174,0,0
393979,63.6889,-398.783,0,0
394239,63.2575,-398.349,0,0
394500,62.8593,-397.849,0,0
394760.05,62.4435,-397.409,0,0
395020.375,62.0536,-396.912,0,0
395280.7,61.6442,-396.387,0,0
395541.025,61.271,-395.827,0,0
395801.35,60.8776,-395.31,0,0
396061.675,60.5094,-394.681,0,0
396322.0,60.1128,-394.103,0,0
396582.325,59.8081,-393.444,0,0
396842.65,59.4611,-392.744,0,0
397102.975,59.1665,-392.095,0,0
397363.3,58.8066,-391.406,0,0
397623.625,58.6112,-390.708,0,0
397883.95,58.3747,-390,0,0
398144.275,58.1615,-389.266,0,0
398404.6,57.9713,-388.578,0,0
398664.925,57.8108,-387.876,0,0
398925.25,57.5876,-387.105,0,0
399185.575,57.4428,-386.435,0,0
399445.9,57.2751,-385.7,0,0
399706.225,57.1957,-384.962,0,0
399966.55,57.1065,-384.266,0,0
400006.6,57.0398,-384.133,0,0