File: Accelerated corrosion test data/2025-10-01_18-00-03/sample_8.csv
Frequency (Hz),Impedance (ohms),Phase (Radians),Temperature (C),Humidity (%)
10000.0,324.928,-10814.1,0,0
10260.325,316.419,-10543.6,0,0
10520.65,308.685,-10286.1,0,0
10780.975,300.791,-10041,0,0
11041.3,294.056,-9807.05,0,0
11301.625,287.404,-9584.99,0,0
11561.95,280.502,-9370.46,0,0
11822.275,275.528,-9167.53,0,0
12082.6,273.259,-8970.75,0,0
12342.925,268.86,-8787.35,0,0
12603.25,263.631,-8608.14,0,0
12863.575,259.362,-8440.63,0,0
13123.9,250.173,-8277.03,0,0
13384.225,244.624,-8116.91,0,0
13644.55,240.78,-7963.97,0,0
13904.875,233.535,-7817.7,0,0
14165.2,229.971,-7675.09,0,0
14425.525,224.049,-7538.44,0,0
14685.8,220.575,-7406,0,0
14946.175,216.855,-7278.22,0,0
15206.5,213.131,-7154.62,0,0
15466.825,209.885,-7036,0,0
15727.15,206.384,-6920.97,0,0
15987.5,202.919,-6809.19,0,0
16247.8,199.905,-6701.34,0,0
16508.125,196.576,-6596.67,0,0
16768.45,193.238,-6495.06,0,0
17028.775,190.162,-6396.64,0,0
17289.1,187.45,-6301.15,0,0
17549.425,184.915,-6208.21,0,0
17809.75,182.515,-6117.27,0,0
18070.075,180.068,-6030.73,0,0
18330.4,176.986,-5945.43,0,0
18590.725,175.152,-5861.4,0,0
18851.05,175.008,-5779.63,0,0
19111.375,173.179,-5701.82,0,0
19371.7,175.34,-5626.23,0,0
19632.025,171.2,-5554.25,0,0
19892.35,168.367,-5484.78,0,0
20152.675,165.612,-5413.08,0,0
20413.0,164.399,-5344,0,0
20673.3,163.955,-5277.02,0,0
20933.65,162.119,-5214.31,0,0
21193.975,159.461,-5151.73,0,0
21454.3,157.143,-5088.78,0,0
21714.625,155.65,-5027.34,0,0
21974.9,155.031,-4969.01,0,0
22235.275,154.753,-4911.26,0,0
22495.6,153.211,-4855.46,0,0
22755.925,151.491,-4802.61,0,0
23016.25,149.074,-4748.26,0,0
23276.6,145.759,-4697.23,0,0
23536.9,143.876,-4644.82,0,0
23797.225,142.05,-4594.58,0,0
24057.55,140.035,-4544.37,0,0
24317.875,138.179,-4496.05,0,0
24578.2,136.466,-4448.44,0,0
24838.525,135.614,-4401.07,0,0
25098.85,134.072,-4355.6,0,0
25359.175,132.239,-4310.74,0,0
25619.5,131.383,-4267.08,0,0
25879.8,130.048,-4223.69,0,0
26140.1,129.321,-4181.92,0,0
26400.5,128.116,-4140.53,0,0
26660.8,126.378,-4099.83,0,0
26921.1,125.812,-4059.21,0,0
27181.4,125.711,-4020.56,0,0
27441.8,124.27,-3982.79,0,0
27702.1,124.144,-3945.23,0,0
27962.4,121.716,-3908.62,0,0
28222.7,122.154,-3871.26,0,0
28483.1,121,-3836.43,0,0
28743.4,120.902,-3801.18,0,0
29003.7,120.323,-3767.07,0,0
29264,120.346,-3732.97,0,0
29524.4,119.284,-3700.39,0,0
29784.7,119.142,-3667.77,0,0
30045,118.756,-3636.89,0,0
30305.3,118.413,-3605.83,0,0
30565.7,117.606,-3575.53,0,0
30826,116.607,-3545.14,0,0
31086.3,115.687,-3515.79,0,0
31346.6,115.09,-3486.24,0,0
31607,114.632,-3457.31,0,0
31867.3,114.349,-3428.77,0,0
32127.6,113.969,-3400.87,0,0
32387.9,113.36,-3373.33,0,0
32648.3,113.356,-3346.09,0,0
32908.6,114.103,-3318.98,0,0
33168.9,113.695,-3293.54,0,0
33429.2,114.768,-3267.77,0,0
33689.6,115.751,-3243.89,0,0
33949.9,115.019,-3220.77,0,0
34210.2,114.352,-3197.24,0,0
34470.5,113.494,-3173.85,0,0
34730.9,112.75,-3150.36,0,0
34991.2,112.811,-3127.9,0,0
35251.5,112.069,-3105.8,0,0
35511.8,110.887,-3084.35,0,0
35772.2,109.736,-3062.88,0,0
36032.5,108.507,-3041.69,0,0
36292.8,106.899,-3020.29,0,0
36553.1,105.717,-2999.19,0,0
36813.5,104.018,-2978.22,0,0
37073.8,103.187,-2957.39,0,0
37334.1,102.011,-2937.09,0,0
37594.4,100.53,-2917.16,0,0
37854.8,99.1337,-2897.01,0,0
38115.1,97.9326,-2877.16,0,0
38375.4,96.4188,-2857.76,0,0
38635.7,95.3964,-2837.69,0,0
38896.1,94.028,-2818.79,0,0
39156.4,93.0024,-2799.7,0,0
39416.7,91.876,-2780.38,0,0
39677,90.6399,-2761.82,0,0
39937.4,89.6599,-2743.35,0,0
40197.7,88.6473,-2724.47,0,0
40458,88.394,-2706.01,0,0
40718.3,88.065,-2688.4,0,0
40978.7,87.5406,-2670.87,0,0
41239,87.1547,-2653.58,0,0
41499.3,86.2315,-2636.46,0,0
41759.6,85.8446,-2619.45,0,0
42020,85.4983,-2602.92,0,0
42280.275,84.8162,-2586.31,0,0
42540.6,84.4976,-2569.77,0,0
42800.925,84.3055,-2553.71,0,0
43061.25,84.2222,-2537.77,0,0
43321.575,84.2734,-2522.41,0,0
43581.9,84.1861,-2507.39,0,0
43842.225,83.3451,-2492.48,0,0
44102.55,82.7067,-2477.65,0,0
44362.875,82.124,-2462.84,0,0
44623.2,81.5168,-2448.23,0,0
44883.525,81.0308,-2433.51,0,0
45143.85,80.4773,-2418.94,0,0
45404.175,80.0671,-2404.77,0,0
45664.5,79.5524,-2390.81,0,0
45924.825,79.0977,-2376.96,0,0
46185.15,78.6271,-2362.85,0,0
46445.475,78.0667,-2349.26,0,0
46705.8,78.0219,-2335.73,0,0
46966.125,77.5254,-2322.42,0,0
47226.45,77.297,-2308.94,0,0
47486.775,76.9727,-2296.01,0,0
47747.1,76.7053,-2283.22,0,0
48007.425,76.3214,-2270.48,0,0
48267.75,75.764,-2257.91,0,0
48528.075,75.4559,-2245.28,0,0
48788.4,75.1319,-2233.17,0,0
49048.725,74.5775,-2220.78,0,0
49309.05,74.0879,-2208.47,0,0
49569.375,73.8941,-2196.45,0,0
49829.7,73.4579,-2184.6,0,0
50090.025,73.0074,-2172.71,0,0
50350.35,72.7667,-2160.92,0,0
50610.675,72.546,-2149.3,0,0
50871.0,72.2623,-2137.54,0,0
51131.325,72.0954,-2126.23,0,0
51391.65,71.771,-2114.79,0,0
51651.975,71.9227,-2103.61,0,0
51912.3,71.8867,-2092.76,0,0
52172.625,71.6543,-2081.94,0,0
52432.95,71.3675,-2071.38,0,0
52693.275,71.3937,-2060.45,0,0
52953.6,71.4272,-2050.07,0,0
53213.925,71.414,-2039.93,0,0
53474.25,71.12,-2029.81,0,0
53734.575,71.1701,-2019.95,0,0
53994.9,70.6699,-2010.41,0,0
54255.225,70.1121,-2000.62,0,0
54515.55,69.4051,-1990.79,0,0
54775.875,68.8903,-1980.89,0,0
55036.2,68.2494,-1971.34,0,0
55296.525,67.4369,-1961.71,0,0
55556.85,66.7444,-1951.73,0,0
55817.175,66.2987,-1941.9,0,0
56077.5,65.7797,-1932.2,0,0
56337.825,65.3484,-1922.51,0,0
56598.15,64.9185,-1912.84,0,0
56858.475,64.664,-1903.31,0,0
57118.8,64.4591,-1893.85,0,0
57379.125,64.3427,-1884.5,0,0
57639.45,64.1367,-1875.24,0,0
57899.775,63.974,-1866.2,0,0
58160.1,63.8119,-1857,0,0
58420.4,63.8547,-1847.98,0,0
58680.7,63.9141,-1839.14,0,0
58941.1,63.945,-1830.33,0,0
59201.4,64.0233,-1822.01,0,0
59461.7,63.9103,-1813.77,0,0
59722,63.6327,-1805.57,0,0
59982.4,63.1698,-1797.12,0,0
60242.7,62.9477,-1788.8,0,0
60503,62.5025,-1780.27,0,0
60763.3,62.2224,-1771.78,0,0
61023.7,62.1564,-1763.51,0,0
61284,62.0849,-1755.15,0,0
61544.3,62.2049,-1747.01,0,0
61804.6,62.2847,-1738.98,0,0
62065,62.165,-1731.15,0,0
62325.3,62.0885,-1723.14,0,0
62585.6,62.042,-1715.28,0,0
62845.9,62.0409,-1707.36,0,0
63106.3,62.207,-1699.63,0,0
63366.6,62.4126,-1692.03,0,0
63626.9,62.7067,-1684.5,0,0
63887.2,62.8684,-1677.04,0,0
64147.6,63.1341,-1669.59,0,0
64407.9,63.6955,-1662.46,0,0
64668.2,64.0048,-1655.66,0,0
64928.5,64.1752,-1649.11,0,0
65188.9,64.0257,-1642.48,0,0
65449.2,63.933,-1635.96,0,0
65709.5,63.4299,-1629.57,0,0
65969.8,62.9031,-1622.76,0,0
66230.2,62.6178,-1616.09,0,0
66490.5,61.8184,-1609.19,0,0
66750.8,61.2204,-1602.31,0,0
67011.1,60.9217,-1595.29,0,0
67271.5,60.6589,-1588.32,0,0
67531.8,60.4613,-1581.37,0,0
67792.1,60.3697,-1574.63,0,0
68052.4,60.1673,-1567.77,0,0
68312.8,60.1258,-1561.17,0,0
68573.1,59.8631,-1554.44,0,0
68833.4,59.8335,-1547.82,0,0
69093.7,59.7488,-1541.25,0,0
69354.1,59.7419,-1534.78,0,0
69614.4,59.6317,-1528.22,0,0
69874.7,59.7259,-1521.82,0,0
70135,59.8091,-1515.3,0,0
70395.4,59.9633,-1509.11,0,0
70655.7,60.0285,-1502.93,0,0
70916,60.1668,-1496.73,0,0
71176.3,60.189,-1490.65,0,0
71436.7,60.2647,-1484.66,0,0
71697,60.4089,-1478.75,0,0
71957.3,60.4958,-1473.08,0,0
72217.6,60.447,-1467.16,0,0
72478,60.6211,-1461.44,0,0
72738.3,60.4053,-1455.86,0,0
72998.6,60.2262,-1450.23,0,0
73258.9,59.996,-1444.41,0,0
73519.3,59.7813,-1438.62,0,0
73779.6,59.7007,-1432.87,0,0
74039.9,59.744,-1427.16,0,0
74300.225,59.6846,-1421.64,0,0
74560.55,59.4112,-1416.16,0,0
74820.875,59.2488,-1410.46,0,0
75081.2,59.1061,-1404.78,0,0
75341.525,59.044,-1399.15,0,0
75601.85,59.0357,-1393.54,0,0
75862.175,59.1362,-1388.01,0,0
76122.5,59.1853,-1382.66,0,0
76382.825,59.1147,-1377.21,0,0
76643.15,59.2333,-1371.94,0,0
76903.475,59.135,-1366.69,0,0
77163.8,59.0491,-1361.44,0,0
77424.125,58.962,-1356.17,0,0
77684.45,58.8888,-1350.9,0,0
77944.775,58.8489,-1345.72,0,0
78205.1,58.7585,-1340.5,0,0
78465.425,58.6605,-1335.33,0,0
78725.75,58.5134,-1330.14,0,0
78986.075,58.4953,-1324.84,0,0
79246.4,58.4817,-1319.74,0,0
79506.725,58.3287,-1314.53,0,0
79767.05,58.2828,-1309.34,0,0
80027.375,58.4164,-1304.09,0,0
80287.7,58.5379,-1299.04,0,0
80548.025,58.5889,-1294.05,0,0
80808.35,58.6394,-1288.99,0,0
81068.675,58.6635,-1284,0,0
81329.0,58.8015,-1278.9,0,0
81589.325,58.9106,-1273.9,0,0
81849.65,59.0135,-1268.96,0,0
82109.975,59.1574,-1263.96,0,0
82370.3,59.3353,-1258.86,0,0
82630.625,59.7752,-1253.91,0,0
82890.95,60.147,-1249.15,0,0
83151.275,60.4883,-1244.5,0,0
83411.6,60.674,-1239.81,0,0
83671.925,61.048,-1234.98,0,0
83932.25,61.581,-1230.28,0,0
84192.575,62.1337,-1225.89,0,0
84452.9,62.5056,-1221.53,0,0
84713.225,62.7245,-1217.24,0,0
84973.55,63.0693,-1212.89,0,0
85233.875,63.3528,-1208.66,0,0
85494.2,63.5969,-1204.52,0,0
85754.525,63.5891,-1200.5,0,0
86014.85,63.4307,-1196.05,0,0
86275.175,63.4254,-1191.68,0,0
86535.5,63.4191,-1187.22,0,0
86795.825,63.6087,-1182.58,0,0
87056.15,63.893,-1178.12,0,0
87316.475,64.1128,-1173.84,0,0
87576.8,64.2379,-1169.46,0,0
87837.125,64.49,-1164.9,0,0
88097.45,64.9871,-1160.47,0,0
88357.775,65.4637,-1156.12,0,0
88618.1,65.795,-1151.85,0,0
88878.425,66.3205,-1147.67,0,0
89138.75,66.7919,-1143.47,0,0
89399.075,67.3907,-1139.44,0,0
89659.4,67.7694,-1135.31,0,0
89919.725,68.2719,-1131.08,0,0
90180,68.8576,-1127.02,0,0
90440.4,69.5006,-1122.96,0,0
90700.7,70.126,-1119.04,0,0
90961,70.7323,-1114.95,0,0
91221.3,71.5996,-1110.92,0,0
91481.7,72.7308,-1107.1,0,0
91742,73.7496,-1103.6,0,0
92002.3,74.7314,-1100.31,0,0
92262.6,75.6549,-1097.13,0,0
92523,76.4486,-1094.23,0,0
92783.3,77.0287,-1091.47,0,0
93043.6,77.4752,-1088.76,0,0
93303.9,77.565,-1086.01,0,0
93564.3,77.5119,-1083.23,0,0
93824.6,77.2068,-1080.46,0,0
94084.9,76.6566,-1077.42,0,0
94345.2,76.0223,-1073.96,0,0
94605.6,75.6594,-1069.99,0,0
94865.9,75.8364,-1066.11,0,0
95126.2,76.1072,-1062.7,0,0
95386.5,76.1223,-1059.01,0,0
95646.9,76.6032,-1055.61,0,0
95907.2,76.8107,-1052.44,0,0
96167.5,76.725,-1049.16,0,0
96427.8,76.7072,-1045.65,0,0
96688.2,76.9445,-1041.97,0,0
96948.5,77.3204,-1038.53,0,0
97208.8,77.6022,-1035.1,0,0
97469.1,78.1483,-1031.67,0,0
97729.5,78.7433,-1028.58,0,0
97989.8,79.0597,-1025.68,0,0
98250.1,79.2202,-1022.65,0,0
98510.4,79.4861,-1019.5,0,0
98770.8,79.8659,-1016.55,0,0
99031.1,80.2455,-1013.78,0,0
99291.4,80.2605,-1011.12,0,0
99551.7,80.0271,-1008.29,0,0
99812.1,79.7901,-1005.19,0,0
100072,79.8271,-1001.91,0,0
100333,80.0477,-998.867,0,0
100593,80.2656,-995.922,0,0
100853,80.3121,-993.131,0,0
101114,80.1814,-990.347,0,0
101374,79.9305,-987.313,0,0
101634,79.8476,-984.144,0,0
101895,79.8775,-981.045,0,0
102155,79.8668,-977.913,0,0
102415,80.0463,-974.85,0,0
102676,80.2101,-971.846,0,0
102936,80.375,-968.898,0,0
103196,80.5397,-966.116,0,0
103457,80.584,-963.361,0,0
103717,80.5513,-960.563,0,0
103977,80.4012,-957.736,0,0
104238,80.3515,-954.824,0,0
104498,80.3429,-951.995,0,0
104758,80.256,-949.096,0,0
105019,80.1851,-946.3,0,0
105279,80.0615,-943.323,0,0
105539,80.0095,-940.452,0,0
105800,79.878,-937.562,0,0
106060,79.8235,-934.563,0,0
106320.175,79.8201,-931.682,0,0
106580.5,79.7779,-928.777,0,0
106840.825,79.7574,-925.937,0,0
107101.15,79.6116,-922.987,0,0
107361.475,79.6643,-920.021,0,0
107621.8,79.6833,-917.164,0,0
107882.125,79.665,-914.364,0,0
108142.45,79.5507,-911.374,0,0
108402.775,79.5763,-908.344,0,0
108663.1,79.8121,-905.368,0,0
108923.425,79.9871,-902.598,0,0
109183.75,80.1564,-899.841,0,0
109444.075,80.2624,-897.143,0,0
109704.4,80.3215,-894.414,0,0
109964.725,80.4471,-891.795,0,0
110225.05,80.4697,-889.105,0,0
110485.375,80.4799,-886.502,0,0
110745.7,80.3876,-883.922,0,0
111006.025,80.3069,-881.239,0,0
111266.35,80.2262,-878.54,0,0
111526.675,80.2164,-875.902,0,0
111787.0,80.1007,-873.083,0,0
112047.325,80.1184,-870.433,0,0
112307.65,80.0172,-867.702,0,0
112567.975,80.0085,-864.97,0,0
112828.3,79.9905,-862.348,0,0
113088.625,79.9314,-859.708,0,0
113348.95,79.831,-856.989,0,0
113609.275,79.8404,-854.319,0,0
113869.6,79.8219,-851.647,0,0
114129.925,79.8278,-849.06,0,0
114390.25,79.7088,-846.589,0,0
114650.575,79.5074,-844.056,0,0
114910.9,79.2524,-841.406,0,0
115171.225,79.0626,-838.678,0,0
115431.55,78.8786,-835.934,0,0
115691.875,78.7111,-833.171,0,0
115952.2,78.5971,-830.422,0,0
116212.525,78.4796,-827.699,0,0
116472.85,78.3275,-824.972,0,0
116733.175,78.2202,-822.22,0,0
116993.5,78.0697,-819.432,0,0
117253.825,77.9986,-816.68,0,0
117514.15,77.8377,-813.891,0,0
117774.475,77.7422,-811.1,0,0
118034.8,77.631,-808.309,0,0
118295.125,77.5119,-805.39,0,0
118555.45,77.498,-802.43,0,0
118815.775,77.6231,-799.498,0,0
119076.1,77.8534,-796.778,0,0
119336.425,77.9459,-794.127,0,0
119596.75,77.9223,-791.443,0,0
119857.075,77.9031,-788.741,0,0
120117.4,77.8834,-785.97,0,0
120377.725,77.8895,-783.201,0,0
120638.05,77.9017,-780.412,0,0
120898.375,77.9126,-777.557,0,0
121158.7,78.0597,-774.719,0,0
121419.025,78.2425,-771.987,0,0
121679.35,78.3164,-769.278,0,0
121939.675,78.4002,-766.557,0,0
122200.0,78.4677,-763.826,0,0
122460,78.5691,-761.047,0,0
122721,78.6727,-758.281,0,0
122981,78.8087,-755.528,0,0
123241,78.9241,-752.819,0,0
123502,79.0028,-749.999,0,0
123762,79.1417,-747.21,0,0
124022,79.2443,-744.362,0,0
124283,79.5005,-741.454,0,0
124543,79.8338,-738.631,0,0
124803,80.1811,-735.869,0,0
125064,80.5589,-733.094,0,0
125324,80.9449,-730.445,0,0
125584,81.3256,-727.797,0,0
125845,81.6501,-725.211,0,0
126105,82.0034,-722.602,0,0
126365,82.3765,-720,0,0
126626,82.8347,-717.42,0,0
126886,83.2158,-715.064,0,0
127146,83.4714,-712.581,0,0
127406,83.859,-710.246,0,0
127667,84.0024,-707.857,0,0
127927,84.087,-705.4,0,0
128187,84.2994,-702.892,0,0
128448,84.4897,-700.497,0,0
128708,84.5554,-698.137,0,0
128968,84.5202,-695.657,0,0
129229,84.4505,-693.098,0,0
129489,84.5439,-690.517,0,0
129749,84.5556,-687.962,0,0
130010,84.5137,-685.366,0,0
130270,84.4255,-682.71,0,0
130530,84.2048,-679.886,0,0
130791,84.1144,-676.825,0,0
131051,84.1437,-673.624,0,0
131311,84.5058,-670.244,0,0
131572,85.2526,-667.133,0,0
131832,85.9658,-664.349,0,0
132092,86.6031,-661.666,0,0
132353,87.1426,-659.106,0,0
132613,87.509,-656.477,0,0
132873,87.8816,-653.69,0,0
133134,88.4436,-650.795,0,0
133394,89.1905,-648.136,0,0
133654,89.8803,-645.593,0,0
133915,90.4481,-643.143,0,0
134175,90.9354,-640.664,0,0
134435,91.4338,-638.137,0,0
134696,91.9667,-635.677,0,0
134956,92.3927,-633.268,0,0
135216,92.7626,-630.813,0,0
135477,93.1483,-628.321,0,0
135737,93.5291,-625.788,0,0
135997,93.9749,-623.293,0,0
136258,94.4018,-620.877,0,0
136518,94.6605,-618.439,0,0
136778,95,-615.826,0,0
137039,95.489,-613.379,0,0
137299,95.8711,-611.065,0,0
137559,96.0397,-608.862,0,0
137819,95.9406,-606.554,0,0
138080,95.6902,-604.036,0,0
138340.125,95.343,-601.213,0,0
138600.45,95.2015,-598.073,0,0
138860.775,95.3391,-594.944,0,0
139121.1,95.4902,-591.772,0,0
139381.425,95.816,-588.55,0,0
139641.75,96.2098,-585.418,0,0
139902.075,96.5939,-582.274,0,0
140162.4,97.0796,-579.108,0,0
140422.725,97.5549,-576.026,0,0
140683.05,97.988,-572.915,0,0
140943.375,98.4328,-569.713,0,0
141203.7,98.8946,-566.449,0,0
141464.025,99.4136,-563.097,0,0
141724.35,100.085,-559.687,0,0
141984.675,100.878,-556.326,0,0
142245.0,101.667,-553.081,0,0
142505.325,102.412,-549.74,0,0
142765.65,103.255,-546.389,0,0
143025.975,104.108,-543.101,0,0
143286.3,104.844,-539.692,0,0
143546.625,105.673,-536.14,0,0
143806.95,106.608,-532.458,0,0
144067.275,107.733,-528.74,0,0
144327.6,108.972,-524.994,0,0
144587.925,110.368,-521.221,0,0
144848.25,111.958,-517.435,0,0
145108.575,113.699,-513.77,0,0
145368.9,115.522,-510.083,0,0
145629.225,117.64,-506.386,0,0
145889.55,120.05,-502.993,0,0
146149.875,122.435,-499.997,0,0
146410.2,124.632,-497.167,0,0
146670.525,126.733,-494.414,0,0
146930.85,128.814,-491.609,0,0
147191.175,130.956,-488.789,0,0
147451.5,133.213,-486.163,0,0
147711.825,135.426,-483.841,0,0
147972.15,137.24,-481.898,0,0
148232.475,138.321,-479.733,0,0
148492.8,139.084,-476.854,0,0
148753.125,140.203,-473.278,0,0
149013.45,141.712,-469.501,0,0
149273.775,143.593,-465.439,0,0
149534.1,146.115,-461.273,0,0
149794.425,149.179,-457.359,0,0
150054.75,152.401,-453.734,0,0
150315.075,156.006,-450.289,0,0
150575.4,159.929,-447.357,0,0
150835.725,163.537,-444.77,0,0
151096.05,167.179,-442.018,0,0
151356.375,171.498,-439.21,0,0
151616.7,176.497,-437.144,0,0
151877.025,181.589,-436.197,0,0
152137.35,185.942,-436.339,0,0
152397.675,189.382,-436.689,0,0
152658.0,192.333,-437.033,0,0
152918.325,194.564,-437.34,0,0
153178.65,196.382,-437.161,0,0
153438.975,198.181,-436.697,0,0
153699.3,199.999,-436.09,0,0
153959.625,201.736,-435.636,0,0
154219.95,203.039,-435.144,0,0
154480,204.091,-434.179,0,0
154741,205.102,-432.638,0,0
155001,206.566,-430.684,0,0
155261,208.459,-428.639,0,0
155522,210.907,-426.508,0,0
155782,213.923,-424.778,0,0
156042,217.412,-423.597,0,0
156303,220.955,-423.69,0,0
156563,223.473,-424.842,0,0
156823,224.686,-426.001,0,0
157084,224.703,-426.769,0,0
157344,223.569,-426.363,0,0
157604,222.79,-424.105,0,0
157864,223.039,-421.325,0,0
158125,223.982,-418.149,0,0
158385,225.285,-415.148,0,0
158645,227.209,-411.728,0,0
158906,229.898,-408.188,0,0
159166,234.003,-404.758,0,0
159426,239.152,-402.781,0,0
159687,244.285,-402.538,0,0
159947,248.536,-403.667,0,0
160207,251.266,-405.418,0,0
160468,252.788,-406.894,0,0
160728,253.396,-407.976,0,0
160988,252.927,-408.01,0,0
161249,252.768,-406.386,0,0
161509,253.618,-403.952,0,0
161769,255.501,-401.452,0,0
162030,258.126,-399.505,0,0
162290,261.137,-398.049,0,0
162550,264.279,-397.01,0,0
162811,267.559,-396.629,0,0
163071,270.528,-396.765,0,0
163331,273.277,-397.247,0,0
163592,275.739,-398.105,0,0
163852,277.766,-399.161,0,0
164112,279.476,-400.517,0,0
164373,280.455,-402.132,0,0
164633,280.337,-403.29,0,0
164893,280.148,-403.599,0,0
165154,280.002,-403.477,0,0
165414,280.269,-403.046,0,0
165674,281.105,-402.966,0,0
165935,281.757,-403.509,0,0
166195,281.72,-404.737,0,0
166455,280.445,-405.946,0,0
166716,278.33,-406.196,0,0
166976,275.75,-405.606,0,0
167236,273.213,-403.975,0,0
167497,270.835,-401.705,0,0
167757,268.751,-398.755,0,0
168017,266.989,-395.213,0,0
168277,265.69,-391.212,0,0
168538,265.048,-387.07,0,0
168798,264.594,-382.766,0,0
169058,264.572,-378.091,0,0
169319,265.026,-373.317,0,0
169579,266.059,-368.477,0,0
169839,267.541,-363.878,0,0
170100,269.363,-359.657,0,0
170360.075,271.121,-355.486,0,0
170620.4,273.018,-351.234,0,0
170880.725,275.259,-347.098,0,0
171141.05,277.505,-343.118,0,0
171401.375,279.9,-339.128,0,0
171661.7,282.195,-335.06,0,0
171922.025,284.86,-330.708,0,0
172182.35,287.933,-326.459,0,0
172442.675,291.186,-322.205,0,0
172703.0,294.82,-318.118,0,0
172963.325,298.881,-314.285,0,0
173223.65,302.951,-310.814,0,0
173483.975,307.239,-307.514,0,0
173744.3,311.566,-304.524,0,0
174004.625,315.823,-301.639,0,0
174264.95,320.228,-298.95,0,0
174525.275,324.774,-296.617,0,0
174785.6,329.079,-294.727,0,0
175045.925,332.881,-293.066,0,0
175306.25,336.402,-291.121,0,0
175566.575,339.512,-288.919,0,0
175826.9,342.475,-286.323,0,0
176087.225,345.684,-282.991,0,0
176347.55,349.57,-279.303,0,0
176607.875,354.171,-275.878,0,0
176868.2,359.137,-272.648,0,0
177128.525,364.235,-269.781,0,0
177388.85,369.38,-267.536,0,0
177649.175,374.118,-265.415,0,0
177909.5,378.548,-262.674,0,0
178169.825,383.582,-259.459,0,0
178430.15,389.276,-256.402,0,0
178690.475,395.432,-253.664,0,0
178950.8,401.778,-251.369,0,0
179211.125,408.173,-249.364,0,0
179471.45,414.483,-247.655,0,0
179731.775,420.829,-246.104,0,0
179992.1,427.17,-244.619,0,0
180252.425,433.576,-243.198,0,0
180512.75,440.037,-241.695,0,0
180773.075,447.108,-240.348,0,0
181033.4,454.517,-239.65,0,0
181293.725,461.603,-239.521,0,0
181554.05,468.353,-239.311,0,0
181814.375,475.29,-239.152,0,0
182074.7,482.128,-239.331,0,0
182335.025,488.813,-239.559,0,0
182595.35,495.766,-239.527,0,0
182855.675,503.219,-240.217,0,0
183116.0,510.198,-241.562,0,0
183376.325,516.34,-242.998,0,0
183636.65,522.159,-243.756,0,0
183896.975,528.651,-243.932,0,0
184157.3,535.77,-244.387,0,0
184417.625,542.787,-245.284,0,0
184677.95,549.988,-246.303,0,0
184938.275,556.996,-247.841,0,0
185198.6,563.828,-249.151,0,0
185458.925,570.579,-250.258,0,0
185719.25,577.639,-251.139,0,0
185979.575,585.217,-252.003,0,0
186239.9,593.494,-253.016,0,0
186500,602.477,-254.624,0,0
186761,611.516,-257.626,0,0
187021,619.952,-261.275,0,0
187281,627.752,-265.053,0,0
187542,635.267,-268.755,0,0
187802,642.714,-271.981,0,0
188062,650.796,-275.127,0,0
188322,659.493,-278.761,0,0
188583,668.463,-283.443,0,0
188843,676.846,-289.078,0,0
189103,684.58,-295.147,0,0
189364,691.359,-301.616,0,0
189624,697.121,-307.46,0,0
189884,702.506,-312.101,0,0
190145,708.974,-315.642,0,0
190405,716.731,-319.439,0,0
190665,724.821,-323.966,0,0
190926,733.339,-328.562,0,0
191186,742.342,-334.158,0,0
191446,751.943,-339.941,0,0
191707,761.928,-346.4,0,0
191967,772.586,-353.878,0,0
192227,783.468,-363.25,0,0
192488,793.476,-374.341,0,0
192748,801.841,-386.424,0,0
193008,808.819,-398.167,0,0
193269,815.48,-409.549,0,0
193529,821.929,-420.763,0,0
193789,829.054,-431.942,0,0
194050,836.702,-444.225,0,0
194310,844.19,-457.697,0,0
194570,851.42,-472.584,0,0
194831,857.544,-489.239,0,0
195091,861.772,-506.904,0,0
195351,863.87,-524.838,0,0
195612,864.437,-542.022,0,0
195872,864.528,-558.566,0,0
196132,864.309,-575.154,0,0
196393,863.488,-591.976,0,0
196653,861.794,-609.613,0,0
196913,858.643,-627.603,0,0
197174,853.862,-645.635,0,0
197434,847.102,-663.385,0,0
197694,838.754,-680.016,0,0
197955,829.072,-695.536,0,0
198215,818.393,-709.407,0,0
198475,807.425,-721.488,0,0
198735,796.793,-732.232,0,0
198996,786.827,-742.431,0,0
199256,776.996,-752.749,0,0
199516,766.764,-763.046,0,0
199777,755.679,-773.177,0,0
200037,743.106,-783.234,0,0
200297,729.107,-791.611,0,0
200558,714.483,-798.003,0,0
200818,700.006,-801.96,0,0
201078,686.742,-803.84,0,0
201339,675.684,-805.036,0,0
201599,665.702,-806.657,0,0
201859,656.128,-808.871,0,0
202120,646.604,-811.22,0,0
202380.025,636.866,-813.742,0,0
202640.35,626.321,-815.866,0,0
202900.675,615.576,-816.983,0,0
203161.0,605.083,-817.057,0,0
203421.325,595.444,-816.199,0,0
203681.65,586.551,-815.242,0,0
203941.975,578.307,-814.889,0,0
204202.3,569.601,-814.149,0,0
204462.625,560.816,-813.087,0,0
204722.95,552.042,-811.208,0,0
204983.275,544.1,-808.654,0,0
205243.6,536.587,-806.154,0,0
205503.925,528.949,-803.635,0,0
205764.25,521.752,-800.542,0,0
206024.575,514.789,-797.178,0,0
206284.9,507.91,-793.292,0,0
206545.225,501.481,-788.707,0,0
206805.55,495.871,-783.454,0,0
207065.875,491.218,-777.955,0,0
207326.2,487.703,-772.444,0,0
207586.525,485.105,-767.216,0,0
207846.85,483.156,-762.341,0,0
208107.175,481.907,-758.133,0,0
208367.5,481.037,-754.647,0,0
208627.825,479.877,-751.794,0,0
208888.15,478.546,-749.036,0,0
209148.475,477.171,-746.182,0,0
209408.8,475.93,-743.253,0,0
209669.125,475.049,-740.172,0,0
209929.45,474.634,-737.105,0,0
210189.775,474.488,-734.156,0,0
210450.1,474.708,-731.456,0,0
210710.425,475.337,-728.954,0,0
210970.75,476.338,-726.82,0,0
211231.075,477.517,-725.106,0,0
211491.4,478.9,-723.585,0,0
211751.725,480.743,-722.418,0,0
212012.05,482.774,-721.979,0,0
212272.375,484.809,-722.239,0,0
212532.7,486.708,-723.071,0,0
212793.025,488.254,-724.311,0,0
213053.35,489.671,-726.168,0,0
213313.675,490.74,-728.48,0,0
213574.0,490.992,-731.144,0,0
213834.325,490.547,-733.816,0,0
214094.65,489.679,-736.237,0,0
214354.975,488.421,-738.545,0,0
214615.3,486.82,-740.576,0,0
214875.625,485.111,-742.218,0,0
215135.95,483.22,-743.672,0,0
215396.275,481.208,-745.051,0,0
215656.6,479.053,-745.858,0,0
215916.925,476.881,-746.335,0,0
216177.25,474.891,-746.271,0,0
216437.575,473.211,-745.898,0,0
216697.9,471.906,-745.141,0,0
216958.225,471.222,-744.149,0,0
217218.55,471.222,-743.187,0,0
217478.875,472.04,-742.517,0,0
217739.2,473.21,-742.493,0,0
217999.525,474.49,-742.947,0,0
218259.85,475.895,-743.81,0,0
218520,477.476,-745.073,0,0
218780,479.058,-746.926,0,0
219041,480.483,-749.186,0,0
219301,481.774,-751.852,0,0
219561,482.894,-754.693,0,0
219822,483.873,-757.83,0,0
220082,484.887,-761.306,0,0
220342,485.7,-765.213,0,0
220603,486.392,-769.455,0,0
220863,486.796,-774.13,0,0
221123,486.937,-779.269,0,0
221384,486.38,-784.913,0,0
221644,485.163,-790.788,0,0
221904,483.35,-796.646,0,0
222165,481.074,-802.394,0,0
222425,478.313,-808.258,0,0
222685,475.024,-814.148,0,0
222946,470.946,-820.002,0,0
223206,466.165,-825.368,0,0
223466,460.901,-830.291,0,0
223727,455.341,-834.388,0,0
223987,449.761,-838.081,0,0
224247,444.414,-841.473,0,0
224508,438.86,-844.746,0,0
224768,433.205,-847.743,0,0
225028,427.288,-850.758,0,0
225289,421.326,-853.232,0,0
225549,415.271,-855.557,0,0
225809,409.074,-857.678,0,0
226070,402.66,-859.474,0,0
226330,396.122,-860.882,0,0
226590,389.718,-861.913,0,0
226851,383.163,-862.686,0,0
227111,376.639,-863.002,0,0
227371,370.375,-862.888,0,0
227632,364.362,-862.707,0,0
227892,358.21,-862.242,0,0
228152,352.312,-861.429,0,0
228413,346.765,-860.545,0,0
228673,341.283,-859.447,0,0
228933,336.064,-858.263,0,0
229193,331,-856.996,0,0
229454,326.141,-855.755,0,0
229714,321.409,-854.6,0,0
229974,316.583,-853.365,0,0
230235,311.945,-852.123,0,0
230495,307.012,-850.899,0,0
230755,302.091,-849.482,0,0
231016,297.173,-847.769,0,0
231276,292.399,-845.947,0,0
231536,287.864,-844.013,0,0
231797,283.356,-842.034,0,0
232057,278.903,-839.968,0,0
232317,274.55,-837.842,0,0
232578,270.177,-835.68,0,0
232838,265.796,-833.418,0,0
233098,261.496,-830.881,0,0
233359,257.283,-828.192,0,0
233619,253.239,-825.427,0,0
233879,249.287,-822.47,0,0
234140,245.46,-819.441,0,0
234400,241.812,-816.29,0,0
234660.3,238.356,-812.961,0,0
234920.625,235.014,-809.624,0,0
235180.95,231.922,-806.216,0,0
235441.275,228.917,-802.567,0,0
235701.6,226.257,-799.043,0,0
235961.925,223.819,-795.491,0,0
236222.25,221.529,-792.009,0,0
236482.575,219.446,-788.507,0,0
236742.9,217.565,-785.06,0,0
237003.225,215.869,-781.73,0,0
237263.55,214.392,-778.557,0,0
237523.875,212.911,-775.486,0,0
237784.2,211.55,-772.499,0,0
238044.525,210.263,-769.611,0,0
238304.85,209.015,-766.8,0,0
238565.175,207.862,-764.053,0,0
238825.5,206.754,-761.441,0,0
239085.825,205.71,-758.858,0,0
239346.15,204.696,-756.438,0,0
239606.475,203.711,-754.1,0,0
239866.8,202.673,-751.883,0,0
240127.125,201.639,-749.768,0,0
240387.45,200.476,-747.783,0,0
240647.775,199.286,-745.66,0,0
240908.1,198.023,-743.578,0,0
241168.425,196.747,-741.437,0,0
241428.75,195.447,-739.291,0,0
241689.075,194.241,-737.105,0,0
241949.4,192.946,-734.903,0,0
242209.725,191.665,-732.71,0,0
242470.05,190.424,-730.385,0,0
242730.375,189.217,-727.94,0,0
242990.7,188.167,-725.519,0,0
243251.025,187.215,-723.055,0,0
243511.35,186.335,-720.64,0,0
243771.675,185.516,-718.229,0,0
244032.0,184.922,-715.884,0,0
244292.325,184.29,-713.656,0,0
244552.65,183.737,-711.597,0,0
244812.975,183.05,-709.632,0,0
245073.3,182.183,-707.61,0,0
245333.625,181.326,-705.578,0,0
245593.95,180.416,-703.447,0,0
245854.275,179.592,-701.105,0,0
246114.6,178.779,-698.853,0,0
246374.925,178.111,-696.469,0,0
246635.25,177.461,-694.048,0,0
246895.575,176.941,-691.579,0,0
247155.9,176.566,-689.125,0,0
247416.225,176.344,-686.856,0,0
247676.55,176.122,-684.563,0,0
247936.875,175.931,-682.309,0,0
248197.2,175.836,-680.199,0,0
248457.525,175.584,-678.131,0,0
248717.85,175.391,-676.026,0,0
248978.175,175.107,-673.912,0,0
249238.5,174.888,-671.607,0,0
249498.825,174.821,-669.39,0,0
249759.15,174.744,-667.065,0,0
250019.475,174.758,-664.709,0,0
250279.8,174.89,-662.294,0,0
250540,175.154,-659.822,0,0
250800,175.611,-657.362,0,0
251061,176.242,-654.989,0,0
251321,177.035,-652.66,0,0
251581,178.086,-650.503,0,0
251842,179.229,-648.511,0,0
252102,180.471,-646.706,0,0
252362,181.829,-645.131,0,0
252623,183.251,-643.847,0,0
252883,184.565,-642.92,0,0
253143,185.587,-642.216,0,0
253404,186.355,-641.562,0,0
253664,186.893,-640.856,0,0
253924,187.267,-640.066,0,0
254185,187.594,-639.137,0,0
254445,187.823,-638.095,0,0
254705,188.151,-636.903,0,0
254966,188.604,-635.666,0,0
255226,189.071,-634.307,0,0
255486,189.72,-632.951,0,0
255747,190.487,-631.531,0,0
256007,191.463,-630.253,0,0
256267,192.548,-629.088,0,0
256528,193.764,-628.132,0,0
256788,194.937,-627.386,0,0
257048,195.981,-626.779,0,0
257309,196.952,-626.186,0,0
257569,197.898,-625.618,0,0
257829,198.917,-625.062,0,0
258090,199.921,-624.567,0,0
258350,200.961,-624.195,0,0
258610,201.992,-623.929,0,0
258871,202.879,-623.732,0,0
259131,203.824,-623.575,0,0
259391,204.875,-623.438,0,0
259651,205.775,-623.486,0,0
259912,206.509,-623.633,0,0
260172,207.194,-623.803,0,0
260432,207.755,-623.894,0,0
260693,208.331,-623.941,0,0
260953,208.93,-624.084,0,0
261213,209.498,-624.269,0,0
261474,209.972,-624.499,0,0
261734,210.289,-624.735,0,0
261994,210.582,-624.9,0,0
262255,210.82,-625.062,0,0
262515,211.032,-625.184,0,0
262775,211.188,-625.279,0,0
263036,211.234,-625.247,0,0
263296,211.353,-625.051,0,0
263556,211.601,-624.826,0,0
263817,211.908,-624.617,0,0
264077,212.277,-624.386,0,0
264337,212.633,-624.106,0,0
264598,213.057,-623.689,0,0
264858,213.709,-623.196,0,0
265118,214.434,-622.727,0,0
265379,215.401,-622.098,0,0
265639,216.819,-621.625,0,0
265899,218.281,-621.329,0,0
266160,219.967,-621.325,0,0
266420,221.74,-621.59,0,0
266680.25,223.678,-622.074,0,0
266940.575,225.672,-622.816,0,0
267200.9,227.73,-623.887,0,0
267461.225,229.79,-625.262,0,0
267721.55,231.88,-626.976,0,0
267981.875,233.827,-629.135,0,0
268242.2,235.54,-631.585,0,0
268502.525,237.158,-634.366,0,0
268762.85,238.541,-637.443,0,0
269023.175,239.629,-640.835,0,0
269283.5,240.218,-644.57,0,0
269543.825,240.4,-648.479,0,0
269804.15,240.169,-652.422,0,0
270064.475,239.44,-656.348,0,0
270324.8,238.351,-660.181,0,0
270585.125,236.966,-663.906,0,0
270845.45,235.338,-667.58,0,0
271105.775,233.331,-671.23,0,0
271366.1,231.027,-674.782,0,0
271626.425,228.379,-678.171,0,0
271886.75,225.494,-681.404,0,0
272147.075,222.318,-684.474,0,0
272407.4,218.839,-687.372,0,0
272667.725,215.083,-690.029,0,0
272928.05,211.024,-692.431,0,0
273188.375,206.683,-694.433,0,0
273448.7,202.216,-696.059,0,0
273709.025,197.59,-697.332,0,0
273969.35,192.944,-698.257,0,0
274229.675,188.253,-698.758,0,0
274490.0,183.569,-698.937,0,0
274750.325,178.913,-698.728,0,0
275010.65,174.305,-698.158,0,0
275270.975,169.96,-697.211,0,0
275531.3,165.743,-695.997,0,0
275791.625,161.704,-694.464,0,0
276051.95,157.978,-692.709,0,0
276312.275,154.503,-690.791,0,0
276572.6,151.349,-688.778,0,0
276832.925,148.405,-686.803,0,0
277093.25,145.644,-684.793,0,0
277353.575,143.078,-682.787,0,0
277613.9,140.658,-680.782,0,0
277874.225,138.312,-678.785,0,0
278134.55,136.016,-676.796,0,0
278394.875,133.815,-674.739,0,0
278655.2,131.702,-672.614,0,0
278915.525,129.682,-670.463,0,0
279175.85,127.778,-668.206,0,0
279436.175,126.004,-665.905,0,0
279696.5,124.371,-663.518,0,0
279956.825,122.95,-661.043,0,0
280217.15,121.757,-658.618,0,0
280477.475,120.808,-656.216,0,0
280737.8,120.082,-653.929,0,0
280998.125,119.502,-651.833,0,0
281258.45,118.975,-650.003,0,0
281518.775,118.372,-648.285,0,0
281779.1,117.74,-646.605,0,0
282039.425,117.107,-644.928,0,0
282299.75,116.511,-643.238,0,0
282560,116.012,-641.562,0,0
282820,115.566,-639.953,0,0
283081,115.133,-638.396,0,0
283341,114.758,-636.891,0,0
283601,114.413,-635.409,0,0
283862,114.116,-633.969,0,0
284122,113.866,-632.559,0,0
284382,113.682,-631.17,0,0
284643,113.585,-629.914,0,0
284903,113.457,-628.737,0,0
285163,113.36,-627.585,0,0
285424,113.266,-626.43,0,0
285684,113.306,-625.336,0,0
285944,113.42,-624.304,0,0
286205,113.619,-623.393,0,0
286465,113.902,-622.702,0,0
286725,114.181,-622.165,0,0
286986,114.436,-621.874,0,0
287246,114.586,-621.817,0,0
287506,114.535,-621.924,0,0
287767,114.249,-622.119,0,0
288027,113.756,-622.334,0,0
288287,113.05,-622.524,0,0
288548,112.228,-622.625,0,0
288808,111.318,-622.698,0,0
289068,110.283,-622.704,0,0
289329,109.17,-622.633,0,0
289589,107.969,-622.467,0,0
289849,106.711,-622.264,0,0
290109,105.4,-621.932,0,0
290370,104.069,-621.53,0,0
290630,102.764,-621,0,0
290890,101.472,-620.423,0,0
291151,100.23,-619.864,0,0
291411,98.9868,-619.279,0,0
291671,97.6859,-618.737,0,0
291932,96.2805,-618.193,0,0
292192,94.8375,-617.526,0,0
292452,93.332,-616.785,0,0
292713,91.7704,-615.943,0,0
292973,90.173,-614.981,0,0
293233,88.6543,-613.913,0,0
293494,87.1602,-612.73,0,0
293754,85.6965,-611.455,0,0
294014,84.3413,-610.088,0,0
294275,83.0406,-608.687,0,0
294535,81.8155,-607.217,0,0
294795,80.6913,-605.757,0,0
295056,79.6237,-604.276,0,0
295316,78.5978,-602.789,0,0
295576,77.628,-601.322,0,0
295837,76.6864,-599.824,0,0
296097,75.7835,-598.308,0,0
296357,74.9294,-596.765,0,0
296618,74.113,-595.248,0,0
296878,73.341,-593.706,0,0
297138,72.6129,-592.175,0,0
297399,71.9123,-590.635,0,0
297659,71.2441,-589.064,0,0
297919,70.6275,-587.498,0,0
298180,70.0591,-585.927,0,0
298440,69.5405,-584.333,0,0
298700.2,69.0381,-582.749,0,0
298960.525,68.6688,-581.269,0,0
299220.85,68.3009,-579.698,0,0
299481.175,68.0027,-578.175,0,0
299741.5,67.6626,-576.726,0,0
300001.825,67.3789,-575.207,0,0
300262.15,67.1258,-573.713,0,0
300522.475,66.9437,-572.298,0,0
300782.8,66.7275,-570.778,0,0
301043.125,66.5602,-569.323,0,0
301303.45,66.4916,-567.925,0,0
301563.775,66.3911,-566.539,0,0
301824.1,66.4327,-565.152,0,0
302084.425,66.4553,-563.824,0,0
302344.75,66.4998,-562.534,0,0
302605.075,66.6716,-561.271,0,0
302865.4,66.7922,-560.099,0,0
303125.725,66.8963,-558.923,0,0
303386.05,67.0301,-557.857,0,0
303646.375,67.1533,-556.81,0,0
303906.7,67.2399,-555.873,0,0
304167.025,67.4404,-554.866,0,0
304427.35,67.494,-553.895,0,0
304687.675,67.6532,-552.994,0,0
304948.0,67.7463,-552.119,0,0
305208.325,67.8175,-551.296,0,0
305468.65,67.9045,-550.451,0,0
305728.975,67.9516,-549.584,0,0
305989.3,68.0192,-548.798,0,0
306249.625,68.0015,-548.037,0,0
306509.95,68.1119,-547.194,0,0
306770.275,68.222,-546.441,0,0
307030.6,68.2656,-545.715,0,0
307290.925,68.3168,-545.027,0,0
307551.25,68.4035,-544.352,0,0
307811.575,68.4115,-543.688,0,0
308071.9,68.4457,-543.044,0,0
308332.225,68.4128,-542.425,0,0
308592.55,68.452,-541.808,0,0
308852.875,68.4314,-541.285,0,0
309113.2,68.5223,-540.784,0,0
309373.525,68.3574,-540.372,0,0
309633.85,68.2012,-539.879,0,0
309894.175,68.0524,-539.358,0,0
310154.5,67.7816,-538.879,0,0
310414.825,67.5417,-538.294,0,0
310675.15,67.2836,-537.725,0,0
310935.475,67.044,-537.146,0,0
311195.8,66.8443,-536.551,0,0
311456.125,66.5795,-536.029,0,0
311716.45,66.321,-535.447,0,0
311976.775,66.0036,-534.865,0,0
312237.1,65.7482,-534.329,0,0
312497.425,65.4492,-533.709,0,0
312757.75,65.1336,-533.054,0,0
313018.075,64.7949,-532.506,0,0
313278.4,64.4971,-531.853,0,0
313538.725,64.1632,-531.315,0,0
313799.05,63.8209,-530.665,0,0
314059.375,63.4372,-529.961,0,0
314319.7,63.0184,-529.263,0,0
314580,62.656,-528.443,0,0
314840,62.3174,-527.651,0,0
315101,62.0382,-526.842,0,0
315361,61.7242,-526.04,0,0
315621,61.4775,-525.226,0,0
315882,61.2516,-524.425,0,0
316142,61.0158,-523.59,0,0
316402,60.7795,-522.815,0,0
316663,60.6305,-522.031,0,0
316923,60.4855,-521.236,0,0
317183,60.415,-520.451,0,0
317444,60.291,-519.699,0,0
317704,60.1974,-519,0,0
317964,60.1458,-518.294,0,0
318225,60.0299,-517.602,0,0
318485,60.0032,-516.904,0,0
318745,59.8734,-516.256,0,0
319006,59.8069,-515.709,0,0
319266,59.6993,-515.112,0,0
319526,59.6615,-514.499,0,0
319787,59.5612,-513.912,0,0
320047,59.4852,-513.348,0,0
320307,59.3132,-512.802,0,0
320567,59.2717,-512.347,0,0
320828,59.1384,-511.936,0,0
321088,59.0073,-511.42,0,0
321348,58.7834,-511,0,0
321609,58.4716,-510.563,0,0
321869,58.231,-510.065,0,0
322129,57.9874,-509.595,0,0
322390,57.6518,-509.122,0,0
322650,57.3988,-508.612,0,0
322910,57.1169,-508.116,0,0
323171,56.7838,-507.711,0,0
323431,56.4328,-507.209,0,0
323691,56.0462,-506.711,0,0
323952,55.6631,-506.233,0,0
324212,55.2698,-505.714,0,0
324472,54.8516,-505.229,0,0
324733,54.3932,-504.605,0,0
324993,53.9203,-503.955,0,0
325253,53.4558,-503.42,0,0
325514,53.0294,-502.731,0,0
325774,52.5359,-502.01,0,0
326034,52.1131,-501.398,0,0
326295,51.6447,-500.592,0,0
326555,51.3619,-499.807,0,0
326815,50.9244,-499.098,0,0
327076,50.5623,-498.41,0,0
327336,50.1553,-497.657,0,0
327596,49.7921,-496.936,0,0
327857,49.4732,-496.193,0,0
328117,49.1377,-495.38,0,0
328377,48.7435,-494.627,0,0
328638,48.3865,-493.843,0,0
328898,48.0559,-492.985,0,0
329158,47.7749,-492.223,0,0
329419,47.4384,-491.36,0,0
329679,47.0997,-490.584,0,0
329939,46.9017,-489.772,0,0
330200,46.5873,-488.891,0,0
330460,46.2802,-488.075,0,0
330720.15,46.0191,-487.219,0,0
330980.475,45.8015,-486.422,0,0
331240.8,45.6069,-485.569,0,0
331501.125,45.3596,-484.788,0,0
331761.45,45.186,-483.897,0,0
332021.775,44.8972,-483.037,0,0
332282.1,44.7172,-482.25,0,0
332542.425,44.5628,-481.377,0,0
332802.75,44.3956,-480.485,0,0
333063.075,44.196,-479.663,0,0
333323.4,44.1304,-478.764,0,0
333583.725,43.9976,-477.895,0,0
333844.05,43.8549,-477.077,0,0
334104.375,43.7815,-476.202,0,0
334364.7,43.7158,-475.332,0,0
334625.025,43.7093,-474.498,0,0
334885.35,43.6804,-473.687,0,0
335145.675,43.6914,-472.927,0,0
335406.0,43.7286,-472.123,0,0
335666.325,43.7336,-471.352,0,0
335926.65,43.7614,-470.589,0,0
336186.975,43.8184,-469.926,0,0
336447.3,43.8205,-469.263,0,0
336707.625,43.7854,-468.534,0,0
336967.95,43.8344,-467.878,0,0
337228.275,43.8504,-467.222,0,0
337488.6,43.7547,-466.615,0,0
337748.925,43.7811,-466.012,0,0
338009.25,43.7261,-465.342,0,0
338269.575,43.6554,-464.748,0,0
338529.9,43.7325,-464.136,0,0
338790.225,43.6045,-463.519,0,0
339050.55,43.5009,-462.925,0,0
339310.875,43.4596,-462.3,0,0
339571.2,43.3837,-461.739,0,0
339831.525,43.3097,-461.124,0,0
340091.85,43.1874,-460.534,0,0
340352.175,43.0724,-459.929,0,0
340612.5,42.939,-459.351,0,0
340872.825,42.838,-458.728,0,0
341133.15,42.7303,-458.093,0,0
341393.475,42.6238,-457.5,0,0
341653.8,42.4575,-456.83,0,0
341914.125,42.3591,-456.203,0,0
342174.45,42.1967,-455.622,0,0
342434.775,42.0562,-454.954,0,0
342695.1,41.8904,-454.325,0,0
342955.425,41.7498,-453.636,0,0
343215.75,41.6019,-452.979,0,0
343476.075,41.4571,-452.291,0,0
343736.4,41.2798,-451.603,0,0
343996.725,41.174,-450.878,0,0
344257.05,41.0426,-450.125,0,0
344517.375,40.8947,-449.377,0,0
344777.7,40.8072,-448.657,0,0
345038.025,40.7279,-447.945,0,0
345298.35,40.6933,-447.196,0,0
345558.675,40.6237,-446.483,0,0
345819.0,40.5592,-445.761,0,0
346079.325,40.4808,-444.98,0,0
346339.65,40.4433,-444.271,0,0
346599.975,40.4313,-443.54,0,0
346860,40.3516,-442.75,0,0
347121,40.3952,-441.996,0,0
347381,40.3859,-441.283,0,0
347641,40.3989,-440.552,0,0
347902,40.4407,-439.856,0,0
348162,40.5129,-439.08,0,0
348422,40.5617,-438.417,0,0
348683,40.5936,-437.757,0,0
348943,40.6758,-436.99,0,0
349203,40.6759,-436.3,0,0
349464,40.7796,-435.665,0,0
349724,40.9111,-434.968,0,0
349984,41.0109,-434.33,0,0
350245,41.1094,-433.664,0,0
350505,41.1816,-433.058,0,0
350765,41.2673,-432.412,0,0
351025,41.3798,-431.814,0,0
351286,41.4708,-431.245,0,0
351546,41.5385,-430.635,0,0
351806,41.6549,-430.036,0,0
352067,41.7541,-429.512,0,0
352327,41.8346,-428.93,0,0
352587,41.8817,-428.342,0,0
352848,41.9265,-427.801,0,0
353108,42.0009,-427.249,0,0
353368,42.0583,-426.692,0,0
353629,42.1411,-426.066,0,0
353889,42.2103,-425.515,0,0
354149,42.3024,-424.981,0,0
354410,42.3954,-424.435,0,0
354670,42.4819,-423.851,0,0
354930,42.5593,-423.375,0,0
355191,42.6178,-422.852,0,0
355451,42.7111,-422.267,0,0
355711,42.7738,-421.794,0,0
355972,42.8535,-421.317,0,0
356232,42.9302,-420.812,0,0
356492,42.9643,-420.325,0,0
356753,42.957,-419.867,0,0
357013,42.9967,-419.408,0,0
357273,42.9997,-418.898,0,0
357534,43.0079,-418.407,0,0
357794,42.9531,-417.913,0,0
358054,42.9322,-417.347,0,0
358315,42.9418,-416.87,0,0
358575,42.979,-416.317,0,0
358835,42.9105,-415.75,0,0
359096,42.9198,-415.211,0,0
359356,42.9091,-414.675,0,0
359616,42.8982,-414.137,0,0
359877,42.9011,-413.576,0,0
360137,42.8793,-413.001,0,0
360397,42.9227,-412.464,0,0
360658,42.9439,-411.856,0,0
360918,42.9451,-411.286,0,0
361178,42.9467,-410.686,0,0
361438,42.9937,-410.082,0,0
361699,43.0538,-409.538,0,0
361959,43.0629,-408.921,0,0
362219,43.0704,-408.336,0,0
362480,43.13,-407.732,0,0
362740.1,43.1617,-407.082,0,0
363000.425,43.2855,-406.48,0,0
363260.75,43.3685,-405.803,0,0
363521.075,43.4662,-405.218,0,0
363781.4,43.6591,-404.593,0,0
364041.725,43.8129,-404.007,0,0
364302.05,43.9339,-403.422,0,0
364562.375,44.1125,-402.821,0,0
364822.7,44.3387,-402.263,0,0
365083.025,44.4898,-401.708,0,0
365343.35,44.6819,-401.139,0,0
365603.675,44.9083,-400.623,0,0
365864.0,45.1146,-400.088,0,0
366124.325,45.3472,-399.628,0,0
366384.65,45.573,-399.117,0,0
366644.975,45.7835,-398.623,0,0
366905.3,46.0314,-398.186,0,0
367165.625,46.2573,-397.764,0,0
367425.95,46.4771,-397.337,0,0
367686.275,46.6718,-396.945,0,0
367946.6,46.8659,-396.498,0,0
368206.925,47.0641,-396.11,0,0
368467.25,47.2515,-395.728,0,0
368727.575,47.4329,-395.308,0,0
368987.9,47.6402,-394.892,0,0
369248.225,47.8039,-394.503,0,0
369508.55,48.0128,-394.096,0,0
369768.875,48.2523,-393.721,0,0
370029.2,48.4552,-393.365,0,0
370289.525,48.7347,-393,0,0
370549.85,48.9559,-392.673,0,0
370810.175,49.2271,-392.37,0,0
371070.5,49.4725,-392.114,0,0
371330.825,49.6812,-391.9,0,0
371591.15,49.9208,-391.693,0,0
371851.475,50.0805,-391.49,0,0
372111.8,50.2353,-391.317,0,0
372372.125,50.3261,-391.194,0,0
372632.45,50.4689,-391.04,0,0
372892.775,50.5487,-390.918,0,0
373153.1,50.5692,-390.775,0,0
373413.425,50.583,-390.636,0,0
373673.75,50.4972,-390.5,0,0
373934.075,50.4146,-390.357,0,0
374194.4,50.3224,-390.138,0,0
374454.725,50.2062,-389.869,0,0
374715.05,50.1097,-389.595,0,0
374975.375,49.9746,-389.309,0,0
375235.7,49.8728,-388.972,0,0
375496.025,49.7955,-388.619,0,0
375756.35,49.6917,-388.26,0,0
376016.675,49.6859,-387.923,0,0
376277.0,49.6542,-387.559,0,0
376537.325,49.6611,-387.195,0,0
376797.65,49.6453,-386.873,0,0
377057.975,49.6422,-386.518,0,0
377318.3,49.6992,-386.267,0,0
377578.625,49.6576,-385.972,0,0
377838.95,49.6797,-385.723,0,0
378099.275,49.5817,-385.479,0,0
378359.6,49.4599,-385.19,0,0
378619.925,49.3755,-384.909,0,0
378880,49.2346,-384.595,0,0
379141,49.0479,-384.211,0,0
379401,48.9423,-383.805,0,0
379661,48.8336,-383.378,0,0
379922,48.813,-382.904,0,0
380182,48.8598,-382.423,0,0
380442,48.9572,-382.003,0,0
380703,49.0812,-381.649,0,0
380963,49.2354,-381.334,0,0
381223,49.3983,-381.146,0,0
381483,49.4994,-381.011,0,0
381744,49.4976,-380.969,0,0
382004,49.4485,-380.953,0,0
382264,49.2866,-380.953,0,0
382525,49.0332,-380.863,0,0
382785,48.631,-380.686,0,0
383045,48.2844,-380.554,0,0
383306,47.8865,-380.259,0,0
383566,47.5103,-379.895,0,0
383826,47.1287,-379.52,0,0
384087,46.7664,-379.08,0,0
384347,46.4191,-378.592,0,0
384607,46.1597,-378.104,0,0
384868,45.8376,-377.58,0,0
385128,45.5904,-376.978,0,0
385388,45.3798,-376.453,0,0
385649,45.157,-375.893,0,0
385909,44.9666,-375.32,0,0
386169,44.7779,-374.747,0,0
386430,44.6171,-374.146,0,0
386690,44.4853,-373.546,0,0
386950,44.3477,-372.938,0,0
387211,44.2384,-372.36,0,0
387471,44.1418,-371.757,0,0
387731,44.0959,-371.126,0,0
387992,44.0054,-370.556,0,0
388252,43.9471,-369.941,0,0
388512,43.9441,-369.333,0,0
388773,43.9419,-368.761,0,0
389033,43.9515,-368.154,0,0
389293,44.008,-367.577,0,0
389554,43.9995,-366.997,0,0
389814,44.0602,-366.467,0,0
390074,44.1144,-365.967,0,0
390335,44.1789,-365.435,0,0
390595,44.2185,-364.962,0,0
390855,44.2461,-364.486,0,0
391116,44.282,-364.034,0,0
391376,44.3017,-363.543,0,0
391636,44.3128,-363.095,0,0
391896,44.3087,-362.621,0,0
392157,44.3326,-362.141,0,0
392417,44.3605,-361.719,0,0
392677,44.3334,-361.231,0,0
392938,44.3295,-360.764,0,0
393198,44.292,-360.287,0,0
393458,44.2607,-359.807,0,0
393719,44.2353,-359.329,0,0
393979,44.2046,-358.809,0,0
394239,44.2058,-358.306,0,0
394500,44.2012,-357.755,0,0
394760.05,44.2023,-357.236,0,0
395020.375,44.1933,-356.725,0,0
395280.7,44.2288,-356.166,0,0
395541.025,44.2549,-355.638,0,0
395801.35,44.3016,-355.147,0,0
396061.675,44.372,-354.594,0,0
396322.0,44.4381,-354.099,0,0
396582.325,44.4666,-353.583,0,0
396842.65,44.5484,-353.089,0,0
397102.975,44.6209,-352.599,0,0
397363.3,44.682,-352.126,0,0
397623.625,44.7622,-351.66,0,0
397883.95,44.8124,-351.179,0,0
398144.275,44.8515,-350.732,0,0
398404.6,44.9154,-350.248,0,0
398664.925,44.978,-349.8,0,0
398925.25,45.0218,-349.339,0,0
399185.575,45.0364,-348.845,0,0
399445.9,45.0993,-348.389,0,0
399706.225,45.141,-347.916,0,0
399966.55,45.1867,-347.401,0,0
400006.6,45.1747,-347.359,0,0