File: Accelerated corrosion test data/2025-10-01_18-00-03/sample_3.csv
Frequency (Hz),Impedance (ohms),Phase (Radians),Temperature (C),Humidity (%)
10000.0,258.246,-11629.9,0,0
10260.325,251.809,-11337,0,0
10520.65,246.076,-11058.1,0,0
10780.975,241.523,-10792.7,0,0
11041.3,235.809,-10543.9,0,0
11301.625,229.682,-10302,0,0
11561.95,224.818,-10071.6,0,0
11822.275,220.4,-9851.31,0,0
12082.6,217.139,-9640.63,0,0
12342.925,214.451,-9438.2,0,0
12603.25,208.006,-9246.49,0,0
12863.575,204.416,-9059.73,0,0
13123.9,205.026,-8879.04,0,0
13384.225,197.578,-8712.37,0,0
13644.55,194.077,-8547.32,0,0
13904.875,190.121,-8386.4,0,0
14165.2,190.732,-8231.89,0,0
14425.525,186.16,-8084.81,0,0
14685.8,183.069,-7942.08,0,0
14946.175,180.173,-7804.68,0,0
15206.5,177.563,-7667.05,0,0
15466.825,180.681,-7532.32,0,0
15727.15,199.504,-7423.53,0,0
15987.5,176.58,-7316.69,0,0
16247.8,171.533,-7190.06,0,0
16508.125,165.445,-7079.36,0,0
16768.45,167.643,-6960.97,0,0
17028.775,161.719,-6863.54,0,0
17289.1,164.89,-6752.32,0,0
17549.425,159.297,-6660.97,0,0
17809.75,161.615,-6558.56,0,0
18070.075,166.081,-6470.4,0,0
18330.4,154.367,-6380.57,0,0
18590.725,151.59,-6289.79,0,0
18851.05,148.147,-6200.9,0,0
19111.375,149.452,-6112.56,0,0
19371.7,148.368,-6030.95,0,0
19632.025,148.846,-5949.67,0,0
19892.35,150.618,-5867.94,0,0
20152.675,151.848,-5796.41,0,0
20413.0,160.082,-5718.69,0,0
20673.3,164.657,-5649.64,0,0
20933.65,162.934,-5599.58,0,0
21193.975,162.609,-5537.94,0,0
21454.3,146.033,-5473.47,0,0
21714.625,140.528,-5399.79,0,0
21974.9,145.036,-5335.9,0,0
22235.275,140.878,-5277.19,0,0
22495.6,140.772,-5217.58,0,0
22755.925,132.209,-5157.07,0,0
23016.25,130.555,-5098.96,0,0
23276.6,130.605,-5037.81,0,0
23536.9,130.608,-4992.05,0,0
23797.225,123.652,-4934.68,0,0
24057.55,121.708,-4877.66,0,0
24317.875,121.303,-4824.03,0,0
24578.2,119.324,-4774.01,0,0
24838.525,120.963,-4721.76,0,0
25098.85,118.591,-4676.38,0,0
25359.175,116.169,-4628.01,0,0
25619.5,115.464,-4580.36,0,0
25879.8,113.154,-4534.34,0,0
26140.1,111.075,-4487.32,0,0
26400.5,110.029,-4441.1,0,0
26660.8,110.146,-4396.99,0,0
26921.1,110.76,-4353.22,0,0
27181.4,109.415,-4312.96,0,0
27441.8,109.325,-4269.3,0,0
27702.1,110.505,-4231.24,0,0
27962.4,107.37,-4191.78,0,0
28222.7,106.088,-4148.88,0,0
28483.1,113.352,-4108.75,0,0
28743.4,115.332,-4074.7,0,0
29003.7,115.688,-4043.54,0,0
29264,107.621,-4008.61,0,0
29524.4,111.398,-3973.77,0,0
29784.7,106.425,-3939.58,0,0
30045,104.279,-3906.18,0,0
30305.3,102.212,-3869.2,0,0
30565.7,104.263,-3836.89,0,0
30826,102.725,-3803.61,0,0
31086.3,103.883,-3772.9,0,0
31346.6,100.04,-3742,0,0
31607,98.8642,-3708.05,0,0
31867.3,99.5924,-3675.05,0,0
32127.6,103.378,-3642.86,0,0
32387.9,110.018,-3614.34,0,0
32648.3,111.912,-3596.83,0,0
32908.6,104.198,-3571.08,0,0
33168.9,103.233,-3543.17,0,0
33429.2,100.861,-3518.76,0,0
33689.6,95.7525,-3491.25,0,0
33949.9,93.1049,-3462.43,0,0
34210.2,92.3364,-3434.68,0,0
34470.5,91.489,-3408.99,0,0
34730.9,89.3757,-3382.73,0,0
34991.2,88.7247,-3356.48,0,0
35251.5,87.9629,-3331.09,0,0
35511.8,86.653,-3305.98,0,0
35772.2,86.2221,-3281.36,0,0
36032.5,85.2165,-3256.83,0,0
36292.8,84.615,-3232.88,0,0
36553.1,84.2746,-3209.18,0,0
36813.5,83.697,-3186.14,0,0
37073.8,82.956,-3163.32,0,0
37334.1,82.3313,-3140.61,0,0
37594.4,81.9647,-3118.22,0,0
37854.8,81.2849,-3096.74,0,0
38115.1,80.8405,-3074.86,0,0
38375.4,80.2887,-3053.53,0,0
38635.7,79.8428,-3032.27,0,0
38896.1,79.4237,-3011.71,0,0
39156.4,79.0439,-2991.09,0,0
39416.7,78.8402,-2971.3,0,0
39677,78.1448,-2951.15,0,0
39937.4,77.5025,-2931.28,0,0
40197.7,77.3434,-2911.57,0,0
40458,76.7849,-2892.42,0,0
40718.3,76.4361,-2873.28,0,0
40978.7,76.2434,-2854.37,0,0
41239,76.0786,-2835.93,0,0
41499.3,75.7086,-2817.69,0,0
41759.6,75.9567,-2799.56,0,0
42020,75.6141,-2781.88,0,0
42280.275,75.3913,-2764.39,0,0
42540.6,74.9752,-2747.11,0,0
42800.925,74.443,-2730.26,0,0
43061.25,74.1736,-2713.13,0,0
43321.575,73.6496,-2696.47,0,0
43581.9,73.1307,-2679.32,0,0
43842.225,73.4462,-2662.71,0,0
44102.55,73.331,-2646.72,0,0
44362.875,73.3894,-2631.02,0,0
44623.2,72.7833,-2615.39,0,0
44883.525,72.4442,-2599.61,0,0
45143.85,72.0491,-2583.95,0,0
45404.175,71.9362,-2568.69,0,0
45664.5,71.8319,-2553.03,0,0
45924.825,72.5203,-2538.32,0,0
46185.15,71.627,-2524.15,0,0
46445.475,71.2059,-2509.2,0,0
46705.8,71.3578,-2494.42,0,0
46966.125,71.3108,-2480.21,0,0
47226.45,71.1169,-2466,0,0
47486.775,70.9068,-2451.83,0,0
47747.1,71.7282,-2437.35,0,0
48007.425,72.0135,-2424.68,0,0
48267.75,71.8395,-2412.38,0,0
48528.075,70.9839,-2398.83,0,0
48788.4,70.6804,-2386.09,0,0
49048.725,69.9719,-2372.99,0,0
49309.05,69.4074,-2359.79,0,0
49569.375,69.2798,-2346.61,0,0
49829.7,69.2009,-2333.78,0,0
50090.025,68.8002,-2321.4,0,0
50350.35,68.1073,-2308.58,0,0
50610.675,68.1782,-2295.63,0,0
50871.0,67.9966,-2283.26,0,0
51131.325,68.0875,-2271.03,0,0
51391.65,67.9134,-2258.83,0,0
51651.975,67.8665,-2246.95,0,0
51912.3,67.6849,-2235.07,0,0
52172.625,67.5163,-2223.07,0,0
52432.95,67.6749,-2210.91,0,0
52693.275,67.9342,-2199.27,0,0
52953.6,68.4925,-2187.64,0,0
53213.925,69.2458,-2176.35,0,0
53474.25,69.7375,-2165.89,0,0
53734.575,69.8244,-2155.05,0,0
53994.9,70.4087,-2144.3,0,0
54255.225,71.4412,-2134.06,0,0
54515.55,72.1795,-2125.04,0,0
54775.875,71.2246,-2116.08,0,0
55036.2,70.6638,-2106.16,0,0
55296.525,70.038,-2096.91,0,0
55556.85,68.1958,-2087.73,0,0
55817.175,66.8507,-2076.9,0,0
56077.5,65.771,-2066.55,0,0
56337.825,64.9744,-2056.28,0,0
56598.15,63.9195,-2045.67,0,0
56858.475,63.1265,-2034.99,0,0
57118.8,62.7675,-2024.21,0,0
57379.125,62.6153,-2013.79,0,0
57639.45,62.6693,-2003.56,0,0
57899.775,62.6115,-1993.52,0,0
58160.1,62.6582,-1983.6,0,0
58420.4,62.7186,-1973.66,0,0
58680.7,62.7855,-1963.82,0,0
58941.1,62.7851,-1954.24,0,0
59201.4,63.0595,-1944.41,0,0
59461.7,63.4374,-1934.93,0,0
59722,63.5885,-1925.73,0,0
59982.4,63.8311,-1916.32,0,0
60242.7,64.0301,-1907.12,0,0
60503,64.333,-1897.89,0,0
60763.3,64.8976,-1888.69,0,0
61023.7,65.2965,-1879.84,0,0
61284,65.8641,-1870.77,0,0
61544.3,66.5486,-1862.18,0,0
61804.6,66.5907,-1853.67,0,0
62065,67.17,-1844.97,0,0
62325.3,67.4854,-1836.13,0,0
62585.6,68.2519,-1827.35,0,0
62845.9,69.1851,-1818.58,0,0
63106.3,70.2339,-1810.33,0,0
63366.6,70.7635,-1801.94,0,0
63626.9,72.0474,-1793.25,0,0
63887.2,73.5979,-1784.68,0,0
64147.6,75.7449,-1776.82,0,0
64407.9,77.5667,-1769,0,0
64668.2,79.9732,-1761.61,0,0
64928.5,82.6925,-1754.16,0,0
65188.9,86.5236,-1748.41,0,0
65449.2,89.3012,-1744.36,0,0
65709.5,91.1194,-1739.72,0,0
65969.8,94.2657,-1738.14,0,0
66230.2,92.0963,-1737.91,0,0
66490.5,87.7981,-1734.93,0,0
66750.8,81.3582,-1728.86,0,0
67011.1,79.0437,-1719.68,0,0
67271.5,77.7283,-1712.08,0,0
67531.8,76.1162,-1703.98,0,0
67792.1,75.9813,-1696.09,0,0
68052.4,76.3428,-1688.18,0,0
68312.8,77.1612,-1681.74,0,0
68573.1,77.0766,-1675.77,0,0
68833.4,76.8755,-1669.26,0,0
69093.7,77.2436,-1663.18,0,0
69354.1,77.3017,-1657.63,0,0
69614.4,76.7801,-1652.55,0,0
69874.7,75.7113,-1646.74,0,0
70135,74.3925,-1641.09,0,0
70395.4,73.2339,-1634.87,0,0
70655.7,72.1273,-1628.6,0,0
70916,70.9498,-1622.07,0,0
71176.3,70.3609,-1615.4,0,0
71436.7,69.4281,-1609.01,0,0
71697,68.9138,-1602.12,0,0
71957.3,68.8094,-1595.55,0,0
72217.6,68.804,-1589.34,0,0
72478,68.7097,-1583.27,0,0
72738.3,68.6636,-1577.54,0,0
72998.6,68.2766,-1571.92,0,0
73258.9,67.702,-1566.22,0,0
73519.3,67.2205,-1560.42,0,0
73779.6,66.6994,-1554.73,0,0
74039.9,66.0313,-1549.13,0,0
74300.225,65.2807,-1543.33,0,0
74560.55,64.5743,-1537.54,0,0
74820.875,63.9286,-1531.77,0,0
75081.2,63.1844,-1525.93,0,0
75341.525,62.5022,-1519.94,0,0
75601.85,61.964,-1514.24,0,0
75862.175,61.2902,-1508.44,0,0
76122.5,60.6788,-1502.51,0,0
76382.825,60.2148,-1496.58,0,0
76643.15,59.734,-1490.77,0,0
76903.475,59.323,-1484.96,0,0
77163.8,58.9731,-1479.19,0,0
77424.125,58.6319,-1473.46,0,0
77684.45,58.1652,-1467.81,0,0
77944.775,57.717,-1462.14,0,0
78205.1,57.413,-1456.56,0,0
78465.425,57.001,-1450.92,0,0
78725.75,56.6837,-1445.26,0,0
78986.075,56.3868,-1439.71,0,0
79246.4,56.0478,-1434.1,0,0
79506.725,55.7619,-1428.62,0,0
79767.05,55.4805,-1423.07,0,0
80027.375,55.2814,-1417.51,0,0
80287.7,55.0519,-1412.07,0,0
80548.025,54.8912,-1406.63,0,0
80808.35,54.7438,-1401.29,0,0
81068.675,54.5213,-1395.91,0,0
81329.0,54.3884,-1390.61,0,0
81589.325,54.2414,-1385.21,0,0
81849.65,54.1549,-1379.97,0,0
82109.975,54.023,-1374.69,0,0
82370.3,53.8941,-1369.41,0,0
82630.625,53.8445,-1364.28,0,0
82890.95,53.7655,-1359.1,0,0
83151.275,53.7325,-1353.98,0,0
83411.6,53.7179,-1348.88,0,0
83671.925,53.6866,-1343.79,0,0
83932.25,53.6848,-1338.71,0,0
84192.575,53.6324,-1333.74,0,0
84452.9,53.6837,-1328.73,0,0
84713.225,53.5894,-1323.8,0,0
84973.55,53.5838,-1318.84,0,0
85233.875,53.6382,-1313.92,0,0
85494.2,53.7425,-1309.03,0,0
85754.525,53.7929,-1304.14,0,0
86014.85,53.8237,-1299.36,0,0
86275.175,53.9422,-1294.51,0,0
86535.5,54.034,-1289.72,0,0
86795.825,54.0229,-1284.99,0,0
87056.15,54.0241,-1280.16,0,0
87316.475,54.1399,-1275.48,0,0
87576.8,54.4119,-1270.66,0,0
87837.125,54.5328,-1266.04,0,0
88097.45,54.6667,-1261.33,0,0
88357.775,54.7861,-1256.76,0,0
88618.1,54.8471,-1251.9,0,0
88878.425,55.2241,-1246.99,0,0
89138.75,55.6682,-1242.43,0,0
89399.075,56.1582,-1237.86,0,0
89659.4,56.6788,-1233.3,0,0
89919.725,57.262,-1228.9,0,0
90180,57.8745,-1224.62,0,0
90440.4,58.1974,-1220.47,0,0
90700.7,58.6867,-1216.18,0,0
90961,59.261,-1211.88,0,0
91221.3,59.833,-1207.71,0,0
91481.7,60.5136,-1203.72,0,0
91742,61.1377,-1199.75,0,0
92002.3,61.7107,-1195.74,0,0
92262.6,62.5201,-1191.95,0,0
92523,63.2713,-1188.34,0,0
92783.3,63.8208,-1184.82,0,0
93043.6,64.4376,-1181.34,0,0
93303.9,65.117,-1177.96,0,0
93564.3,65.738,-1174.81,0,0
93824.6,66.3463,-1171.89,0,0
94084.9,66.5097,-1169.29,0,0
94345.2,66.5429,-1166.69,0,0
94605.6,66.2594,-1164.24,0,0
94865.9,65.5883,-1161.89,0,0
95126.2,63.9174,-1159.26,0,0
95386.5,62.1398,-1155.49,0,0
95646.9,60.978,-1151.1,0,0
95907.2,60.2943,-1146.89,0,0
96167.5,59.6437,-1142.53,0,0
96427.8,59.4731,-1138.12,0,0
96688.2,59.4833,-1134.05,0,0
96948.5,59.3451,-1130.15,0,0
97208.8,59.2738,-1126.12,0,0
97469.1,59.3518,-1122.3,0,0
97729.5,59.3064,-1118.55,0,0
97989.8,59.2006,-1114.86,0,0
98250.1,59.1001,-1111.13,0,0
98510.4,58.9839,-1107.45,0,0
98770.8,58.8499,-1103.78,0,0
99031.1,58.7171,-1100.11,0,0
99291.4,58.4894,-1096.55,0,0
99551.7,58.1646,-1092.81,0,0
99812.1,57.8964,-1088.99,0,0
100072,57.6968,-1085.14,0,0
100333,57.4933,-1081.34,0,0
100593,57.2878,-1077.39,0,0
100853,57.1143,-1073.44,0,0
101114,56.9993,-1069.36,0,0
101374,57.0619,-1065.19,0,0
101634,57.294,-1061.11,0,0
101895,57.5634,-1057.08,0,0
102155,57.9128,-1053.03,0,0
102415,58.4973,-1048.93,0,0
102676,59.3949,-1045.07,0,0
102936,60.2914,-1041.58,0,0
103196,60.994,-1038.3,0,0
103457,61.6421,-1034.93,0,0
103717,62.2128,-1031.72,0,0
103977,62.8605,-1028.3,0,0
104238,63.9992,-1025.19,0,0
104498,64.9489,-1022.79,0,0
104758,65.2234,-1020.62,0,0
105019,65.1595,-1018.28,0,0
105279,64.982,-1015.56,0,0
105539,64.8955,-1012.8,0,0
105800,64.7532,-1010.27,0,0
106060,64.1706,-1007.71,0,0
106320.175,63.5339,-1004.63,0,0
106580.5,63.0808,-1001.59,0,0
106840.825,62.4688,-998.506,0,0
107101.15,61.8497,-995.258,0,0
107361.475,61.2706,-991.849,0,0
107621.8,60.8307,-988.364,0,0
107882.125,60.3808,-984.777,0,0
108142.45,60.1621,-981.185,0,0
108402.775,59.8182,-977.74,0,0
108663.1,59.4667,-974.09,0,0
108923.425,59.2984,-970.276,0,0
109183.75,59.1561,-966.524,0,0
109444.075,59.1599,-962.723,0,0
109704.4,59.356,-959.018,0,0
109964.725,59.4863,-955.236,0,0
110225.05,59.6113,-951.518,0,0
110485.375,59.9682,-947.641,0,0
110745.7,60.5043,-943.947,0,0
111006.025,61.1937,-940.347,0,0
111266.35,61.7705,-936.875,0,0
111526.675,62.2238,-933.773,0,0
111787.0,62.9444,-930.542,0,0
112047.325,63.3749,-927.279,0,0
112307.65,63.9174,-924.041,0,0
112567.975,64.3472,-920.964,0,0
112828.3,64.6819,-917.811,0,0
113088.625,65.0464,-914.597,0,0
113348.95,65.4559,-911.419,0,0
113609.275,65.8104,-908.232,0,0
113869.6,66.2267,-904.939,0,0
114129.925,66.8399,-901.661,0,0
114390.25,67.3704,-898.39,0,0
114650.575,67.8161,-895.156,0,0
114910.9,68.5201,-891.95,0,0
115171.225,69.1287,-888.734,0,0
115431.55,69.8777,-885.536,0,0
115691.875,70.5226,-882.372,0,0
115952.2,71.3506,-879.316,0,0
116212.525,72.054,-876.199,0,0
116472.85,72.8615,-872.987,0,0
116733.175,73.9361,-869.878,0,0
116993.5,74.8415,-866.997,0,0
117253.825,75.7735,-864.012,0,0
117514.15,76.9029,-860.932,0,0
117774.475,78.2395,-858.02,0,0
118034.8,79.6374,-855.198,0,0
118295.125,81.3733,-852.773,0,0
118555.45,82.801,-850.703,0,0
118815.775,83.9543,-848.713,0,0
119076.1,84.8488,-846.528,0,0
119336.425,86.2727,-844.231,0,0
119596.75,87.9778,-842.462,0,0
119857.075,89.5157,-841.373,0,0
120117.4,90.2924,-840.81,0,0
120377.725,90.256,-839.894,0,0
120638.05,90.1472,-838.474,0,0
120898.375,90.106,-836.956,0,0
121158.7,89.9166,-835.617,0,0
121419.025,89.2502,-834,0,0
121679.35,88.6023,-831.891,0,0
121939.675,88.1316,-829.498,0,0
122200.0,87.9434,-826.968,0,0
122460,87.892,-824.511,0,0
122721,87.9642,-822.088,0,0
122981,88.1135,-819.652,0,0
123241,88.4117,-817.413,0,0
123502,88.5457,-815.331,0,0
123762,88.5951,-813.158,0,0
124022,88.6642,-810.933,0,0
124283,88.7943,-808.712,0,0
124543,88.9465,-806.603,0,0
124803,88.9923,-804.523,0,0
125064,89.0987,-802.484,0,0
125324,89.091,-800.484,0,0
125584,89.0142,-798.498,0,0
125845,88.9563,-796.494,0,0
126105,88.7407,-794.553,0,0
126365,88.4999,-792.529,0,0
126626,88.1659,-790.441,0,0
126886,87.7538,-788.33,0,0
127146,87.3806,-786.172,0,0
127406,86.8617,-783.962,0,0
127667,86.3526,-781.613,0,0
127927,85.8772,-779.207,0,0
128187,85.421,-776.622,0,0
128448,84.8897,-774.133,0,0
128708,84.4113,-771.371,0,0
128968,84.1546,-768.561,0,0
129229,83.9323,-765.805,0,0
129489,83.742,-762.991,0,0
129749,83.654,-760.105,0,0
130010,83.6798,-757.152,0,0
130270,83.978,-754.229,0,0
130530,84.4155,-751.58,0,0
130791,84.9162,-749.156,0,0
131051,85.188,-747.059,0,0
131311,85.2175,-744.84,0,0
131572,85.2618,-742.534,0,0
131832,85.2483,-740.374,0,0
132092,85.0542,-738.151,0,0
132353,84.7521,-735.701,0,0
132613,84.7084,-733.162,0,0
132873,84.6895,-730.75,0,0
133134,84.5633,-728.514,0,0
133394,84.329,-726.172,0,0
133654,84.0448,-723.784,0,0
133915,83.7025,-721.265,0,0
134175,83.4251,-718.701,0,0
134435,83.183,-716.159,0,0
134696,82.87,-713.577,0,0
134956,82.475,-710.91,0,0
135216,82.1816,-708.133,0,0
135477,82.0218,-705.39,0,0
135737,81.6504,-702.636,0,0
135997,81.4024,-699.766,0,0
136258,81.1091,-696.827,0,0
136518,80.8812,-693.788,0,0
136778,80.7436,-690.634,0,0
137039,80.8356,-687.424,0,0
137299,81.0828,-684.391,0,0
137559,81.349,-681.503,0,0
137819,81.5219,-678.626,0,0
138080,81.7634,-675.655,0,0
138340.125,82.1672,-672.782,0,0
138600.45,82.5702,-670.232,0,0
138860.775,82.6221,-667.816,0,0
139121.1,82.5312,-665.116,0,0
139381.425,82.5472,-662.388,0,0
139641.75,82.4428,-659.639,0,0
139902.075,82.2902,-656.772,0,0
140162.4,82.182,-653.766,0,0
140422.725,82.1967,-650.707,0,0
140683.05,82.3166,-647.674,0,0
140943.375,82.4432,-644.719,0,0
141203.7,82.4735,-641.791,0,0
141464.025,82.4655,-638.858,0,0
141724.35,82.3445,-635.809,0,0
141984.675,82.2897,-632.585,0,0
142245.0,82.3777,-629.327,0,0
142505.325,82.4662,-626.143,0,0
142765.65,82.4552,-622.813,0,0
143025.975,82.5582,-619.43,0,0
143286.3,82.7376,-616.027,0,0
143546.625,82.907,-612.569,0,0
143806.95,83.1829,-609.051,0,0
144067.275,83.5667,-605.526,0,0
144327.6,83.8921,-602.05,0,0
144587.925,84.2765,-598.531,0,0
144848.25,84.6597,-594.965,0,0
145108.575,85.0917,-591.343,0,0
145368.9,85.5587,-587.714,0,0
145629.225,86.041,-584.008,0,0
145889.55,86.6026,-580.236,0,0
146149.875,87.2022,-576.41,0,0
146410.2,87.8909,-572.512,0,0
146670.525,88.6829,-568.583,0,0
146930.85,89.5571,-564.638,0,0
147191.175,90.5256,-560.656,0,0
147451.5,91.5863,-556.657,0,0
147711.825,92.7293,-552.693,0,0
147972.15,93.9285,-548.632,0,0
148232.475,95.2484,-544.583,0,0
148492.8,96.6681,-540.508,0,0
148753.125,98.1863,-536.434,0,0
149013.45,99.8386,-532.326,0,0
149273.775,101.632,-528.215,0,0
149534.1,103.589,-524.13,0,0
149794.425,105.659,-520.094,0,0
150054.75,107.908,-516.079,0,0
150315.075,110.385,-512.124,0,0
150575.4,113.075,-508.404,0,0
150835.725,115.77,-504.916,0,0
151096.05,118.538,-501.528,0,0
151356.375,121.397,-498.35,0,0
151616.7,124.171,-495.429,0,0
151877.025,126.835,-492.642,0,0
152137.35,129.418,-489.827,0,0
152397.675,132.097,-487.07,0,0
152658.0,134.793,-484.521,0,0
152918.325,137.439,-482.18,0,0
153178.65,139.84,-480.086,0,0
153438.975,141.889,-477.905,0,0
153699.3,143.833,-475.58,0,0
153959.625,145.729,-473.076,0,0
154219.95,147.871,-470.615,0,0
154480,149.735,-468.591,0,0
154741,150.832,-466.213,0,0
155001,151.9,-463.094,0,0
155261,153.41,-459.37,0,0
155522,155.719,-455.674,0,0
155782,158.216,-452.583,0,0
156042,160.266,-449.64,0,0
156303,162.233,-446.238,0,0
156563,164.419,-442.588,0,0
156823,167.001,-438.91,0,0
157084,169.94,-435.28,0,0
157344,173.173,-431.792,0,0
157604,176.607,-428.785,0,0
157864,179.855,-426.085,0,0
158125,183.201,-423.787,0,0
158385,185.928,-421.721,0,0
158645,188.106,-419.716,0,0
158906,189.519,-416.951,0,0
159166,191.641,-413.385,0,0
159426,193.679,-410.342,0,0
159687,194.996,-406.614,0,0
159947,196.684,-401.65,0,0
160207,199.266,-396.298,0,0
160468,202.164,-390.579,0,0
160728,206.058,-384.043,0,0
160988,211.631,-377.896,0,0
161249,217.843,-373.26,0,0
161509,223.176,-369.124,0,0
161769,228.488,-363.723,0,0
162030,235.735,-358.005,0,0
162290,243.999,-353.584,0,0
162550,252.625,-350.329,0,0
162811,260.825,-347.74,0,0
163071,269.126,-345.435,0,0
163331,277.469,-343.409,0,0
163592,286.048,-341.677,0,0
163852,294.978,-340.309,0,0
164112,303.981,-339.773,0,0
164373,312.751,-339.13,0,0
164633,322.687,-338.266,0,0
164893,333.937,-338.667,0,0
165154,345.564,-341.281,0,0
165414,355.992,-345.891,0,0
165674,364.912,-350.95,0,0
165935,373.485,-355.968,0,0
166195,381.981,-361.585,0,0
166455,389.7,-368.274,0,0
166716,396.669,-375.364,0,0
166976,402.773,-383.014,0,0
167236,407.7,-390.859,0,0
167497,411.898,-398.517,0,0
167757,415.689,-406.014,0,0
168017,419.184,-413.798,0,0
168277,421.869,-422.536,0,0
168538,422.613,-431.397,0,0
168798,421.948,-438.686,0,0
169058,421.956,-444.52,0,0
169319,423.065,-451.2,0,0
169579,423.083,-459.862,0,0
169839,419.881,-468.638,0,0
170100,414.434,-474.683,0,0
170360.075,409.618,-478.033,0,0
170620.4,405.879,-480.67,0,0
170880.725,402.212,-483.03,0,0
171141.05,398.209,-484.662,0,0
171401.375,394.65,-484.756,0,0
171661.7,392.568,-484.127,0,0
171922.025,391.232,-483.82,0,0
172182.35,390.237,-483.304,0,0
172442.675,389.934,-482.71,0,0
172703.0,390.295,-482.256,0,0
172963.325,391.22,-482.27,0,0
173223.65,392.269,-482.827,0,0
173483.975,393.261,-483.517,0,0
173744.3,394.732,-483.908,0,0
174004.625,397.359,-484.982,0,0
174264.95,400.095,-487.961,0,0
174525.275,401.439,-491.826,0,0
174785.6,401.849,-495.759,0,0
175045.925,401.625,-499.405,0,0
175306.25,401.262,-502.844,0,0
175566.575,400.753,-506.771,0,0
175826.9,399.024,-511.203,0,0
176087.225,395.938,-514.706,0,0
176347.55,392.874,-516.671,0,0
176607.875,390.841,-518.36,0,0
176868.2,388.883,-520.803,0,0
177128.525,386.134,-523.441,0,0
177388.85,382.625,-525.645,0,0
177649.175,378.985,-527.416,0,0
177909.5,374.582,-529.204,0,0
178169.825,369.067,-529.701,0,0
178430.15,363.75,-528.28,0,0
178690.475,359.559,-525.672,0,0
178950.8,356.713,-522.642,0,0
179211.125,354.815,-520.196,0,0
179471.45,352.678,-518.168,0,0
179731.775,350.404,-515.42,0,0
179992.1,348.908,-511.938,0,0
180252.425,348.529,-508.249,0,0
180512.75,349.452,-505.237,0,0
180773.075,350.787,-503.402,0,0
181033.4,351.819,-502.176,0,0
181293.725,352.767,-501.175,0,0
181554.05,354.127,-500.401,0,0
181814.375,355.715,-500.86,0,0
182074.7,356.366,-502.646,0,0
182335.025,355.29,-504.789,0,0
182595.35,352.986,-505.93,0,0
182855.675,350.361,-506.051,0,0
183116.0,347.776,-505.494,0,0
183376.325,345.345,-504.461,0,0
183636.65,343.062,-503.087,0,0
183896.975,340.795,-501.283,0,0
184157.3,338.758,-499.366,0,0
184417.625,336.714,-497.23,0,0
184677.95,334.743,-494.776,0,0
184938.275,332.851,-491.879,0,0
185198.6,331.383,-488.54,0,0
185458.925,330.276,-485.271,0,0
185719.25,329.304,-481.837,0,0
185979.575,328.464,-478.24,0,0
186239.9,327.833,-474.268,0,0
186500,327.664,-469.965,0,0
186761,328.096,-465.443,0,0
187021,329.459,-461.02,0,0
187281,331.277,-457.174,0,0
187542,333.089,-453.943,0,0
187802,335.029,-450.837,0,0
188062,337.103,-447.725,0,0
188322,339.555,-444.823,0,0
188583,342.189,-442.905,0,0
188843,344.104,-441.539,0,0
189103,345.443,-440.004,0,0
189364,346.374,-437.944,0,0
189624,347.486,-435.387,0,0
189884,349.109,-432.731,0,0
190145,350.953,-430.19,0,0
190405,352.86,-427.716,0,0
190665,354.993,-425.58,0,0
190926,356.85,-423.651,0,0
191186,358.307,-421.554,0,0
191446,359.63,-419.017,0,0
191707,361.34,-416.107,0,0
191967,363.431,-413.274,0,0
192227,365.571,-410.576,0,0
192488,367.472,-407.613,0,0
192748,369.566,-404.177,0,0
193008,372.225,-400.427,0,0
193269,375.507,-396.599,0,0
193529,379.281,-393.014,0,0
193789,383.243,-389.388,0,0
194050,387.793,-385.65,0,0
194310,393.286,-381.966,0,0
194570,399.63,-378.991,0,0
194831,406.522,-376.646,0,0
195091,413.936,-375.412,0,0
195351,421.174,-375.419,0,0
195612,428.2,-376.067,0,0
195872,434.906,-377.581,0,0
196132,440.867,-379.84,0,0
196393,446.29,-382.131,0,0
196653,451.555,-384.721,0,0
196913,456.654,-388.052,0,0
197174,460.456,-392.209,0,0
197434,463.098,-395.955,0,0
197694,465.507,-399.617,0,0
197955,467.243,-402.793,0,0
198215,468.544,-405.901,0,0
198475,468.993,-408.8,0,0
198735,468.521,-410.718,0,0
198996,468.172,-411.106,0,0
199256,468.803,-410.743,0,0
199516,470.279,-410.525,0,0
199777,472.084,-410.679,0,0
200037,473.622,-411.558,0,0
200297,474.038,-412.306,0,0
200558,473.983,-411.737,0,0
200818,474.737,-410.15,0,0
201078,476.358,-408.454,0,0
201339,478.26,-406.921,0,0
201599,480.159,-405.264,0,0
201859,482.243,-403.116,0,0
202120,485.02,-400.415,0,0
202380.025,488.811,-397.581,0,0
202640.35,493.53,-395.186,0,0
202900.675,498.761,-393.271,0,0
203161.0,504.464,-391.68,0,0
203421.325,510.762,-390.584,0,0
203681.65,517.549,-390.411,0,0
203941.975,524.344,-391.301,0,0
204202.3,530.824,-392.666,0,0
204462.625,537.014,-394.5,0,0
204722.95,543.356,-396.562,0,0
204983.275,549.689,-399.467,0,0
205243.6,555.491,-403.305,0,0
205503.925,560.379,-407.698,0,0
205764.25,564.28,-412.174,0,0
206024.575,567.341,-416.477,0,0
206284.9,569.626,-420.157,0,0
206545.225,571.54,-422.962,0,0
206805.55,573.709,-425.042,0,0
207065.875,576.182,-426.873,0,0
207326.2,578.742,-428.458,0,0
207586.525,581.448,-429.681,0,0
207846.85,584.5,-430.298,0,0
208107.175,588.39,-430.572,0,0
208367.5,593.152,-431.028,0,0
208627.825,598.536,-432.054,0,0
208888.15,604.163,-433.537,0,0
209148.475,610.159,-435.358,0,0
209408.8,616.546,-437.721,0,0
209669.125,623.042,-440.811,0,0
209929.45,629.469,-444.438,0,0
210189.775,635.81,-448.549,0,0
210450.1,642.121,-453.084,0,0
210710.425,648.318,-458.228,0,0
210970.75,654.191,-463.876,0,0
211231.075,659.609,-469.797,0,0
211491.4,664.85,-475.86,0,0
211751.725,669.738,-482.331,0,0
212012.05,674.408,-488.902,0,0
212272.375,678.773,-495.382,0,0
212532.7,683.219,-501.9,0,0
212793.025,687.833,-508.615,0,0
213053.35,692.462,-515.923,0,0
213313.675,696.808,-523.696,0,0
213574.0,700.869,-531.847,0,0
213834.325,704.607,-540.285,0,0
214094.65,708.082,-549.278,0,0
214354.975,710.819,-558.541,0,0
214615.3,713.037,-567.707,0,0
214875.625,715.096,-576.92,0,0
215135.95,716.847,-586.58,0,0
215396.275,717.91,-596.264,0,0
215656.6,718.635,-605.604,0,0
215916.925,719.399,-615.169,0,0
216177.25,719.993,-625.062,0,0
216437.575,720.171,-635.611,0,0
216697.9,719.463,-646.755,0,0
216958.225,717.339,-657.997,0,0
217218.55,714.031,-668.24,0,0
217478.875,710.731,-677.528,0,0
217739.2,707.572,-686.625,0,0
217999.525,703.949,-695.88,0,0
218259.85,699.871,-704.903,0,0
218520,695.487,-713.728,0,0
218780,690.326,-722.219,0,0
219041,684.732,-729.66,0,0
219301,679.166,-736.194,0,0
219561,674.135,-742.218,0,0
219822,669.587,-747.975,0,0
220082,665.951,-753.539,0,0
220342,662.662,-760.107,0,0
220603,659.092,-767.865,0,0
220863,654.265,-775.994,0,0
221123,648.577,-783.921,0,0
221384,642.232,-791.458,0,0
221644,635.543,-798.524,0,0
221904,628.219,-805.416,0,0
222165,620.218,-811.597,0,0
222425,612.214,-817.149,0,0
222685,604.042,-822.146,0,0
222946,595.477,-826.943,0,0
223206,586.342,-831.052,0,0
223466,576.88,-833.924,0,0
223727,567.643,-835.804,0,0
223987,558.902,-836.478,0,0
224247,550.864,-836.431,0,0
224508,543.663,-835.825,0,0
224768,537.347,-834.912,0,0
225028,531.679,-833.994,0,0
225289,527.109,-833.078,0,0
225549,523.299,-832.346,0,0
225809,520.066,-832.351,0,0
226070,517.286,-832.893,0,0
226330,514.654,-834.415,0,0
226590,511.809,-836.618,0,0
226851,508.383,-839.295,0,0
227111,504.289,-842.193,0,0
227371,499.981,-844.851,0,0
227632,495.359,-847.578,0,0
227892,490.575,-850.182,0,0
228152,485.618,-852.755,0,0
228413,480.388,-855.5,0,0
228673,474.749,-858.163,0,0
228933,468.606,-860.521,0,0
229193,462.351,-862.519,0,0
229454,456.004,-864.026,0,0
229714,449.497,-865.304,0,0
229974,443.055,-866.236,0,0
230235,436.677,-866.986,0,0
230495,430.359,-867.496,0,0
230755,423.912,-867.695,0,0
231016,417.536,-867.594,0,0
231276,411.296,-867.221,0,0
231536,405.283,-866.586,0,0
231797,399.415,-865.813,0,0
232057,393.807,-864.913,0,0
232317,388.331,-864.033,0,0
232578,382.928,-863.05,0,0
232838,377.61,-862.11,0,0
233098,372.334,-861.056,0,0
233359,367.187,-859.892,0,0
233619,362.139,-858.651,0,0
233879,357.273,-857.476,0,0
234140,352.279,-856.361,0,0
234400,347.258,-855.173,0,0
234660.3,342.197,-853.769,0,0
234920.625,337.254,-852.344,0,0
235180.95,332.359,-850.877,0,0
235441.275,327.403,-849.389,0,0
235701.6,322.317,-847.894,0,0
235961.925,317.153,-846.073,0,0
236222.25,312.005,-844.03,0,0
236482.575,306.995,-841.749,0,0
236742.9,302.108,-839.309,0,0
237003.225,297.325,-836.756,0,0
237263.55,292.703,-834.061,0,0
237523.875,288.106,-831.29,0,0
237784.2,283.503,-828.429,0,0
238044.525,279.073,-825.242,0,0
238304.85,274.721,-821.95,0,0
238565.175,270.506,-818.445,0,0
238825.5,266.605,-814.711,0,0
239085.825,262.837,-810.904,0,0
239346.15,259.401,-806.92,0,0
239606.475,256.277,-802.934,0,0
239866.8,253.235,-798.933,0,0
240127.125,250.673,-794.978,0,0
240387.45,248.203,-791.072,0,0
240647.775,245.731,-787.111,0,0
240908.1,243.639,-783.155,0,0
241168.425,241.841,-779.241,0,0
241428.75,240.072,-775.583,0,0
241689.075,238.479,-771.922,0,0
241949.4,236.997,-768.03,0,0
242209.725,235.753,-764.316,0,0
242470.05,234.911,-760.706,0,0
242730.375,234.157,-757.429,0,0
242990.7,233.472,-754.31,0,0
243251.025,232.697,-751.245,0,0
243511.35,232.183,-748.226,0,0
243771.675,231.878,-745.409,0,0
244032.0,231.681,-742.867,0,0
244292.325,231.388,-740.664,0,0
244552.65,230.955,-738.616,0,0
244812.975,230.273,-736.76,0,0
245073.3,229.531,-734.724,0,0
245333.625,228.694,-732.753,0,0
245593.95,227.937,-730.649,0,0
245854.275,227.057,-728.498,0,0
246114.6,226.389,-726.441,0,0
246374.925,225.804,-724.475,0,0
246635.25,225.067,-722.585,0,0
246895.575,224.354,-720.762,0,0
247155.9,223.583,-718.867,0,0
247416.225,222.792,-716.964,0,0
247676.55,222.004,-715.037,0,0
247936.875,221.238,-713.136,0,0
248197.2,220.56,-711.032,0,0
248457.525,220.033,-708.992,0,0
248717.85,219.66,-707.039,0,0
248978.175,219.277,-705.287,0,0
249238.5,218.873,-703.617,0,0
249498.825,218.393,-702.006,0,0
249759.15,218.018,-700.434,0,0
250019.475,217.579,-698.943,0,0
250279.8,217.124,-697.638,0,0
250540,216.557,-696.358,0,0
250800,215.766,-695.213,0,0
251061,214.949,-693.948,0,0
251321,213.902,-692.705,0,0
251581,212.735,-691.405,0,0
251842,211.464,-689.898,0,0
252102,210.141,-688.357,0,0
252362,208.726,-686.558,0,0
252623,207.241,-684.526,0,0
252883,205.875,-682.321,0,0
253143,204.589,-679.883,0,0
253404,203.431,-677.274,0,0
253664,202.392,-674.44,0,0
253924,201.655,-671.517,0,0
254185,201.083,-668.57,0,0
254445,200.786,-665.566,0,0
254705,200.61,-662.645,0,0
254966,200.67,-659.506,0,0
255226,200.724,-656.503,0,0
255486,201.168,-653.344,0,0
255747,201.834,-650.193,0,0
256007,202.904,-647.068,0,0
256267,204.322,-644.183,0,0
256528,205.943,-641.556,0,0
256788,207.758,-639.186,0,0
257048,209.672,-637.025,0,0
257309,211.747,-635.182,0,0
257569,213.837,-633.689,0,0
257829,215.905,-632.53,0,0
258090,217.768,-631.582,0,0
258350,219.467,-630.762,0,0
258610,221.019,-629.908,0,0
258871,222.623,-628.949,0,0
259131,224.318,-628.008,0,0
259391,226.222,-627.053,0,0
259651,228.466,-626.323,0,0
259912,230.882,-625.95,0,0
260172,233.368,-626.013,0,0
260432,235.762,-626.39,0,0
260693,237.993,-627.06,0,0
260953,240.208,-627.984,0,0
261213,242.368,-629.283,0,0
261474,244.29,-630.984,0,0
261734,245.944,-633.039,0,0
261994,247.205,-635.418,0,0
262255,248.065,-638.035,0,0
262515,248.408,-640.769,0,0
262775,248.249,-643.538,0,0
263036,247.618,-646.175,0,0
263296,246.594,-648.69,0,0
263556,245.22,-650.977,0,0
263817,243.561,-653.039,0,0
264077,241.672,-654.788,0,0
264337,239.613,-656.414,0,0
264598,237.431,-657.731,0,0
264858,235.107,-658.909,0,0
265118,232.612,-659.867,0,0
265379,229.833,-660.537,0,0
265639,227.041,-660.78,0,0
265899,224.217,-660.705,0,0
266160,221.46,-660.3,0,0
266420,218.845,-659.73,0,0
266680.25,216.244,-658.884,0,0
266940.575,213.711,-657.82,0,0
267200.9,211.348,-656.463,0,0
267461.225,209.146,-654.88,0,0
267721.55,207.203,-653.137,0,0
267981.875,205.467,-651.28,0,0
268242.2,203.94,-649.284,0,0
268502.525,202.655,-647.33,0,0
268762.85,201.577,-645.347,0,0
269023.175,200.663,-643.348,0,0
269283.5,199.907,-641.371,0,0
269543.825,199.225,-639.455,0,0
269804.15,198.85,-637.531,0,0
270064.475,198.498,-635.733,0,0
270324.8,198.216,-633.934,0,0
270585.125,198.098,-632.099,0,0
270845.45,198.191,-630.403,0,0
271105.775,198.375,-628.743,0,0
271366.1,198.685,-627.245,0,0
271626.425,198.978,-625.89,0,0
271886.75,199.382,-624.607,0,0
272147.075,199.799,-623.439,0,0
272407.4,200.112,-622.357,0,0
272667.725,200.582,-621.34,0,0
272928.05,201.027,-620.465,0,0
273188.375,201.376,-619.662,0,0
273448.7,201.693,-618.87,0,0
273709.025,201.919,-618.04,0,0
273969.35,202.216,-617.129,0,0
274229.675,202.609,-616.151,0,0
274490.0,203.134,-615.191,0,0
274750.325,203.899,-614.285,0,0
275010.65,204.647,-613.489,0,0
275270.975,205.511,-612.846,0,0
275531.3,206.397,-612.279,0,0
275791.625,207.436,-611.752,0,0
276051.95,208.558,-611.381,0,0
276312.275,209.798,-611.183,0,0
276572.6,211.051,-611.25,0,0
276832.925,212.404,-611.508,0,0
277093.25,213.729,-612.116,0,0
277353.575,214.941,-612.99,0,0
277613.9,215.979,-614.144,0,0
277874.225,216.775,-615.485,0,0
278134.55,217.381,-617.028,0,0
278394.875,217.731,-618.718,0,0
278655.2,217.849,-620.488,0,0
278915.525,217.711,-622.406,0,0
279175.85,217.208,-624.397,0,0
279436.175,216.351,-626.401,0,0
279696.5,215.061,-628.289,0,0
279956.825,213.471,-630.012,0,0
280217.15,211.661,-631.399,0,0
280477.475,209.589,-632.483,0,0
280737.8,207.454,-633.247,0,0
280998.125,205.353,-633.694,0,0
281258.45,203.399,-633.989,0,0
281518.775,201.467,-634.205,0,0
281779.1,199.515,-634.31,0,0
282039.425,197.604,-634.343,0,0
282299.75,195.664,-634.271,0,0
282560,193.649,-634.155,0,0
282820,191.629,-633.827,0,0
283081,189.569,-633.342,0,0
283341,187.557,-632.665,0,0
283601,185.623,-631.833,0,0
283862,183.821,-630.886,0,0
284122,182.123,-629.823,0,0
284382,180.521,-628.696,0,0
284643,179.014,-627.596,0,0
284903,177.547,-626.446,0,0
285163,176.081,-625.21,0,0
285424,174.65,-623.905,0,0
285684,173.313,-622.48,0,0
285944,172.062,-621.011,0,0
286205,170.901,-619.433,0,0
286465,169.794,-617.788,0,0
286725,168.822,-616.029,0,0
286986,167.999,-614.18,0,0
287246,167.413,-612.239,0,0
287506,167.01,-610.325,0,0
287767,166.845,-608.477,0,0
288027,166.831,-606.68,0,0
288287,166.996,-604.972,0,0
288548,167.319,-603.375,0,0
288808,167.786,-601.937,0,0
289068,168.366,-600.717,0,0
289329,168.993,-599.725,0,0
289589,169.555,-598.881,0,0
289849,170.055,-598.198,0,0
290109,170.464,-597.629,0,0
290370,170.853,-597.042,0,0
290630,171.225,-596.582,0,0
290890,171.535,-596.167,0,0
291151,171.785,-595.79,0,0
291411,171.956,-595.519,0,0
291671,172.072,-595.216,0,0
291932,172.087,-594.914,0,0
292192,172.087,-594.559,0,0
292452,172.061,-594.12,0,0
292713,172.055,-593.664,0,0
292973,172.099,-593.159,0,0
293233,172.247,-592.597,0,0
293494,172.49,-592.007,0,0
293754,172.871,-591.495,0,0
294014,173.359,-591.111,0,0
294275,173.877,-590.815,0,0
294535,174.436,-590.622,0,0
294795,175.104,-590.551,0,0
295056,175.785,-590.634,0,0
295316,176.543,-590.927,0,0
295576,177.224,-591.48,0,0
295837,177.781,-592.233,0,0
296097,178.138,-593.133,0,0
296357,178.321,-594.119,0,0
296618,178.373,-595.181,0,0
296878,178.259,-596.309,0,0
297138,177.96,-597.488,0,0
297399,177.469,-598.717,0,0
297659,176.772,-599.934,0,0
297919,175.878,-601.111,0,0
298180,174.764,-602.232,0,0
298440,173.468,-603.202,0,0
298700.2,172.034,-604.019,0,0
298960.525,170.538,-604.664,0,0
299220.85,169.015,-605.157,0,0
299481.175,167.48,-605.523,0,0
299741.5,165.926,-605.798,0,0
300001.825,164.35,-606.008,0,0
300262.15,162.762,-606.102,0,0
300522.475,161.181,-606.111,0,0
300782.8,159.564,-606.044,0,0
301043.125,157.954,-605.888,0,0
301303.45,156.36,-605.66,0,0
301563.775,154.738,-605.335,0,0
301824.1,153.173,-604.896,0,0
302084.425,151.607,-604.401,0,0
302344.75,150.112,-603.816,0,0
302605.075,148.653,-603.154,0,0
302865.4,147.265,-602.458,0,0
303125.725,145.921,-601.717,0,0
303386.05,144.624,-600.955,0,0
303646.375,143.345,-600.18,0,0
303906.7,142.099,-599.351,0,0
304167.025,140.875,-598.471,0,0
304427.35,139.729,-597.546,0,0
304687.675,138.636,-596.581,0,0
304948.0,137.603,-595.637,0,0
305208.325,136.65,-594.665,0,0
305468.65,135.705,-593.702,0,0
305728.975,134.798,-592.766,0,0
305989.3,133.914,-591.8,0,0
306249.625,133.038,-590.82,0,0
306509.95,132.223,-589.803,0,0
306770.275,131.473,-588.766,0,0
307030.6,130.788,-587.756,0,0
307290.925,130.182,-586.759,0,0
307551.25,129.632,-585.801,0,0
307811.575,129.114,-584.877,0,0
308071.9,128.668,-584.04,0,0
308332.225,128.206,-583.274,0,0
308592.55,127.734,-582.596,0,0
308852.875,127.235,-581.967,0,0
309113.2,126.66,-581.384,0,0
309373.525,126.01,-580.798,0,0
309633.85,125.342,-580.231,0,0
309894.175,124.598,-579.623,0,0
310154.5,123.822,-578.995,0,0
310414.825,123.026,-578.348,0,0
310675.15,122.2,-577.645,0,0
310935.475,121.331,-576.909,0,0
311195.8,120.474,-576.076,0,0
311456.125,119.631,-575.247,0,0
311716.45,118.816,-574.374,0,0
311976.775,117.976,-573.48,0,0
312237.1,117.126,-572.533,0,0
312497.425,116.256,-571.533,0,0
312757.75,115.422,-570.447,0,0
313018.075,114.606,-569.289,0,0
313278.4,113.848,-568.041,0,0
313538.725,113.166,-566.744,0,0
313799.05,112.589,-565.393,0,0
314059.375,112.093,-564.029,0,0
314319.7,111.672,-562.647,0,0
314580,111.383,-561.22,0,0
314840,111.144,-559.824,0,0
315101,111.048,-558.431,0,0
315361,111.066,-557.026,0,0
315621,111.148,-555.889,0,0
315882,111.39,-554.71,0,0
316142,111.7,-553.599,0,0
316402,112.018,-552.69,0,0
316663,112.399,-551.839,0,0
316923,112.774,-551.097,0,0
317183,113.007,-550.503,0,0
317444,113.26,-549.982,0,0
317704,113.474,-549.58,0,0
317964,113.676,-549.276,0,0
318225,113.611,-548.947,0,0
318485,113.577,-548.585,0,0
318745,113.489,-548.277,0,0
319006,113.414,-547.887,0,0
319266,113.173,-547.583,0,0
319526,112.901,-547.225,0,0
319787,112.59,-546.757,0,0
320047,112.392,-546.385,0,0
320307,112.085,-545.825,0,0
320567,111.866,-545.322,0,0
320828,111.689,-544.747,0,0
321088,111.507,-544.196,0,0
321348,111.338,-543.631,0,0
321609,111.286,-543.123,0,0
321869,111.16,-542.596,0,0
322129,111.241,-542.194,0,0
322390,111.157,-541.78,0,0
322650,111.272,-541.457,0,0
322910,111.174,-541.185,0,0
323171,111.132,-541.029,0,0
323431,111.03,-540.939,0,0
323691,110.934,-540.816,0,0
323952,110.77,-540.73,0,0
324212,110.541,-540.775,0,0
324472,110.219,-540.776,0,0
324733,109.835,-540.781,0,0
324993,109.337,-540.784,0,0
325253,108.856,-540.774,0,0
325514,108.329,-540.717,0,0
325774,107.739,-540.754,0,0
326034,106.929,-540.663,0,0
326295,106.247,-540.559,0,0
326555,105.511,-540.352,0,0
326815,104.659,-540.185,0,0
327076,103.843,-539.863,0,0
327336,102.973,-539.588,0,0
327596,102.112,-539.182,0,0
327857,101.329,-538.734,0,0
328117,100.509,-538.263,0,0
328377,99.6932,-537.789,0,0
328638,98.9713,-537.282,0,0
328898,98.2023,-536.762,0,0
329158,97.4975,-536.287,0,0
329419,96.746,-535.724,0,0
329679,96.0254,-535.233,0,0
329939,95.1403,-534.68,0,0
330200,94.388,-534.195,0,0
330460,93.5591,-533.552,0,0
330720.15,92.6977,-533.029,0,0
330980.475,91.8689,-532.368,0,0
331240.8,90.9752,-531.673,0,0
331501.125,90.1502,-531.033,0,0
331761.45,89.1993,-530.327,0,0
332021.775,88.4164,-529.477,0,0
332282.1,87.451,-528.737,0,0
332542.425,86.6736,-527.838,0,0
332802.75,85.815,-526.913,0,0
333063.075,85.0714,-526.071,0,0
333323.4,84.1783,-525.124,0,0
333583.725,83.4011,-524.184,0,0
333844.05,82.6338,-523.147,0,0
334104.375,81.782,-522.129,0,0
334364.7,81.095,-520.99,0,0
334625.025,80.305,-519.822,0,0
334885.35,79.6345,-518.666,0,0
335145.675,78.9725,-517.395,0,0
335406.0,78.3796,-516.125,0,0
335666.325,77.8229,-514.824,0,0
335926.65,77.3758,-513.511,0,0
336186.975,77.0344,-512.309,0,0
336447.3,76.6131,-510.879,0,0
336707.625,76.3234,-509.638,0,0
336967.95,76.1058,-508.281,0,0
337228.275,75.8532,-507.099,0,0
337488.6,75.6391,-505.868,0,0
337748.925,75.4663,-504.672,0,0
338009.25,75.2928,-503.415,0,0
338269.575,75.1342,-502.144,0,0
338529.9,75.0493,-500.927,0,0
338790.225,75.0005,-499.592,0,0
339050.55,74.952,-498.377,0,0
339310.875,74.9872,-497.108,0,0
339571.2,75.125,-495.871,0,0
339831.525,75.2692,-494.596,0,0
340091.85,75.4996,-493.456,0,0
340352.175,75.8432,-492.203,0,0
340612.5,76.1368,-491.042,0,0
340872.825,76.6178,-489.94,0,0
341133.15,77.081,-489.033,0,0
341393.475,77.5333,-488.113,0,0
341653.8,77.9921,-487.289,0,0
341914.125,78.4762,-486.569,0,0
342174.45,78.9864,-485.853,0,0
342434.775,79.4677,-485.237,0,0
342695.1,79.8461,-484.759,0,0
342955.425,80.2732,-484.315,0,0
343215.75,80.674,-483.849,0,0
343476.075,80.9572,-483.524,0,0
343736.4,81.2279,-483.163,0,0
343996.725,81.4468,-482.898,0,0
344257.05,81.5586,-482.617,0,0
344517.375,81.6146,-482.325,0,0
344777.7,81.671,-482.013,0,0
345038.025,81.6579,-481.719,0,0
345298.35,81.6814,-481.356,0,0
345558.675,81.5327,-481.08,0,0
345819.0,81.4286,-480.677,0,0
346079.325,81.2897,-480.299,0,0
346339.65,81.1021,-479.894,0,0
346599.975,80.9821,-479.452,0,0
346860,80.752,-478.951,0,0
347121,80.5456,-478.469,0,0
347381,80.3418,-477.932,0,0
347641,80.1567,-477.386,0,0
347902,79.9881,-476.743,0,0
348162,79.811,-476.126,0,0
348422,79.7425,-475.44,0,0
348683,79.6131,-474.706,0,0
348943,79.6012,-474.092,0,0
349203,79.5486,-473.465,0,0
349464,79.625,-472.748,0,0
349724,79.6085,-472.065,0,0
349984,79.6786,-471.428,0,0
350245,79.8365,-470.783,0,0
350505,80.0432,-470.159,0,0
350765,80.2839,-469.639,0,0
351025,80.506,-469.169,0,0
351286,80.7471,-468.763,0,0
351546,80.9746,-468.406,0,0
351806,81.1803,-468.174,0,0
352067,81.3163,-467.993,0,0
352327,81.387,-467.806,0,0
352587,81.4149,-467.684,0,0
352848,81.3954,-467.608,0,0
353108,81.2804,-467.514,0,0
353368,81.047,-467.487,0,0
353629,80.8164,-467.35,0,0
353889,80.4099,-467.116,0,0
354149,80.0135,-466.905,0,0
354410,79.5828,-466.638,0,0
354670,79.1135,-466.265,0,0
354930,78.6169,-465.839,0,0
355191,78.2282,-465.391,0,0
355451,77.7547,-464.85,0,0
355711,77.3403,-464.259,0,0
355972,76.9758,-463.617,0,0
356232,76.652,-462.944,0,0
356492,76.3062,-462.26,0,0
356753,76.0653,-461.584,0,0
357013,75.8021,-460.924,0,0
357273,75.5547,-460.298,0,0
357534,75.3207,-459.595,0,0
357794,75.1528,-458.928,0,0
358054,74.9319,-458.215,0,0
358315,74.7559,-457.521,0,0
358575,74.5712,-456.813,0,0
358835,74.4075,-456.146,0,0
359096,74.2874,-455.37,0,0
359356,74.1877,-454.567,0,0
359616,74.1265,-453.875,0,0
359877,74.1109,-453.107,0,0
360137,74.0927,-452.354,0,0
360397,74.1305,-451.619,0,0
360658,74.0701,-450.913,0,0
360918,74.1096,-450.231,0,0
361178,74.2209,-449.492,0,0
361438,74.3352,-448.78,0,0
361699,74.4647,-448.129,0,0
361959,74.5847,-447.49,0,0
362219,74.7593,-446.869,0,0
362480,74.9805,-446.275,0,0
362740.1,75.1131,-445.762,0,0
363000.425,75.3463,-445.188,0,0
363260.75,75.5538,-444.661,0,0
363521.075,75.7627,-444.12,0,0
363781.4,76.0021,-443.632,0,0
364041.725,76.3329,-443.234,0,0
364302.05,76.5576,-442.834,0,0
364562.375,76.8921,-442.513,0,0
364822.7,77.1921,-442.336,0,0
365083.025,77.4927,-442.201,0,0
365343.35,77.6575,-442.093,0,0
365603.675,77.7984,-442.089,0,0
365864.0,77.8768,-442.136,0,0
366124.325,77.8408,-442.234,0,0
366384.65,77.7027,-442.363,0,0
366644.975,77.3777,-442.416,0,0
366905.3,76.9325,-442.498,0,0
367165.625,76.4152,-442.406,0,0
367425.95,75.7904,-442.177,0,0
367686.275,75.1723,-441.857,0,0
367946.6,74.4932,-441.472,0,0
368206.925,73.9249,-440.943,0,0
368467.25,73.2767,-440.307,0,0
368727.575,72.7244,-439.52,0,0
368987.9,72.2328,-438.62,0,0
369248.225,71.8676,-437.619,0,0
369508.55,71.6626,-436.609,0,0
369768.875,71.5922,-435.55,0,0
370029.2,71.7067,-434.587,0,0
370289.525,71.8803,-433.691,0,0
370549.85,72.1875,-432.813,0,0
370810.175,72.495,-432.141,0,0
371070.5,72.94,-431.54,0,0
371330.825,73.325,-431.076,0,0
371591.15,73.6859,-430.711,0,0
371851.475,74.0164,-430.486,0,0
372111.8,74.1718,-430.343,0,0
372372.125,74.2801,-430.167,0,0
372632.45,74.3588,-430.128,0,0
372892.775,74.2241,-430.006,0,0
373153.1,74.0845,-429.863,0,0
373413.425,73.905,-429.681,0,0
373673.75,73.5694,-429.435,0,0
373934.075,73.3288,-429.158,0,0
374194.4,72.9521,-428.824,0,0
374454.725,72.6328,-428.425,0,0
374715.05,72.3243,-427.95,0,0
374975.375,71.9725,-427.45,0,0
375235.7,71.6205,-426.93,0,0
375496.025,71.3106,-426.318,0,0
375756.35,71.0048,-425.648,0,0
376016.675,70.7519,-424.973,0,0
376277.0,70.5681,-424.223,0,0
376537.325,70.483,-423.48,0,0
376797.65,70.2867,-422.707,0,0
377057.975,70.3216,-421.97,0,0
377318.3,70.3705,-421.161,0,0
377578.625,70.4071,-420.476,0,0
377838.95,70.5188,-419.803,0,0
378099.275,70.7268,-419.167,0,0
378359.6,70.9055,-418.542,0,0
378619.925,71.0006,-418.035,0,0
378880,71.1518,-417.458,0,0
379141,71.2924,-416.952,0,0
379401,71.4972,-416.447,0,0
379661,71.6421,-415.989,0,0
379922,71.7921,-415.547,0,0
380182,71.9472,-415.097,0,0
380442,72.1204,-414.671,0,0
380703,72.2484,-414.318,0,0
380963,72.3824,-413.905,0,0
381223,72.5199,-413.545,0,0
381483,72.744,-413.184,0,0
381744,72.8442,-412.857,0,0
382004,73.0082,-412.625,0,0
382264,73.1499,-412.414,0,0
382525,73.2239,-412.177,0,0
382785,73.2646,-412.028,0,0
383045,73.2469,-411.851,0,0
383306,73.2244,-411.746,0,0
383566,73.1029,-411.59,0,0
383826,72.9021,-411.379,0,0
384087,72.7627,-411.222,0,0
384347,72.4923,-410.963,0,0
384607,72.2669,-410.696,0,0
384868,71.9891,-410.362,0,0
385128,71.7063,-410.004,0,0
385388,71.3953,-409.636,0,0
385649,71.1066,-409.225,0,0
385909,70.7758,-408.805,0,0
386169,70.4785,-408.275,0,0
386430,70.195,-407.757,0,0
386690,69.9182,-407.194,0,0
386950,69.705,-406.614,0,0
387211,69.5004,-406.001,0,0
387471,69.2828,-405.393,0,0
387731,69.0938,-404.781,0,0
387992,68.948,-404.163,0,0
388252,68.7467,-403.491,0,0
388512,68.5546,-402.849,0,0
388773,68.4053,-402.174,0,0
389033,68.2776,-401.456,0,0
389293,68.1718,-400.688,0,0
389554,68.0846,-399.879,0,0
389814,68.0367,-399.064,0,0
390074,68.0305,-398.262,0,0
390335,68.084,-397.433,0,0
390595,68.1968,-396.574,0,0
390855,68.3669,-395.762,0,0
391116,68.5568,-394.959,0,0
391376,68.7883,-394.17,0,0
391636,69.089,-393.355,0,0
391896,69.4187,-392.59,0,0
392157,69.8262,-391.86,0,0
392417,70.2035,-391.139,0,0
392677,70.6985,-390.495,0,0
392938,71.1837,-389.908,0,0
393198,71.7033,-389.355,0,0
393458,72.2431,-388.893,0,0
393719,72.8057,-388.432,0,0
393979,73.3603,-388.046,0,0
394239,73.8983,-387.783,0,0
394500,74.3946,-387.445,0,0
394760.05,74.9262,-387.233,0,0
395020.375,75.4412,-387.056,0,0
395280.7,75.951,-386.899,0,0
395541.025,76.3947,-386.864,0,0
395801.35,76.8366,-386.821,0,0
396061.675,77.2347,-386.828,0,0
396322.0,77.6045,-386.891,0,0
396582.325,77.8845,-386.961,0,0
396842.65,78.1588,-387.092,0,0
397102.975,78.3684,-387.23,0,0
397363.3,78.515,-387.407,0,0
397623.625,78.6112,-387.546,0,0
397883.95,78.6761,-387.731,0,0
398144.275,78.6701,-387.926,0,0
398404.6,78.5458,-388.089,0,0
398664.925,78.397,-388.23,0,0
398925.25,78.2035,-388.31,0,0
399185.575,77.9544,-388.359,0,0
399445.9,77.6463,-388.365,0,0
399706.225,77.335,-388.323,0,0
399966.55,77.0514,-388.234,0,0
400006.6,76.9812,-388.208,0,0