File: Accelerated corrosion test data/2025-10-12_06-00-03/sample_6.csv
Frequency (Hz),Impedance (ohms),Phase (Radians),Temperature (C),Humidity (%)
10000.0,4216.82,-6524.51,0,0
10260.325,4079.2,-6448.57,0,0
10520.65,3947.84,-6372.79,0,0
10780.975,3822.48,-6296.82,0,0
11041.3,3702.76,-6221.38,0,0
11301.625,3588.64,-6147.4,0,0
11561.95,3479.33,-6074.14,0,0
11822.275,3375.24,-6001.03,0,0
12082.6,3274.88,-5929.29,0,0
12342.925,3178.95,-5857.97,0,0
12603.25,3089.48,-5785.9,0,0
12863.575,3001.44,-5716.88,0,0
13123.9,2919.68,-5650.4,0,0
13384.225,2838.23,-5585.32,0,0
13644.55,2759.57,-5520.1,0,0
13904.875,2684.71,-5454.84,0,0
14165.2,2612.66,-5391.19,0,0
14425.525,2544.77,-5328.02,0,0
14685.8,2477.47,-5265.58,0,0
14946.175,2415.17,-5204.5,0,0
15206.5,2353.86,-5145.19,0,0
15466.825,2295.55,-5086.1,0,0
15727.15,2238.69,-5029.33,0,0
15987.5,2184.1,-4972.36,0,0
16247.8,2131.35,-4916.9,0,0
16508.125,2080.61,-4861.96,0,0
16768.45,2031.69,-4808.09,0,0
17028.775,1985.52,-4754.91,0,0
17289.1,1939.66,-4703.72,0,0
17549.425,1895.42,-4653.15,0,0
17809.75,1853.07,-4603.22,0,0
18070.075,1812.21,-4553.07,0,0
18330.4,1772.48,-4504.72,0,0
18590.725,1733.63,-4457.45,0,0
18851.05,1698.2,-4410.56,0,0
19111.375,1662.55,-4365.32,0,0
19371.7,1628.36,-4320.26,0,0
19632.025,1594.25,-4277.84,0,0
19892.35,1561.45,-4233.94,0,0
20152.675,1529.89,-4190.86,0,0
20413.0,1499.39,-4150,0,0
20673.3,1469.41,-4108.41,0,0
20933.65,1440.79,-4068.43,0,0
21193.975,1412.42,-4027.76,0,0
21454.3,1386.01,-3989.26,0,0
21714.625,1359.16,-3951,0,0
21974.9,1334.47,-3913.27,0,0
22235.275,1309.2,-3876.25,0,0
22495.6,1285.31,-3838.35,0,0
22755.925,1263.02,-3801.06,0,0
23016.25,1242.47,-3766.08,0,0
23276.6,1221.93,-3733.43,0,0
23536.9,1200.33,-3700.7,0,0
23797.225,1178.39,-3668.21,0,0
24057.55,1157.62,-3635.51,0,0
24317.875,1137.26,-3603.12,0,0
24578.2,1118.16,-3571.22,0,0
24838.525,1098.6,-3539.39,0,0
25098.85,1080.71,-3508.57,0,0
25359.175,1062.51,-3478.43,0,0
25619.5,1045.34,-3448.39,0,0
25879.8,1028.15,-3419.25,0,0
26140.1,1011.97,-3389.91,0,0
26400.5,995.607,-3361.1,0,0
26660.8,980.091,-3332.83,0,0
26921.1,964.943,-3304.9,0,0
27181.4,950.27,-3277.31,0,0
27441.8,935.994,-3250.18,0,0
27702.1,922.428,-3223.87,0,0
27962.4,908.545,-3198.44,0,0
28222.7,894.674,-3172.91,0,0
28483.1,881.531,-3147.45,0,0
28743.4,868.169,-3122.42,0,0
29003.7,855.219,-3097.22,0,0
29264,842.761,-3072.5,0,0
29524.4,831.085,-3047.77,0,0
29784.7,820.147,-3023.6,0,0
30045,809.565,-3000.21,0,0
30305.3,798.811,-2977.22,0,0
30565.7,788.292,-2954.97,0,0
30826,777.794,-2932.3,0,0
31086.3,767.528,-2910.88,0,0
31346.6,757.082,-2889.01,0,0
31607,747.842,-2866.9,0,0
31867.3,738.305,-2845.57,0,0
32127.6,729.407,-2824.19,0,0
32387.9,720.999,-2803.11,0,0
32648.3,713.409,-2782.58,0,0
32908.6,707.026,-2763.84,0,0
33168.9,698.759,-2745.59,0,0
33429.2,691.033,-2727.78,0,0
33689.6,682.685,-2709.83,0,0
33949.9,674.095,-2692.88,0,0
34210.2,664.547,-2675.27,0,0
34470.5,655.499,-2656.68,0,0
34730.9,647.696,-2638.08,0,0
34991.2,640.388,-2620.41,0,0
35251.5,632.809,-2603.33,0,0
35511.8,625.746,-2586.62,0,0
35772.2,617.327,-2570.42,0,0
36032.5,608.929,-2553.55,0,0
36292.8,601.056,-2536.01,0,0
36553.1,593.717,-2518.91,0,0
36813.5,586.549,-2501.67,0,0
37073.8,580.134,-2484.88,0,0
37334.1,573.661,-2468.43,0,0
37594.4,567.058,-2452.37,0,0
37854.8,560.621,-2436.2,0,0
38115.1,554.312,-2420.24,0,0
38375.4,548.282,-2403.98,0,0
38635.7,542.82,-2388.48,0,0
38896.1,537.403,-2372.59,0,0
39156.4,532.075,-2356.98,0,0
39416.7,527.198,-2341.6,0,0
39677,523.09,-2326.51,0,0
39937.4,518.952,-2312.34,0,0
40197.7,514.567,-2297.99,0,0
40458,510.432,-2284.53,0,0
40718.3,506.121,-2271.17,0,0
40978.7,502.108,-2258.21,0,0
41239,497.147,-2245.42,0,0
41499.3,492.776,-2231.98,0,0
41759.6,489.259,-2219.37,0,0
42020,484.499,-2208.07,0,0
42280.275,479.043,-2196,0,0
42540.6,473.64,-2184.28,0,0
42800.925,467.596,-2170.71,0,0
43061.25,463.654,-2156.81,0,0
43321.575,459.718,-2143.94,0,0
43581.9,456.132,-2131.14,0,0
43842.225,452.557,-2119.03,0,0
44102.55,449.283,-2105.97,0,0
44362.875,446.157,-2093.87,0,0
44623.2,443.71,-2082.33,0,0
44883.525,440.577,-2071.35,0,0
45143.85,437.524,-2059.85,0,0
45404.175,434.971,-2049.09,0,0
45664.5,432.168,-2038.74,0,0
45924.825,429.372,-2028.51,0,0
46185.15,426.83,-2018.56,0,0
46445.475,423.558,-2009.1,0,0
46705.8,420.04,-1999.44,0,0
46966.125,416.622,-1989.57,0,0
47226.45,413.358,-1979.85,0,0
47486.775,409.904,-1970.63,0,0
47747.1,406.281,-1961.13,0,0
48007.425,403.114,-1951.55,0,0
48267.75,399.729,-1942.35,0,0
48528.075,396.045,-1933.05,0,0
48788.4,392.418,-1923.61,0,0
49048.725,389.48,-1914.43,0,0
49309.05,386.085,-1905.62,0,0
49569.375,382.314,-1897.02,0,0
49829.7,378.919,-1888.16,0,0
50090.025,374.748,-1879.59,0,0
50350.35,370.75,-1870.64,0,0
50610.675,366.796,-1861.38,0,0
50871.0,362.71,-1851.81,0,0
51131.325,359.422,-1842.69,0,0
51391.65,356.016,-1833.12,0,0
51651.975,352.721,-1823.84,0,0
51912.3,349.643,-1814.97,0,0
52172.625,346.238,-1805.85,0,0
52432.95,342.859,-1796.47,0,0
52693.275,340.468,-1787.17,0,0
52953.6,337.863,-1778.45,0,0
53213.925,335.209,-1769.95,0,0
53474.25,332.38,-1761.64,0,0
53734.575,329.091,-1753.26,0,0
53994.9,325.801,-1744.46,0,0
54255.225,323.071,-1735.28,0,0
54515.55,320.478,-1726.28,0,0
54775.875,318.131,-1717.44,0,0
55036.2,315.976,-1708.86,0,0
55296.525,313.675,-1700.57,0,0
55556.85,311.3,-1692.1,0,0
55817.175,309.127,-1683.65,0,0
56077.5,306.824,-1675.37,0,0
56337.825,304.569,-1666.87,0,0
56598.15,302.512,-1658.04,0,0
56858.475,300.892,-1649.22,0,0
57118.8,299.74,-1640.75,0,0
57379.125,298.786,-1632.34,0,0
57639.45,298.243,-1624.34,0,0
57899.775,297.57,-1616.83,0,0
58160.1,297.037,-1609.69,0,0
58420.4,296.438,-1602.71,0,0
58680.7,295.87,-1596.11,0,0
58941.1,295.048,-1589.89,0,0
59201.4,293.975,-1583.99,0,0
59461.7,292.524,-1577.77,0,0
59722,291.505,-1571.64,0,0
59982.4,290.125,-1566.28,0,0
60242.7,288.105,-1560.44,0,0
60503,286.511,-1554.3,0,0
60763.3,284.914,-1548.98,0,0
61023.7,282.926,-1543.72,0,0
61284,280.237,-1538.62,0,0
61544.3,277.028,-1533.02,0,0
61804.6,273.618,-1526.86,0,0
62065,270.179,-1519.94,0,0
62325.3,267.001,-1512.04,0,0
62585.6,265.058,-1503.74,0,0
62845.9,264.266,-1495.65,0,0
63106.3,264.349,-1488.5,0,0
63366.6,264.502,-1482.46,0,0
63626.9,264.027,-1477.21,0,0
63887.2,263.444,-1471.92,0,0
64147.6,262.329,-1467.37,0,0
64407.9,260.288,-1462.8,0,0
64668.2,257.948,-1457.8,0,0
64928.5,255.436,-1452.48,0,0
65188.9,252.699,-1446.69,0,0
65449.2,250.4,-1440.58,0,0
65709.5,248.392,-1434.28,0,0
65969.8,246.765,-1428.09,0,0
66230.2,245.014,-1422.02,0,0
66490.5,243.46,-1416.06,0,0
66750.8,241.886,-1409.84,0,0
67011.1,240.557,-1404.03,0,0
67271.5,238.99,-1398.07,0,0
67531.8,237.759,-1392.27,0,0
67792.1,236.519,-1386.41,0,0
68052.4,235.394,-1380.72,0,0
68312.8,234.304,-1375.22,0,0
68573.1,233.214,-1369.68,0,0
68833.4,232.253,-1364.23,0,0
69093.7,231.191,-1359.11,0,0
69354.1,229.995,-1353.89,0,0
69614.4,228.736,-1348.74,0,0
69874.7,227.719,-1343.65,0,0
70135,226.581,-1338.65,0,0
70395.4,225.385,-1333.76,0,0
70655.7,224.03,-1328.98,0,0
70916,222.484,-1324.13,0,0
71176.3,221.114,-1319.19,0,0
71436.7,219.644,-1314.3,0,0
71697,218.031,-1309.21,0,0
71957.3,216.443,-1304.16,0,0
72217.6,215.047,-1298.99,0,0
72478,213.786,-1293.73,0,0
72738.3,212.541,-1288.56,0,0
72998.6,211.414,-1283.58,0,0
73258.9,210.25,-1278.5,0,0
73519.3,209.106,-1273.58,0,0
73779.6,207.973,-1268.54,0,0
74039.9,206.864,-1263.54,0,0
74300.225,205.776,-1258.6,0,0
74560.55,204.901,-1253.79,0,0
74820.875,204.018,-1248.98,0,0
75081.2,203.162,-1244.32,0,0
75341.525,202.2,-1239.73,0,0
75601.85,201.24,-1235.14,0,0
75862.175,200.168,-1230.63,0,0
76122.5,199.107,-1226.04,0,0
76382.825,198.129,-1221.51,0,0
76643.15,197.094,-1216.96,0,0
76903.475,196.044,-1212.47,0,0
77163.8,194.997,-1207.99,0,0
77424.125,193.969,-1203.51,0,0
77684.45,192.933,-1199.03,0,0
77944.775,191.91,-1194.51,0,0
78205.1,190.953,-1190.07,0,0
78465.425,189.912,-1185.64,0,0
78725.75,188.958,-1181.22,0,0
78986.075,187.994,-1176.81,0,0
79246.4,187.047,-1172.42,0,0
79506.725,186.136,-1168.05,0,0
79767.05,185.079,-1163.77,0,0
80027.375,184.184,-1159.45,0,0
80287.7,183.205,-1155.14,0,0
80548.025,182.205,-1150.78,0,0
80808.35,181.27,-1146.45,0,0
81068.675,180.277,-1142.13,0,0
81329.0,179.322,-1137.77,0,0
81589.325,178.376,-1133.39,0,0
81849.65,177.477,-1129.01,0,0
82109.975,176.603,-1124.65,0,0
82370.3,175.858,-1120.24,0,0
82630.625,174.983,-1115.85,0,0
82890.95,174.242,-1111.6,0,0
83151.275,173.463,-1107.25,0,0
83411.6,172.716,-1102.88,0,0
83671.925,172.031,-1098.56,0,0
83932.25,171.276,-1094.22,0,0
84192.575,170.706,-1089.87,0,0
84452.9,170.101,-1085.45,0,0
84713.225,169.601,-1081.08,0,0
84973.55,169.041,-1076.77,0,0
85233.875,168.766,-1072.4,0,0
85494.2,168.428,-1068.04,0,0
85754.525,168.205,-1063.9,0,0
86014.85,168.04,-1059.74,0,0
86275.175,167.884,-1055.59,0,0
86535.5,167.712,-1051.65,0,0
86795.825,167.556,-1047.6,0,0
87056.15,167.455,-1043.77,0,0
87316.475,167.383,-1039.85,0,0
87576.8,167.319,-1036.01,0,0
87837.125,167.313,-1032.11,0,0
88097.45,167.187,-1028.28,0,0
88357.775,167.192,-1024.45,0,0
88618.1,167.342,-1020.75,0,0
88878.425,167.466,-1017.08,0,0
89138.75,167.727,-1013.54,0,0
89399.075,168.124,-1010.22,0,0
89659.4,168.349,-1006.85,0,0
89919.725,168.459,-1003.99,0,0
90180,168.778,-1000.95,0,0
90440.4,168.734,-998.127,0,0
90700.7,168.82,-995.392,0,0
90961,168.788,-992.768,0,0
91221.3,168.382,-990.264,0,0
91481.7,167.637,-987.791,0,0
91742,166.659,-985.048,0,0
92002.3,165.674,-981.888,0,0
92262.6,164.799,-978.603,0,0
92523,164.272,-975.288,0,0
92783.3,163.57,-971.989,0,0
93043.6,162.74,-968.722,0,0
93303.9,162.289,-965.009,0,0
93564.3,161.858,-961.499,0,0
93824.6,161.554,-958.188,0,0
94084.9,161.071,-954.708,0,0
94345.2,160.963,-950.996,0,0
94605.6,161.198,-947.634,0,0
94865.9,161.222,-944.633,0,0
95126.2,161.075,-941.509,0,0
95386.5,161.031,-938.361,0,0
95646.9,161.175,-935.34,0,0
95907.2,161.285,-932.499,0,0
96167.5,161.241,-929.845,0,0
96427.8,161.068,-927.135,0,0
96688.2,160.939,-924.477,0,0
96948.5,160.718,-921.992,0,0
97208.8,160.263,-919.506,0,0
97469.1,159.565,-916.825,0,0
97729.5,158.825,-914.009,0,0
97989.8,158.156,-910.973,0,0
98250.1,157.602,-907.771,0,0
98510.4,157.211,-904.462,0,0
98770.8,157.025,-901.154,0,0
99031.1,157.127,-897.944,0,0
99291.4,157.276,-895.068,0,0
99551.7,157.418,-892.259,0,0
99812.1,157.454,-889.503,0,0
100072,157.645,-886.86,0,0
100333,157.832,-884.255,0,0
100593,158.018,-881.847,0,0
100853,158.158,-879.742,0,0
101114,157.921,-877.748,0,0
101374,157.505,-875.683,0,0
101634,157.005,-873.46,0,0
101895,156.448,-871.146,0,0
102155,156.029,-868.761,0,0
102415,155.588,-866.437,0,0
102676,155.184,-864.169,0,0
102936,154.686,-861.988,0,0
103196,154.267,-859.777,0,0
103457,153.701,-857.844,0,0
103717,152.82,-855.856,0,0
103977,151.948,-853.787,0,0
104238,150.985,-851.776,0,0
104498,149.799,-849.862,0,0
104758,148.297,-847.773,0,0
105019,146.666,-845.447,0,0
105279,144.812,-842.87,0,0
105539,143.005,-840.114,0,0
105800,141.107,-837.021,0,0
106060,139.192,-833.51,0,0
106320.175,137.42,-829.799,0,0
106580.5,135.921,-825.676,0,0
106840.825,134.853,-821.376,0,0
107101.15,134.177,-816.996,0,0
107361.475,133.736,-812.851,0,0
107621.8,133.375,-808.716,0,0
107882.125,133.174,-804.509,0,0
108142.45,133.389,-800.301,0,0
108402.775,133.818,-796.37,0,0
108663.1,134.437,-792.719,0,0
108923.425,134.947,-789.395,0,0
109183.75,135.174,-786.231,0,0
109444.075,135.285,-782.672,0,0
109704.4,135.654,-778.834,0,0
109964.725,136.504,-775.262,0,0
110225.05,137.42,-772.058,0,0
110485.375,138.136,-768.911,0,0
110745.7,138.806,-765.708,0,0
111006.025,139.713,-762.472,0,0
111266.35,140.932,-759.109,0,0
111526.675,142.473,-756.338,0,0
111787.0,143.839,-753.917,0,0
112047.325,144.851,-751.552,0,0
112307.65,146.115,-749.331,0,0
112567.975,147.37,-747.337,0,0
112828.3,148.365,-745.709,0,0
113088.625,148.899,-744.017,0,0
113348.95,149.313,-742.059,0,0
113609.275,150.051,-740.127,0,0
113869.6,150.709,-738.318,0,0
114129.925,151.019,-736.613,0,0
114390.25,151.397,-734.594,0,0
114650.575,151.785,-732.497,0,0
114910.9,152.499,-730.468,0,0
115171.225,153.25,-728.558,0,0
115431.55,154.269,-726.645,0,0
115691.875,155.556,-725.306,0,0
115952.2,156.708,-724.543,0,0
116212.525,157.373,-724.043,0,0
116472.85,157.768,-723.879,0,0
116733.175,157.576,-724.037,0,0
116993.5,156.737,-724.041,0,0
117253.825,155.259,-723.882,0,0
117514.15,153.242,-723.157,0,0
117774.475,151.053,-721.761,0,0
118034.8,148.819,-719.831,0,0
118295.125,146.813,-717.241,0,0
118555.45,145.314,-714.397,0,0
118815.775,144.202,-711.53,0,0
119076.1,142.864,-708.748,0,0
119336.425,141.809,-705.519,0,0
119596.75,141.109,-702.1,0,0
119857.075,140.622,-698.733,0,0
120117.4,140.617,-695.275,0,0
120377.725,140.951,-692.037,0,0
120638.05,141.57,-689.069,0,0
120898.375,142.429,-686.585,0,0
121158.7,143.107,-684.476,0,0
121419.025,143.675,-682.708,0,0
121679.35,143.862,-681.191,0,0
121939.675,143.613,-679.725,0,0
122200.0,143.014,-678.018,0,0
122460,142.265,-675.868,0,0
122721,141.774,-673.473,0,0
122981,141.502,-671.072,0,0
123241,141.351,-668.746,0,0
123502,141.154,-666.53,0,0
123762,140.932,-664.245,0,0
124022,140.816,-661.919,0,0
124283,140.748,-659.778,0,0
124543,140.553,-657.716,0,0
124803,140.259,-655.656,0,0
125064,139.968,-653.491,0,0
125324,139.615,-651.337,0,0
125584,139.155,-649.17,0,0
125845,138.756,-646.841,0,0
126105,138.332,-644.544,0,0
126365,137.909,-642.235,0,0
126626,137.478,-639.713,0,0
126886,136.978,-637.236,0,0
127146,136.614,-634.567,0,0
127406,136.253,-631.819,0,0
127667,135.848,-629.063,0,0
127927,135.778,-626.186,0,0
128187,135.864,-623.281,0,0
128448,136.055,-620.488,0,0
128708,136.396,-617.788,0,0
128968,136.704,-615.208,0,0
129229,137.107,-612.763,0,0
129489,137.504,-610.523,0,0
129749,137.763,-608.361,0,0
130010,137.889,-606.169,0,0
130270,137.937,-603.965,0,0
130530,137.936,-601.728,0,0
130791,137.902,-599.439,0,0
131051,137.799,-597.097,0,0
131311,137.739,-594.621,0,0
131572,137.751,-592.132,0,0
131832,137.739,-589.69,0,0
132092,137.788,-587.136,0,0
132353,137.869,-584.493,0,0
132613,138.057,-581.89,0,0
132873,138.342,-579.267,0,0
133134,138.653,-576.704,0,0
133394,139.035,-574.227,0,0
133654,139.309,-571.777,0,0
133915,139.586,-569.321,0,0
134175,139.874,-566.837,0,0
134435,140.23,-564.314,0,0
134696,140.588,-561.767,0,0
134956,140.952,-559.286,0,0
135216,141.332,-556.794,0,0
135477,141.797,-554.303,0,0
135737,142.216,-551.7,0,0
135997,142.717,-549.125,0,0
136258,143.245,-546.64,0,0
136518,143.885,-544.001,0,0
136778,144.706,-541.401,0,0
137039,145.572,-538.876,0,0
137299,146.505,-536.572,0,0
137559,147.415,-534.31,0,0
137819,148.384,-532.145,0,0
138080,149.272,-530.121,0,0
138340.125,150.015,-528.142,0,0
138600.45,150.713,-526.191,0,0
138860.775,151.373,-524.155,0,0
139121.1,152.137,-522.081,0,0
139381.425,152.775,-520.043,0,0
139641.75,153.515,-517.996,0,0
139902.075,154.291,-516.012,0,0
140162.4,155.035,-513.975,0,0
140422.725,155.875,-512.007,0,0
140683.05,156.699,-510.047,0,0
140943.375,157.465,-508.155,0,0
141203.7,158.486,-506.334,0,0
141464.025,159.408,-504.664,0,0
141724.35,160.251,-503.229,0,0
141984.675,160.914,-501.829,0,0
142245.0,161.428,-500.389,0,0
142505.325,161.736,-498.948,0,0
142765.65,161.862,-497.485,0,0
143025.975,162.008,-495.838,0,0
143286.3,162.145,-494.024,0,0
143546.625,162.279,-492.19,0,0
143806.95,162.429,-490.221,0,0
144067.275,162.647,-488.279,0,0
144327.6,162.888,-486.247,0,0
144587.925,163.02,-484.141,0,0
144848.25,163.383,-482.028,0,0
145108.575,163.802,-479.747,0,0
145368.9,164.435,-477.643,0,0
145629.225,165.093,-475.676,0,0
145889.55,165.707,-473.789,0,0
146149.875,166.196,-471.996,0,0
146410.2,166.714,-470.147,0,0
146670.525,167.231,-468.407,0,0
146930.85,167.731,-466.708,0,0
147191.175,167.968,-465.175,0,0
147451.5,167.996,-463.591,0,0
147711.825,167.947,-461.785,0,0
147972.15,167.755,-459.952,0,0
148232.475,167.527,-457.889,0,0
148492.8,167.274,-455.556,0,0
148753.125,167.228,-453.15,0,0
149013.45,167.18,-450.621,0,0
149273.775,167.286,-448.031,0,0
149534.1,167.37,-445.354,0,0
149794.425,167.602,-442.679,0,0
150054.75,167.88,-439.774,0,0
150315.075,168.388,-436.993,0,0
150575.4,168.933,-434.227,0,0
150835.725,169.481,-431.454,0,0
151096.05,170.093,-428.672,0,0
151356.375,170.787,-425.67,0,0
151616.7,171.532,-422.698,0,0
151877.025,172.531,-419.599,0,0
152137.35,173.84,-416.533,0,0
152397.675,175.398,-413.604,0,0
152658.0,177.089,-411.031,0,0
152918.325,178.829,-408.547,0,0
153178.65,180.583,-406.514,0,0
153438.975,182.046,-404.684,0,0
153699.3,183.454,-402.773,0,0
153959.625,184.65,-401.073,0,0
154219.95,185.629,-399.355,0,0
154480,186.487,-397.526,0,0
154741,187.192,-395.508,0,0
155001,187.837,-393.206,0,0
155261,188.783,-390.681,0,0
155522,189.846,-388.1,0,0
155782,191.165,-385.569,0,0
156042,192.697,-383.144,0,0
156303,194.336,-380.9,0,0
156563,196.106,-378.817,0,0
156823,197.904,-377.045,0,0
157084,199.467,-375.571,0,0
157344,200.819,-374.191,0,0
157604,201.872,-372.835,0,0
157864,202.796,-371.351,0,0
158125,203.545,-369.768,0,0
158385,204.263,-367.93,0,0
158645,205.108,-366.111,0,0
158906,205.86,-364.268,0,0
159166,206.565,-362.268,0,0
159426,207.325,-360.183,0,0
159687,208.249,-358.106,0,0
159947,209.086,-356.084,0,0
160207,209.86,-353.984,0,0
160468,210.635,-351.759,0,0
160728,211.577,-349.389,0,0
160988,212.606,-347.212,0,0
161249,213.531,-344.998,0,0
161509,214.568,-342.794,0,0
161769,215.515,-340.526,0,0
162030,216.522,-338.303,0,0
162290,217.46,-335.955,0,0
162550,218.441,-333.626,0,0
162811,219.428,-331.168,0,0
163071,220.544,-328.719,0,0
163331,221.756,-326.26,0,0
163592,222.994,-323.86,0,0
163852,224.232,-321.503,0,0
164112,225.449,-319.221,0,0
164373,226.521,-316.919,0,0
164633,227.627,-314.561,0,0
164893,228.708,-312.057,0,0
165154,229.795,-309.551,0,0
165414,230.9,-306.909,0,0
165674,232.134,-304.286,0,0
165935,233.406,-301.564,0,0
166195,234.768,-298.864,0,0
166455,236.13,-296.216,0,0
166716,237.451,-293.535,0,0
166976,238.81,-290.835,0,0
167236,240.199,-288.036,0,0
167497,241.63,-285.242,0,0
167757,243.097,-282.38,0,0
168017,244.675,-279.43,0,0
168277,246.296,-276.509,0,0
168538,248.076,-273.656,0,0
168798,249.872,-270.868,0,0
169058,251.615,-268.106,0,0
169319,253.274,-265.347,0,0
169579,254.989,-262.474,0,0
169839,256.654,-259.605,0,0
170100,258.344,-256.737,0,0
170360.075,260.041,-253.813,0,0
170620.4,261.718,-250.767,0,0
170880.725,263.413,-247.714,0,0
171141.05,265.176,-244.514,0,0
171401.375,266.938,-241.287,0,0
171661.7,268.75,-237.985,0,0
171922.025,270.615,-234.581,0,0
172182.35,272.499,-231.079,0,0
172442.675,274.483,-227.538,0,0
172703.0,276.555,-223.903,0,0
172963.325,278.661,-220.198,0,0
173223.65,280.816,-216.417,0,0
173483.975,283.087,-212.517,0,0
173744.3,285.413,-208.531,0,0
174004.625,287.881,-204.47,0,0
174264.95,290.431,-200.221,0,0
174525.275,293.13,-195.945,0,0
174785.6,295.99,-191.547,0,0
175045.925,299.012,-187.007,0,0
175306.25,302.287,-182.45,0,0
175566.575,305.684,-177.817,0,0
175826.9,309.305,-173.14,0,0
176087.225,313.104,-168.464,0,0
176347.55,317.064,-163.738,0,0
176607.875,321.271,-158.97,0,0
176868.2,325.694,-154.088,0,0
177128.525,330.42,-149.323,0,0
177388.85,335.36,-144.561,0,0
177649.175,340.47,-139.81,0,0
177909.5,345.879,-135.092,0,0
178169.825,351.506,-130.405,0,0
178430.15,357.51,-125.795,0,0
178690.475,363.808,-121.32,0,0
178950.8,370.326,-117.057,0,0
179211.125,377.113,-112.965,0,0
179471.45,384.131,-109.183,0,0
179731.775,391.263,-105.635,0,0
179992.1,398.52,-102.432,0,0
180252.425,405.652,-99.415,0,0
180512.75,412.761,-96.5308,0,0
180773.075,420.008,-93.6654,0,0
181033.4,427.231,-90.9066,0,0
181293.725,434.501,-88.1447,0,0
181554.05,441.915,-85.5142,0,0
181814.375,449.533,-82.7742,0,0
182074.7,457.318,-80.189,0,0
182335.025,465.298,-77.8607,0,0
182595.35,473.424,-75.6681,0,0
182855.675,481.422,-73.7168,0,0
183116.0,489.515,-71.9536,0,0
183376.325,497.601,-70.2148,0,0
183636.65,505.713,-68.5097,0,0
183896.975,513.8,-66.7348,0,0
184157.3,521.965,-64.853,0,0
184417.625,530.291,-63.0124,0,0
184677.95,538.724,-61.0944,0,0
184938.275,547.467,-59.1069,0,0
185198.6,556.446,-57.0309,0,0
185458.925,565.708,-54.9195,0,0
185719.25,575.352,-52.8346,0,0
185979.575,585.435,-50.638,0,0
186239.9,596.055,-48.7488,0,0
186500,607.051,-46.9607,0,0
186761,618.604,-45.4672,0,0
187021,630.572,-44.3006,0,0
187281,642.949,-43.4878,0,0
187542,655.721,-43.0872,0,0
187802,668.834,-43.1279,0,0
188062,682.239,-43.5981,0,0
188322,695.958,-44.5383,0,0
188583,709.987,-45.9232,0,0
188843,724.288,-47.8333,0,0
189103,738.876,-50.2969,0,0
189364,753.656,-53.3155,0,0
189624,768.689,-56.9417,0,0
189884,784.037,-61.0194,0,0
190145,799.536,-65.9043,0,0
190405,815.354,-71.5806,0,0
190665,831.186,-78.0748,0,0
190926,846.936,-85.394,0,0
191186,862.593,-93.471,0,0
191446,878.145,-102.433,0,0
191707,893.479,-111.992,0,0
191967,908.444,-122.173,0,0
192227,923.373,-133.092,0,0
192488,938.046,-144.556,0,0
192748,952.573,-156.72,0,0
193008,966.822,-169.472,0,0
193269,980.961,-182.973,0,0
193529,994.817,-197.218,0,0
193789,1008.47,-212.296,0,0
194050,1021.75,-228.078,0,0
194310,1034.76,-244.731,0,0
194570,1047.13,-262.513,0,0
194831,1058.95,-281.067,0,0
195091,1069.95,-300.387,0,0
195351,1080.38,-320.539,0,0
195612,1090.01,-341.616,0,0
195872,1098.63,-363.388,0,0
196132,1106.08,-385.793,0,0
196393,1112.44,-408.792,0,0
196653,1117.73,-432.135,0,0
196913,1121.92,-456.097,0,0
197174,1124.77,-480.233,0,0
197434,1126.42,-504.766,0,0
197694,1126.54,-529.402,0,0
197955,1125.39,-553.906,0,0
198215,1122.97,-578.57,0,0
198475,1118.99,-602.553,0,0
198735,1113.95,-626.128,0,0
198996,1107.93,-649.396,0,0
199256,1101,-671.961,0,0
199516,1092.99,-694.283,0,0
199777,1083.97,-715.669,0,0
200037,1074.09,-736.712,0,0
200297,1063.82,-757.326,0,0
200558,1052.31,-777.152,0,0
200818,1039.97,-796.45,0,0
201078,1026.58,-815.098,0,0
201339,1012.72,-832.727,0,0
201599,998.077,-849.553,0,0
201859,982.802,-865.458,0,0
202120,966.917,-880.414,0,0
202380.025,950.721,-894.476,0,0
202640.35,934.041,-907.16,0,0
202900.675,917.251,-919.006,0,0
203161.0,900.156,-929.877,0,0
203421.325,883.176,-939.716,0,0
203681.65,865.846,-948.537,0,0
203941.975,848.759,-956.551,0,0
204202.3,831.99,-963.772,0,0
204462.625,815.335,-970.263,0,0
204722.95,798.707,-975.805,0,0
204983.275,782.204,-981.037,0,0
205243.6,766.084,-985.56,0,0
205503.925,750.187,-988.963,0,0
205764.25,734.512,-992.043,0,0
206024.575,719.086,-994.509,0,0
206284.9,703.981,-996.354,0,0
206545.225,689.148,-997.905,0,0
206805.55,674.462,-999.094,0,0
207065.875,660.273,-999.497,0,0
207326.2,646.584,-999.795,0,0
207586.525,632.914,-999.371,0,0
207846.85,619.863,-998.968,0,0
208107.175,607.032,-997.989,0,0
208367.5,594.478,-996.933,0,0
208627.825,582.313,-995.452,0,0
208888.15,570.307,-993.768,0,0
209148.475,558.976,-991.906,0,0
209408.8,547.447,-989.66,0,0
209669.125,536.681,-987.607,0,0
209929.45,526.007,-985.176,0,0
210189.775,515.613,-982.568,0,0
210450.1,505.496,-979.636,0,0
210710.425,495.599,-976.824,0,0
210970.75,485.86,-973.743,0,0
211231.075,476.509,-970.649,0,0
211491.4,467.239,-967.424,0,0
211751.725,458.194,-963.942,0,0
212012.05,449.458,-960.252,0,0
212272.375,441.048,-956.487,0,0
212532.7,432.96,-952.735,0,0
212793.025,425.276,-948.861,0,0
213053.35,417.572,-945.03,0,0
213313.675,410.173,-941.29,0,0
213574.0,402.89,-937.584,0,0
213834.325,395.775,-933.824,0,0
214094.65,388.648,-929.978,0,0
214354.975,381.659,-926.017,0,0
214615.3,374.851,-921.843,0,0
214875.625,368.358,-917.849,0,0
215135.95,361.856,-913.547,0,0
215396.275,355.608,-908.945,0,0
215656.6,349.672,-904.605,0,0
215916.925,343.872,-900.16,0,0
216177.25,338.355,-895.663,0,0
216437.575,332.987,-891.164,0,0
216697.9,327.904,-886.835,0,0
216958.225,322.86,-882.427,0,0
217218.55,317.834,-877.884,0,0
217478.875,312.991,-873.516,0,0
217739.2,308.369,-868.963,0,0
217999.525,303.81,-864.497,0,0
218259.85,299.425,-859.959,0,0
218520,295.129,-855.455,0,0
218780,290.931,-850.907,0,0
219041,286.966,-846.343,0,0
219301,283.215,-841.833,0,0
219561,279.551,-837.218,0,0
219822,275.985,-832.684,0,0
220082,272.579,-828.021,0,0
220342,269.411,-823.38,0,0
220603,266.275,-818.756,0,0
220863,263.374,-814.258,0,0
221123,260.6,-809.706,0,0
221384,258.067,-805.213,0,0
221644,255.52,-800.66,0,0
221904,253.243,-796.301,0,0
222165,250.96,-791.883,0,0
222425,249.083,-787.504,0,0
222685,247.163,-783.221,0,0
222946,245.319,-778.957,0,0
223206,243.743,-774.714,0,0
223466,242.269,-770.599,0,0
223727,240.859,-766.625,0,0
223987,239.696,-762.733,0,0
224247,238.588,-758.925,0,0
224508,237.471,-755.217,0,0
224768,236.53,-751.766,0,0
225028,235.736,-748.365,0,0
225289,234.949,-745.134,0,0
225549,234.061,-742.046,0,0
225809,233.192,-738.977,0,0
226070,232.448,-736.098,0,0
226330,231.538,-733.205,0,0
226590,230.727,-730.611,0,0
226851,229.725,-727.992,0,0
227111,228.679,-725.363,0,0
227371,227.637,-722.768,0,0
227632,226.495,-720.221,0,0
227892,225.355,-717.529,0,0
228152,224.158,-714.966,0,0
228413,223.002,-712.263,0,0
228673,221.806,-709.493,0,0
228933,220.673,-706.759,0,0
229193,219.526,-703.88,0,0
229454,218.585,-701.061,0,0
229714,217.588,-698.27,0,0
229974,216.545,-695.394,0,0
230235,215.611,-692.523,0,0
230495,214.753,-689.543,0,0
230755,213.943,-686.618,0,0
231016,213.303,-683.684,0,0
231276,212.618,-680.745,0,0
231536,211.993,-677.773,0,0
231797,211.525,-674.883,0,0
232057,211.073,-671.976,0,0
232317,210.694,-669.053,0,0
232578,210.332,-666.145,0,0
232838,210.141,-663.26,0,0
233098,209.936,-660.398,0,0
233359,209.817,-657.555,0,0
233619,209.808,-654.661,0,0
233879,209.82,-651.884,0,0
234140,209.911,-649.089,0,0
234400,210.055,-646.346,0,0
234660.3,210.392,-643.601,0,0
234920.625,210.651,-640.85,0,0
235180.95,211.077,-638.263,0,0
235441.275,211.37,-635.742,0,0
235701.6,211.892,-633.144,0,0
235961.925,212.533,-630.636,0,0
236222.25,213.081,-628.233,0,0
236482.575,213.768,-625.786,0,0
236742.9,214.48,-623.488,0,0
237003.225,215.281,-621.156,0,0
237263.55,216.089,-618.922,0,0
237523.875,216.984,-616.662,0,0
237784.2,217.937,-614.527,0,0
238044.525,218.915,-612.376,0,0
238304.85,219.938,-610.35,0,0
238565.175,221.063,-608.37,0,0
238825.5,222.239,-606.41,0,0
239085.825,223.449,-604.632,0,0
239346.15,224.64,-602.814,0,0
239606.475,225.96,-601.006,0,0
239866.8,227.26,-599.378,0,0
240127.125,228.538,-597.883,0,0
240387.45,229.944,-596.314,0,0
240647.775,231.393,-594.791,0,0
240908.1,232.759,-593.48,0,0
241168.425,234.248,-592.125,0,0
241428.75,235.783,-590.921,0,0
241689.075,237.281,-589.716,0,0
241949.4,238.788,-588.594,0,0
242209.725,240.259,-587.581,0,0
242470.05,241.881,-586.522,0,0
242730.375,243.444,-585.535,0,0
242990.7,245.118,-584.599,0,0
243251.025,246.831,-583.68,0,0
243511.35,248.686,-582.918,0,0
243771.675,250.615,-582.171,0,0
244032.0,252.577,-581.553,0,0
244292.325,254.748,-581.176,0,0
244552.65,256.929,-580.995,0,0
244812.975,259.015,-580.933,0,0
245073.3,261.131,-581.173,0,0
245333.625,263.082,-581.609,0,0
245593.95,265.01,-582.26,0,0
245854.275,266.809,-582.925,0,0
246114.6,268.442,-583.813,0,0
246374.925,269.882,-584.688,0,0
246635.25,271.326,-585.537,0,0
246895.575,272.673,-586.589,0,0
247155.9,273.785,-587.51,0,0
247416.225,274.962,-588.476,0,0
247676.55,276.039,-589.523,0,0
247936.875,277.128,-590.704,0,0
248197.2,278.029,-591.838,0,0
248457.525,278.764,-592.893,0,0
248717.85,279.576,-594.058,0,0
248978.175,280.384,-595.117,0,0
249238.5,280.949,-596.169,0,0
249498.825,281.658,-597,0,0
249759.15,282.446,-598.063,0,0
250019.475,283.262,-599.03,0,0
250279.8,284.334,-600.297,0,0
250540,285.327,-601.407,0,0
250800,286.43,-602.976,0,0
251061,287.446,-604.516,0,0
251321,288.249,-606.451,0,0
251581,288.999,-608.307,0,0
251842,289.632,-610.274,0,0
252102,290.196,-612.38,0,0
252362,290.7,-614.488,0,0
252623,291.032,-616.776,0,0
252883,291.349,-619.077,0,0
253143,291.536,-621.552,0,0
253404,291.556,-624.131,0,0
253664,291.493,-626.894,0,0
253924,291.238,-629.741,0,0
254185,290.679,-632.64,0,0
254445,289.909,-635.837,0,0
254705,288.86,-638.782,0,0
254966,287.57,-641.7,0,0
255226,285.944,-644.606,0,0
255486,284.035,-647.383,0,0
255747,281.98,-650.063,0,0
256007,279.785,-652.538,0,0
256267,277.417,-654.851,0,0
256528,274.898,-657.03,0,0
256788,272.263,-658.998,0,0
257048,269.565,-660.816,0,0
257309,266.814,-662.435,0,0
257569,263.987,-663.937,0,0
257829,261.187,-665.271,0,0
258090,258.336,-666.484,0,0
258350,255.434,-667.531,0,0
258610,252.574,-668.419,0,0
258871,249.668,-669.245,0,0
259131,246.807,-669.916,0,0
259391,243.975,-670.469,0,0
259651,240.991,-670.951,0,0
259912,238.157,-671.366,0,0
260172,235.437,-671.633,0,0
260432,232.552,-671.891,0,0
260693,229.693,-671.969,0,0
260953,227.004,-672.056,0,0
261213,224.238,-671.978,0,0
261474,221.508,-671.827,0,0
261734,218.817,-671.579,0,0
261994,216.165,-671.283,0,0
262255,213.586,-670.917,0,0
262515,210.996,-670.451,0,0
262775,208.461,-669.95,0,0
263036,205.934,-669.397,0,0
263296,203.542,-668.796,0,0
263556,201.146,-668.143,0,0
263817,198.689,-667.604,0,0
264077,196.476,-666.65,0,0
264337,194.115,-666.003,0,0
264598,192.005,-665.234,0,0
264858,189.716,-664.243,0,0
265118,187.565,-663.386,0,0
265379,185.45,-662.486,0,0
265639,183.429,-661.525,0,0
265899,181.439,-660.486,0,0
266160,179.422,-659.534,0,0
266420,177.437,-658.572,0,0
266680.25,175.668,-657.493,0,0
266940.575,173.658,-656.523,0,0
267200.9,171.804,-655.457,0,0
267461.225,169.988,-654.414,0,0
267721.55,168.148,-653.309,0,0
267981.875,166.428,-652.235,0,0
268242.2,164.711,-651.161,0,0
268502.525,162.978,-650.082,0,0
268762.85,161.259,-648.942,0,0
269023.175,159.657,-647.727,0,0
269283.5,158.033,-646.672,0,0
269543.825,156.347,-645.352,0,0
269804.15,154.777,-644.203,0,0
270064.475,153.212,-643.131,0,0
270324.8,151.828,-641.812,0,0
270585.125,150.267,-640.602,0,0
270845.45,148.751,-639.432,0,0
271105.775,147.383,-638.184,0,0
271366.1,145.998,-636.911,0,0
271626.425,144.581,-635.681,0,0
271886.75,143.214,-634.452,0,0
272147.075,141.861,-633.17,0,0
272407.4,140.521,-631.931,0,0
272667.725,139.322,-630.59,0,0
272928.05,137.97,-629.394,0,0
273188.375,136.762,-628.059,0,0
273448.7,135.527,-626.81,0,0
273709.025,134.33,-625.518,0,0
273969.35,133.171,-624.238,0,0
274229.675,131.946,-622.949,0,0
274490.0,130.877,-621.699,0,0
274750.325,129.782,-620.356,0,0
275010.65,128.683,-619.053,0,0
275270.975,127.513,-617.842,0,0
275531.3,126.489,-616.526,0,0
275791.625,125.451,-615.242,0,0
276051.95,124.437,-613.96,0,0
276312.275,123.481,-612.678,0,0
276572.6,122.482,-611.379,0,0
276832.925,121.509,-610.091,0,0
277093.25,120.547,-608.769,0,0
277353.575,119.617,-607.504,0,0
277613.9,118.711,-606.206,0,0
277874.225,117.819,-604.891,0,0
278134.55,116.926,-603.571,0,0
278394.875,116.036,-602.277,0,0
278655.2,115.151,-600.941,0,0
278915.525,114.323,-599.63,0,0
279175.85,113.534,-598.265,0,0
279436.175,112.732,-596.903,0,0
279696.5,111.951,-595.565,0,0
279956.825,111.25,-594.159,0,0
280217.15,110.592,-592.757,0,0
280477.475,110.02,-591.394,0,0
280737.8,109.46,-590.033,0,0
280998.125,108.955,-588.729,0,0
281258.45,108.474,-587.486,0,0
281518.775,108.014,-586.282,0,0
281779.1,107.553,-585.105,0,0
282039.425,107.086,-583.978,0,0
282299.75,106.6,-582.862,0,0
282560,106.104,-581.742,0,0
282820,105.54,-580.697,0,0
283081,104.948,-579.619,0,0
283341,104.499,-578.432,0,0
283601,103.983,-577.369,0,0
283862,103.48,-576.255,0,0
284122,102.97,-575.053,0,0
284382,102.491,-573.993,0,0
284643,102.042,-572.803,0,0
284903,101.625,-571.703,0,0
285163,101.359,-570.621,0,0
285424,100.992,-569.538,0,0
285684,100.714,-568.431,0,0
285944,100.446,-567.381,0,0
286205,100.126,-566.488,0,0
286465,99.8525,-565.617,0,0
286725,99.6051,-564.752,0,0
286986,99.3035,-563.916,0,0
287246,98.8532,-563.116,0,0
287506,98.4175,-562.347,0,0
287767,97.9492,-561.624,0,0
288027,97.5645,-560.822,0,0
288287,97.0712,-559.932,0,0
288548,96.4917,-559.16,0,0
288808,96.0024,-558.248,0,0
289068,95.4659,-557.418,0,0
289329,94.9511,-556.541,0,0
289589,94.4767,-555.599,0,0
289849,93.9667,-554.689,0,0
290109,93.5722,-553.763,0,0
290370,93.0274,-552.859,0,0
290630,92.6263,-552.018,0,0
290890,92.249,-551.089,0,0
291151,91.738,-550.179,0,0
291411,91.3703,-549.318,0,0
291671,91.0256,-548.427,0,0
291932,90.5261,-547.672,0,0
292192,90.1764,-546.797,0,0
292452,89.7788,-545.943,0,0
292713,89.3088,-545.218,0,0
292973,88.8585,-544.336,0,0
293233,88.4413,-543.563,0,0
293494,87.9787,-542.753,0,0
293754,87.5568,-541.949,0,0
294014,87.0161,-541.212,0,0
294275,86.4869,-540.336,0,0
294535,85.9369,-539.495,0,0
294795,85.3922,-538.634,0,0
295056,84.849,-537.852,0,0
295316,84.3732,-536.853,0,0
295576,83.7897,-535.973,0,0
295837,83.264,-535.109,0,0
296097,82.7285,-534.032,0,0
296357,82.2881,-533.119,0,0
296618,81.7583,-532.049,0,0
296878,81.2491,-531.035,0,0
297138,80.9329,-529.907,0,0
297399,80.5055,-528.872,0,0
297659,80.1742,-527.83,0,0
297919,79.9532,-526.703,0,0
298180,79.7036,-525.667,0,0
298440,79.5037,-524.693,0,0
298700.2,79.3874,-523.784,0,0
298960.525,79.2044,-522.839,0,0
299220.85,79.0688,-522.026,0,0
299481.175,78.8725,-521.219,0,0
299741.5,78.7539,-520.452,0,0
300001.825,78.533,-519.584,0,0
300262.15,78.2457,-518.916,0,0
300522.475,77.9335,-518.171,0,0
300782.8,77.6616,-517.429,0,0
301043.125,77.381,-516.602,0,0
301303.45,77.0741,-515.877,0,0
301563.775,76.7734,-515.021,0,0
301824.1,76.4586,-514.279,0,0
302084.425,76.1483,-513.426,0,0
302344.75,75.8435,-512.626,0,0
302605.075,75.535,-511.833,0,0
302865.4,75.3052,-510.985,0,0
303125.725,74.9826,-510.229,0,0
303386.05,74.7112,-509.318,0,0
303646.375,74.4146,-508.495,0,0
303906.7,74.1681,-507.672,0,0
304167.025,73.8933,-506.857,0,0
304427.35,73.705,-506.066,0,0
304687.675,73.5168,-505.229,0,0
304948.0,73.3358,-504.429,0,0
305208.325,73.0888,-503.618,0,0
305468.65,72.9012,-502.932,0,0
305728.975,72.7195,-502.185,0,0
305989.3,72.5101,-501.372,0,0
306249.625,72.3052,-500.701,0,0
306509.95,72.0571,-500.054,0,0
306770.275,71.8841,-499.317,0,0
307030.6,71.6759,-498.608,0,0
307290.925,71.3708,-497.967,0,0
307551.25,71.09,-497.271,0,0
307811.575,70.8742,-496.553,0,0
308071.9,70.5666,-495.768,0,0
308332.225,70.3287,-495.103,0,0
308592.55,70.0072,-494.367,0,0
308852.875,69.7784,-493.6,0,0
309113.2,69.5307,-492.879,0,0
309373.525,69.3205,-492.115,0,0
309633.85,69.034,-491.415,0,0
309894.175,68.7803,-490.681,0,0
310154.5,68.5249,-489.963,0,0
310414.825,68.3089,-489.208,0,0
310675.15,68.0523,-488.538,0,0
310935.475,67.7519,-487.855,0,0
311195.8,67.6222,-487.077,0,0
311456.125,67.3468,-486.345,0,0
311716.45,67.0747,-485.672,0,0
311976.775,66.8285,-484.954,0,0
312237.1,66.5862,-484.254,0,0
312497.425,66.3301,-483.509,0,0
312757.75,66.0888,-482.797,0,0
313018.075,65.8816,-482.125,0,0
313278.4,65.5987,-481.379,0,0
313538.725,65.3993,-480.715,0,0
313799.05,65.1265,-479.933,0,0
314059.375,64.8784,-479.215,0,0
314319.7,64.705,-478.484,0,0
314580,64.4441,-477.765,0,0
314840,64.2406,-477.061,0,0
315101,63.9676,-476.255,0,0
315361,63.742,-475.526,0,0
315621,63.6032,-474.889,0,0
315882,63.4015,-474.103,0,0
316142,63.1948,-473.415,0,0
316402,62.9866,-472.723,0,0
316663,62.7943,-471.984,0,0
316923,62.5331,-471.305,0,0
317183,62.4035,-470.585,0,0
317444,62.1687,-469.907,0,0
317704,61.9734,-469.203,0,0
317964,61.7826,-468.516,0,0
318225,61.5984,-467.776,0,0
318485,61.4067,-467.124,0,0
318745,61.1522,-466.431,0,0
319006,61.014,-465.703,0,0
319266,60.8126,-464.968,0,0
319526,60.5983,-464.224,0,0
319787,60.4642,-463.547,0,0
320047,60.3049,-462.833,0,0
320307,60.0612,-462.168,0,0
320567,59.9496,-461.447,0,0
320828,59.7884,-460.753,0,0
321088,59.6047,-460.002,0,0
321348,59.4633,-459.326,0,0
321609,59.2952,-458.627,0,0
321869,59.1532,-457.953,0,0
322129,58.9964,-457.255,0,0
322390,58.871,-456.562,0,0
322650,58.7493,-455.877,0,0
322910,58.5883,-455.262,0,0
323171,58.4431,-454.587,0,0
323431,58.3563,-453.879,0,0
323691,58.1856,-453.22,0,0
323952,58.0537,-452.623,0,0
324212,57.9222,-451.963,0,0
324472,57.7372,-451.3,0,0
324733,57.6289,-450.728,0,0
324993,57.4716,-449.994,0,0
325253,57.2926,-449.405,0,0
325514,57.136,-448.755,0,0
325774,56.9954,-448.104,0,0
326034,56.8683,-447.546,0,0
326295,56.6642,-446.85,0,0
326555,56.5193,-446.203,0,0
326815,56.3163,-445.49,0,0
327076,56.2021,-444.879,0,0
327336,56.0656,-444.222,0,0
327596,55.8861,-443.574,0,0
327857,55.725,-442.856,0,0
328117,55.5823,-442.226,0,0
328377,55.4032,-441.557,0,0
328638,55.2829,-440.93,0,0
328898,55.1663,-440.217,0,0
329158,54.9912,-439.625,0,0
329419,54.8685,-438.932,0,0
329679,54.7018,-438.271,0,0
329939,54.6199,-437.629,0,0
330200,54.5041,-436.969,0,0
330460,54.3315,-436.244,0,0
330720.15,54.2272,-435.656,0,0
330980.475,54.1128,-434.967,0,0
331240.8,54.0219,-434.341,0,0
331501.125,53.8764,-433.653,0,0
331761.45,53.7891,-432.985,0,0
332021.775,53.6677,-432.349,0,0
332282.1,53.5921,-431.622,0,0
332542.425,53.4642,-431.007,0,0
332802.75,53.3817,-430.333,0,0
333063.075,53.3012,-429.685,0,0
333323.4,53.1731,-429.094,0,0
333583.725,53.0785,-428.425,0,0
333844.05,53.0111,-427.771,0,0
334104.375,52.9322,-427.136,0,0
334364.7,52.8799,-426.524,0,0
334625.025,52.7718,-425.854,0,0
334885.35,52.6674,-425.223,0,0
335145.675,52.6276,-424.602,0,0
335406.0,52.5993,-423.997,0,0
335666.325,52.488,-423.378,0,0
335926.65,52.3903,-422.724,0,0
336186.975,52.3271,-422.171,0,0
336447.3,52.242,-421.504,0,0
336707.625,52.2021,-420.915,0,0
336967.95,52.121,-420.34,0,0
337228.275,52.0118,-419.726,0,0
337488.6,51.948,-419.071,0,0
337748.925,51.8947,-418.521,0,0
338009.25,51.8709,-417.846,0,0
338269.575,51.7317,-417.289,0,0
338529.9,51.6912,-416.621,0,0
338790.225,51.6,-416.072,0,0
339050.55,51.5583,-415.442,0,0
339310.875,51.4805,-414.853,0,0
339571.2,51.3896,-414.2,0,0
339831.525,51.3341,-413.645,0,0
340091.85,51.2701,-413.013,0,0
340352.175,51.2255,-412.378,0,0
340612.5,51.1541,-411.814,0,0
340872.825,51.162,-411.194,0,0
341133.15,51.0881,-410.514,0,0
341393.475,51.0202,-409.968,0,0
341653.8,50.9919,-409.317,0,0
341914.125,50.9896,-408.688,0,0
342174.45,50.9428,-408.108,0,0
342434.775,50.897,-407.487,0,0
342695.1,50.8988,-406.883,0,0
342955.425,50.9222,-406.327,0,0
343215.75,50.9567,-405.774,0,0
343476.075,50.9643,-405.186,0,0
343736.4,50.971,-404.653,0,0
343996.725,50.9492,-404.141,0,0
344257.05,50.9218,-403.616,0,0
344517.375,50.9072,-403.065,0,0
344777.7,50.8703,-402.561,0,0
345038.025,50.7473,-402.022,0,0
345298.35,50.7159,-401.501,0,0
345558.675,50.6307,-400.932,0,0
345819.0,50.5461,-400.368,0,0
346079.325,50.5027,-399.807,0,0
346339.65,50.4528,-399.207,0,0
346599.975,50.4235,-398.658,0,0
346860,50.3751,-398.067,0,0
347121,50.3312,-397.493,0,0
347381,50.3341,-396.858,0,0
347641,50.2604,-396.337,0,0
347902,50.2599,-395.753,0,0
348162,50.2697,-395.178,0,0
348422,50.2546,-394.639,0,0
348683,50.2662,-393.997,0,0
348943,50.2685,-393.436,0,0
349203,50.2691,-392.932,0,0
349464,50.2656,-392.319,0,0
349724,50.2572,-391.764,0,0
349984,50.3056,-391.234,0,0
350245,50.3293,-390.713,0,0
350505,50.3482,-390.144,0,0
350765,50.3713,-389.648,0,0
351025,50.3775,-389.089,0,0
351286,50.4478,-388.587,0,0
351546,50.4415,-388.067,0,0
351806,50.4913,-387.566,0,0
352067,50.5235,-387.042,0,0
352327,50.5462,-386.538,0,0
352587,50.5623,-386.019,0,0
352848,50.6021,-385.529,0,0
353108,50.65,-385.055,0,0
353368,50.6359,-384.543,0,0
353629,50.6979,-384.079,0,0
353889,50.7105,-383.65,0,0
354149,50.7614,-383.179,0,0
354410,50.7631,-382.711,0,0
354670,50.7579,-382.256,0,0
354930,50.7621,-381.856,0,0
355191,50.7554,-381.362,0,0
355451,50.7643,-380.896,0,0
355711,50.7769,-380.494,0,0
355972,50.738,-380.054,0,0
356232,50.6987,-379.58,0,0
356492,50.6824,-379.161,0,0
356753,50.6695,-378.711,0,0
357013,50.6396,-378.237,0,0
357273,50.5738,-377.79,0,0
357534,50.5571,-377.297,0,0
357794,50.5215,-376.858,0,0
358054,50.47,-376.404,0,0
358315,50.462,-375.898,0,0
358575,50.4312,-375.488,0,0
358835,50.416,-375.02,0,0
359096,50.3749,-374.552,0,0
359356,50.377,-374.087,0,0
359616,50.3203,-373.644,0,0
359877,50.3167,-373.155,0,0
360137,50.2502,-372.726,0,0
360397,50.1863,-372.263,0,0
360658,50.2171,-371.856,0,0
360918,50.1176,-371.408,0,0
361178,50.077,-370.959,0,0
361438,49.983,-370.469,0,0
361699,49.9226,-370.031,0,0
361959,49.929,-369.518,0,0
362219,49.7993,-369.052,0,0
362480,49.7665,-368.562,0,0
362740.1,49.6847,-368.084,0,0
363000.425,49.687,-367.594,0,0
363260.75,49.6244,-367.152,0,0
363521.075,49.5546,-366.665,0,0
363781.4,49.5404,-366.126,0,0
364041.725,49.5078,-365.663,0,0
364302.05,49.5143,-365.178,0,0
364562.375,49.4659,-364.657,0,0
364822.7,49.4476,-364.18,0,0
365083.025,49.4234,-363.681,0,0
365343.35,49.3698,-363.183,0,0
365603.675,49.3519,-362.704,0,0
365864.0,49.333,-362.229,0,0
366124.325,49.3799,-361.717,0,0
366384.65,49.333,-361.237,0,0
366644.975,49.3362,-360.769,0,0
366905.3,49.3224,-360.258,0,0
367165.625,49.3238,-359.781,0,0
367425.95,49.3215,-359.344,0,0
367686.275,49.3226,-358.889,0,0
367946.6,49.3238,-358.419,0,0
368206.925,49.3187,-357.984,0,0
368467.25,49.3099,-357.495,0,0
368727.575,49.2946,-357.022,0,0
368987.9,49.3071,-356.578,0,0
369248.225,49.2908,-356.122,0,0
369508.55,49.2393,-355.638,0,0
369768.875,49.2621,-355.193,0,0
370029.2,49.2652,-354.733,0,0
370289.525,49.2589,-354.255,0,0
370549.85,49.2486,-353.78,0,0
370810.175,49.2739,-353.311,0,0
371070.5,49.2398,-352.843,0,0
371330.825,49.2999,-352.374,0,0
371591.15,49.3,-351.974,0,0
371851.475,49.3251,-351.462,0,0
372111.8,49.3416,-351.017,0,0
372372.125,49.3836,-350.59,0,0
372632.45,49.4205,-350.167,0,0
372892.775,49.4531,-349.776,0,0
373153.1,49.4904,-349.347,0,0
373413.425,49.4759,-348.949,0,0
373673.75,49.5154,-348.571,0,0
373934.075,49.4909,-348.174,0,0
374194.4,49.4975,-347.852,0,0
374454.725,49.4849,-347.46,0,0
374715.05,49.4094,-347.105,0,0
374975.375,49.3703,-346.756,0,0
375235.7,49.2896,-346.324,0,0
375496.025,49.1919,-345.927,0,0
375756.35,49.1347,-345.529,0,0
376016.675,49.0199,-345.095,0,0
376277.0,48.9283,-344.689,0,0
376537.325,48.8558,-344.248,0,0
376797.65,48.7443,-343.792,0,0
377057.975,48.6942,-343.31,0,0
377318.3,48.5857,-342.858,0,0
377578.625,48.5345,-342.398,0,0
377838.95,48.4617,-341.936,0,0
378099.275,48.3804,-341.45,0,0
378359.6,48.3359,-341.004,0,0
378619.925,48.2679,-340.513,0,0
378880,48.1803,-340.042,0,0
379141,48.1255,-339.542,0,0
379401,48.0788,-339.06,0,0
379661,48.016,-338.553,0,0
379922,47.9282,-338.091,0,0
380182,47.8998,-337.587,0,0
380442,47.8145,-337.083,0,0
380703,47.7869,-336.574,0,0
380963,47.7152,-336.058,0,0
381223,47.7036,-335.508,0,0
381483,47.675,-334.966,0,0
381744,47.675,-334.449,0,0
382004,47.6517,-333.882,0,0
382264,47.6691,-333.37,0,0
382525,47.6743,-332.85,0,0
382785,47.7711,-332.296,0,0
383045,47.8162,-331.802,0,0
383306,47.8632,-331.333,0,0
383566,47.9599,-330.905,0,0
383826,48.0474,-330.528,0,0
384087,48.0088,-330.116,0,0
384347,48.0175,-329.701,0,0
384607,47.9834,-329.296,0,0
384868,47.941,-328.872,0,0
385128,47.8794,-328.381,0,0
385388,47.7989,-327.926,0,0
385649,47.7938,-327.524,0,0
385909,47.7147,-327.011,0,0
386169,47.71,-326.525,0,0
386430,47.7045,-326.026,0,0
386690,47.6525,-325.541,0,0
386950,47.6218,-325.071,0,0
387211,47.591,-324.574,0,0
387471,47.5716,-324.089,0,0
387731,47.5171,-323.578,0,0
387992,47.5095,-323.095,0,0
388252,47.5048,-322.595,0,0
388512,47.4771,-322.103,0,0
388773,47.4662,-321.595,0,0
389033,47.4703,-321.089,0,0
389293,47.4435,-320.601,0,0
389554,47.4358,-320.059,0,0
389814,47.4359,-319.59,0,0
390074,47.426,-319.077,0,0
390335,47.4252,-318.586,0,0
390595,47.4324,-318.07,0,0
390855,47.4193,-317.552,0,0
391116,47.4097,-317.065,0,0
391376,47.4086,-316.543,0,0
391636,47.404,-316.025,0,0
391896,47.4002,-315.53,0,0
392157,47.3954,-315.035,0,0
392417,47.4209,-314.491,0,0
392677,47.4298,-314.005,0,0
392938,47.4322,-313.463,0,0
393198,47.45,-312.972,0,0
393458,47.4605,-312.436,0,0
393719,47.4569,-311.92,0,0
393979,47.4791,-311.416,0,0
394239,47.4564,-310.875,0,0
394500,47.4841,-310.344,0,0
394760.05,47.52,-309.822,0,0
395020.375,47.5299,-309.309,0,0
395280.7,47.5392,-308.768,0,0
395541.025,47.562,-308.248,0,0
395801.35,47.5965,-307.725,0,0
396061.675,47.6222,-307.19,0,0
396322.0,47.668,-306.665,0,0
396582.325,47.6943,-306.095,0,0
396842.65,47.6971,-305.587,0,0
397102.975,47.7658,-305.038,0,0
397363.3,47.7931,-304.509,0,0
397623.625,47.8481,-303.986,0,0
397883.95,47.8614,-303.427,0,0
398144.275,47.9277,-302.887,0,0
398404.6,47.9433,-302.365,0,0
398664.925,47.9992,-301.806,0,0
398925.25,48.0477,-301.275,0,0
399185.575,48.0997,-300.731,0,0
399445.9,48.1633,-300.192,0,0
399706.225,48.2302,-299.657,0,0
399966.55,48.2748,-299.093,0,0
400006.6,48.295,-299.011,0,0