File: Accelerated corrosion test data/2025-10-12_06-00-03/sample_4.csv
Frequency (Hz),Impedance (ohms),Phase (Radians),Temperature (C),Humidity (%)
10000.0,262.51,-11871.1,0,0
10260.325,259.399,-11571.9,0,0
10520.65,249.982,-11288.9,0,0
10780.975,243.766,-11017.9,0,0
11041.3,238.858,-10759.2,0,0
11301.625,233.544,-10517,0,0
11561.95,228.207,-10280.7,0,0
11822.275,223.478,-10055.6,0,0
12082.6,218.886,-9840.83,0,0
12342.925,214.671,-9634.07,0,0
12603.25,212.111,-9434.7,0,0
12863.575,207.629,-9248.51,0,0
13123.9,206.198,-9068.68,0,0
13384.225,198.906,-8890.63,0,0
13644.55,195.141,-8720.11,0,0
13904.875,191.864,-8555.16,0,0
14165.2,192.807,-8392.28,0,0
14425.525,199.198,-8248.05,0,0
14685.8,202.831,-8128.87,0,0
14946.175,181.108,-7973.45,0,0
15206.5,180.802,-7829.57,0,0
15466.825,185.689,-7689.8,0,0
15727.15,191.096,-7586.71,0,0
15987.5,188.616,-7471.99,0,0
16247.8,170.261,-7342.68,0,0
16508.125,182.308,-7214.45,0,0
16768.45,176.684,-7114.35,0,0
17028.775,172.294,-7027.02,0,0
17289.1,160.425,-6913.22,0,0
17549.425,157.911,-6808.92,0,0
17809.75,156.08,-6709.05,0,0
18070.075,151.137,-6608.87,0,0
18330.4,152.846,-6513.19,0,0
18590.725,152.937,-6424.67,0,0
18851.05,150.11,-6340.72,0,0
19111.375,144.824,-6251.7,0,0
19371.7,142.172,-6166.1,0,0
19632.025,141.054,-6082.13,0,0
19892.35,143.334,-6001.13,0,0
20152.675,142.959,-5924.19,0,0
20413.0,140.144,-5851.21,0,0
20673.3,140.191,-5776.28,0,0
20933.65,136.721,-5703.05,0,0
21193.975,139.017,-5628.39,0,0
21454.3,151.107,-5561.09,0,0
21714.625,145.602,-5506.21,0,0
21974.9,146.272,-5434.17,0,0
22235.275,148.484,-5389.15,0,0
22495.6,135.887,-5333.44,0,0
22755.925,127.792,-5268.06,0,0
23016.25,124.829,-5206.17,0,0
23276.6,122.475,-5146.34,0,0
23536.9,120.144,-5088.87,0,0
23797.225,118.501,-5031.49,0,0
24057.55,116.801,-4976.11,0,0
24317.875,115.892,-4922.05,0,0
24578.2,114.326,-4867.77,0,0
24838.525,114.147,-4816.1,0,0
25098.85,113.58,-4765.57,0,0
25359.175,112.62,-4717.92,0,0
25619.5,111.218,-4668.21,0,0
25879.8,110.289,-4624.25,0,0
26140.1,107.796,-4575.97,0,0
26400.5,106.697,-4529.06,0,0
26660.8,106.024,-4483.17,0,0
26921.1,106.142,-4439.22,0,0
27181.4,105.083,-4394.46,0,0
27441.8,105.379,-4350.04,0,0
27702.1,108.595,-4305.55,0,0
27962.4,113.688,-4263.41,0,0
28222.7,122.097,-4234.89,0,0
28483.1,113.134,-4201.35,0,0
28743.4,108.761,-4160.6,0,0
29003.7,111.613,-4118.25,0,0
29264,116.603,-4088.5,0,0
29524.4,111.545,-4057.27,0,0
29784.7,108.918,-4026.43,0,0
30045,105.895,-3988.16,0,0
30305.3,101.871,-3954.78,0,0
30565.7,99.1852,-3919.71,0,0
30826,97.8863,-3884.53,0,0
31086.3,97.6316,-3850.63,0,0
31346.6,98.323,-3817.38,0,0
31607,96.8457,-3787.21,0,0
31867.3,97.0255,-3754.9,0,0
32127.6,99.4183,-3724.2,0,0
32387.9,98.0411,-3698.31,0,0
32648.3,96.1875,-3668.13,0,0
32908.6,94.8462,-3641.6,0,0
33168.9,92.4693,-3612.78,0,0
33429.2,89.5493,-3584.22,0,0
33689.6,88.1652,-3554.71,0,0
33949.9,86.9936,-3526.47,0,0
34210.2,87.3602,-3498.41,0,0
34470.5,85.9428,-3472.63,0,0
34730.9,84.6943,-3445.74,0,0
34991.2,84.17,-3418.59,0,0
35251.5,83.744,-3392.99,0,0
35511.8,82.9748,-3367.91,0,0
35772.2,82.5103,-3342.47,0,0
36032.5,81.4378,-3317.84,0,0
36292.8,80.8963,-3293.24,0,0
36553.1,80.228,-3268.96,0,0
36813.5,80.1908,-3244.5,0,0
37073.8,80.0679,-3221.98,0,0
37334.1,79.4823,-3198.95,0,0
37594.4,79.2705,-3176.18,0,0
37854.8,78.8318,-3153.97,0,0
38115.1,77.8512,-3132.11,0,0
38375.4,77.0228,-3109.82,0,0
38635.7,76.8165,-3087.52,0,0
38896.1,76.9675,-3065.94,0,0
39156.4,76.7174,-3045.11,0,0
39416.7,76.2339,-3024.04,0,0
39677,76.0327,-3002.93,0,0
39937.4,76.5253,-2981.8,0,0
40197.7,78.146,-2961.38,0,0
40458,79.3464,-2942.75,0,0
40718.3,79.1814,-2925.24,0,0
40978.7,78.6349,-2905.79,0,0
41239,79.9135,-2887.56,0,0
41499.3,81.7422,-2870.06,0,0
41759.6,78.677,-2854.75,0,0
42020,77.5075,-2835.85,0,0
42280.275,76.6987,-2816.93,0,0
42540.6,78.2787,-2799.3,0,0
42800.925,77.8382,-2784.76,0,0
43061.25,75.4553,-2767.19,0,0
43321.575,75.5195,-2749.79,0,0
43581.9,74.4152,-2733.45,0,0
43842.225,73.217,-2716.06,0,0
44102.55,73.5889,-2699.7,0,0
44362.875,72.1498,-2683.34,0,0
44623.2,72.1826,-2666.43,0,0
44883.525,71.9331,-2651.05,0,0
45143.85,70.9203,-2634.98,0,0
45404.175,70.2534,-2618.56,0,0
45664.5,70.8326,-2601.84,0,0
45924.825,72.2166,-2587.27,0,0
46185.15,71.7609,-2573.76,0,0
46445.475,70.1917,-2557.99,0,0
46705.8,71.2039,-2543.02,0,0
46966.125,71.1496,-2529.13,0,0
47226.45,70.7372,-2514.68,0,0
47486.775,71.2699,-2501.25,0,0
47747.1,69.9268,-2487.94,0,0
48007.425,69.235,-2473.56,0,0
48267.75,68.496,-2460.75,0,0
48528.075,67.663,-2446.62,0,0
48788.4,66.7227,-2432.43,0,0
49048.725,65.9627,-2418.93,0,0
49309.05,65.8652,-2404.68,0,0
49569.375,65.5088,-2391.94,0,0
49829.7,64.7741,-2378.08,0,0
50090.025,64.6387,-2364.77,0,0
50350.35,64.2049,-2351.39,0,0
50610.675,64.1275,-2338.45,0,0
50871.0,63.8174,-2325.49,0,0
51131.325,63.6428,-2312.54,0,0
51391.65,63.4874,-2299.7,0,0
51651.975,63.449,-2286.65,0,0
51912.3,63.65,-2274.38,0,0
52172.625,63.8234,-2261.44,0,0
52432.95,64.0634,-2249.34,0,0
52693.275,64.2751,-2236.51,0,0
52953.6,65.3486,-2223.99,0,0
53213.925,66.0919,-2212.07,0,0
53474.25,67.3422,-2200.09,0,0
53734.575,68.8708,-2188.48,0,0
53994.9,71.2083,-2177.12,0,0
54255.225,73.5435,-2167.4,0,0
54515.55,75.6451,-2158.79,0,0
54775.875,75.6221,-2151.48,0,0
55036.2,74.2955,-2142.92,0,0
55296.525,73.2287,-2133.18,0,0
55556.85,71.8906,-2124.53,0,0
55817.175,69.8217,-2114.25,0,0
56077.5,68.4066,-2103.92,0,0
56337.825,67.0243,-2092.99,0,0
56598.15,65.8063,-2081.88,0,0
56858.475,65.361,-2070.67,0,0
57118.8,65.4678,-2059.71,0,0
57379.125,65.7467,-2048.9,0,0
57639.45,66.0703,-2038.92,0,0
57899.775,66.2947,-2028.5,0,0
58160.1,66.4118,-2018.36,0,0
58420.4,67.2553,-2008.17,0,0
58680.7,68.0405,-1999.21,0,0
58941.1,67.3527,-1988.97,0,0
59201.4,68.4174,-1978.08,0,0
59461.7,70.4199,-1967.9,0,0
59722,73.0618,-1959.06,0,0
59982.4,75.3596,-1951.18,0,0
60242.7,76.6101,-1944.48,0,0
60503,77.3134,-1936.99,0,0
60763.3,79.1781,-1929.59,0,0
61023.7,80.2897,-1925.47,0,0
61284,78.2243,-1920.6,0,0
61544.3,74.6651,-1914.76,0,0
61804.6,71.2948,-1905.39,0,0
62065,69.912,-1896.71,0,0
62325.3,68.4137,-1888.44,0,0
62585.6,65.9157,-1879.72,0,0
62845.9,64.8818,-1869.14,0,0
63106.3,64.6382,-1860.6,0,0
63366.6,63.9991,-1851.27,0,0
63626.9,64.0321,-1841.94,0,0
63887.2,64.6332,-1834.25,0,0
64147.6,63.2816,-1825.6,0,0
64407.9,63.6347,-1816.31,0,0
64668.2,64.2774,-1807.88,0,0
64928.5,64.8068,-1799.67,0,0
65188.9,65.0084,-1792.03,0,0
65449.2,65.2854,-1783.97,0,0
65709.5,65.0615,-1776.01,0,0
65969.8,66.0039,-1767.39,0,0
66230.2,67.2056,-1760.1,0,0
66490.5,67.7333,-1752.84,0,0
66750.8,68.4833,-1745.58,0,0
67011.1,69.042,-1738.2,0,0
67271.5,70.2432,-1731.15,0,0
67531.8,71.357,-1724.69,0,0
67792.1,72.1972,-1718.63,0,0
68052.4,73.1017,-1712.96,0,0
68312.8,73.2432,-1707.42,0,0
68573.1,73.5746,-1702.15,0,0
68833.4,73.0324,-1697.47,0,0
69093.7,71.332,-1692.57,0,0
69354.1,69.306,-1686.55,0,0
69614.4,67.0717,-1679.64,0,0
69874.7,66.1967,-1672.19,0,0
70135,65.4245,-1665.41,0,0
70395.4,64.0723,-1658.51,0,0
70655.7,63.7117,-1650.2,0,0
70916,64.7638,-1643.64,0,0
71176.3,64.4244,-1638.04,0,0
71436.7,64.0641,-1631.93,0,0
71697,63.4903,-1626.13,0,0
71957.3,62.0973,-1620.22,0,0
72217.6,60.4584,-1613.83,0,0
72478,59.174,-1606.61,0,0
72738.3,58.1633,-1599.47,0,0
72998.6,57.4986,-1592.01,0,0
73258.9,57.0883,-1584.43,0,0
73519.3,57.2939,-1577.09,0,0
73779.6,57.6939,-1570.28,0,0
74039.9,57.9082,-1563.4,0,0
74300.225,58.378,-1557.03,0,0
74560.55,58.4933,-1550.35,0,0
74820.875,59.0045,-1543.94,0,0
75081.2,59.5534,-1537.37,0,0
75341.525,60.4023,-1531.47,0,0
75601.85,60.8059,-1525.79,0,0
75862.175,61.0482,-1519.94,0,0
76122.5,61.4728,-1514.12,0,0
76382.825,62.0159,-1508.41,0,0
76643.15,62.2211,-1503.08,0,0
76903.475,62.0979,-1497.3,0,0
77163.8,62.8226,-1491.02,0,0
77424.125,63.979,-1485.72,0,0
77684.45,64.7984,-1480.91,0,0
77944.775,65.3467,-1476.48,0,0
78205.1,65.2995,-1472.14,0,0
78465.425,64.9838,-1467.69,0,0
78725.75,64.4572,-1463.07,0,0
78986.075,63.7366,-1458.37,0,0
79246.4,62.8733,-1453.4,0,0
79506.725,62.0222,-1448.01,0,0
79767.05,61.4425,-1442.56,0,0
80027.375,60.8854,-1437.07,0,0
80287.7,60.6629,-1431.53,0,0
80548.025,60.445,-1426.17,0,0
80808.35,60.3794,-1420.77,0,0
81068.675,60.3215,-1415.61,0,0
81329.0,60.2789,-1410.57,0,0
81589.325,60.1184,-1405.54,0,0
81849.65,59.877,-1400.61,0,0
82109.975,59.577,-1395.59,0,0
82370.3,59.3111,-1390.56,0,0
82630.625,59.1195,-1385.53,0,0
82890.95,58.8256,-1380.51,0,0
83151.275,58.6373,-1375.65,0,0
83411.6,58.3449,-1370.61,0,0
83671.925,58.0651,-1365.6,0,0
83932.25,57.8348,-1360.6,0,0
84192.575,57.7293,-1355.62,0,0
84452.9,57.5062,-1350.84,0,0
84713.225,57.2668,-1345.92,0,0
84973.55,57.1601,-1340.98,0,0
85233.875,57.0454,-1336.2,0,0
85494.2,56.8717,-1331.44,0,0
85754.525,56.6764,-1326.64,0,0
86014.85,56.4616,-1321.89,0,0
86275.175,56.4108,-1317.06,0,0
86535.5,56.3206,-1312.43,0,0
86795.825,56.2064,-1307.83,0,0
87056.15,55.9915,-1303.26,0,0
87316.475,55.7807,-1298.62,0,0
87576.8,55.6379,-1294.17,0,0
87837.125,55.299,-1289.7,0,0
88097.45,54.8682,-1285.29,0,0
88357.775,54.1822,-1280.61,0,0
88618.1,53.7933,-1275.51,0,0
88878.425,53.6685,-1270.58,0,0
89138.75,53.4532,-1265.79,0,0
89399.075,53.2985,-1260.98,0,0
89659.4,53.2788,-1256.3,0,0
89919.725,53.3512,-1251.64,0,0
90180,53.4337,-1246.96,0,0
90440.4,53.3262,-1242.46,0,0
90700.7,53.1687,-1237.92,0,0
90961,53.1741,-1233.33,0,0
91221.3,53.1197,-1228.7,0,0
91481.7,53.1134,-1223.98,0,0
91742,53.267,-1219.4,0,0
92002.3,53.5035,-1214.87,0,0
92262.6,53.7643,-1210.33,0,0
92523,54.2063,-1206.09,0,0
92783.3,54.4925,-1201.84,0,0
93043.6,54.7033,-1197.91,0,0
93303.9,54.7461,-1194.03,0,0
93564.3,54.6659,-1190.11,0,0
93824.6,54.4942,-1186.07,0,0
94084.9,54.2489,-1182.08,0,0
94345.2,53.8157,-1177.97,0,0
94605.6,53.3902,-1173.71,0,0
94865.9,53.0633,-1169.25,0,0
95126.2,52.9313,-1164.72,0,0
95386.5,52.7215,-1160.26,0,0
95646.9,52.6634,-1155.69,0,0
95907.2,52.7622,-1151.17,0,0
96167.5,52.9399,-1146.78,0,0
96427.8,53.1163,-1142.38,0,0
96688.2,53.2956,-1138.02,0,0
96948.5,53.5224,-1133.75,0,0
97208.8,53.6677,-1129.46,0,0
97469.1,53.8546,-1125.27,0,0
97729.5,53.995,-1121.03,0,0
97989.8,54.1696,-1116.62,0,0
98250.1,54.5362,-1112.27,0,0
98510.4,54.9221,-1108.04,0,0
98770.8,55.2966,-1103.8,0,0
99031.1,55.7112,-1099.53,0,0
99291.4,56.3161,-1095.29,0,0
99551.7,57.0035,-1091.24,0,0
99812.1,57.542,-1087.35,0,0
100072,58.0194,-1083.21,0,0
100333,58.8115,-1078.98,0,0
100593,59.9995,-1075.13,0,0
100853,61.166,-1071.86,0,0
101114,61.8004,-1068.83,0,0
101374,62.3651,-1065.57,0,0
101634,62.9773,-1062.78,0,0
101895,62.9931,-1060.32,0,0
102155,62.3162,-1057.71,0,0
102415,61.1201,-1054.47,0,0
102676,59.9997,-1050.54,0,0
102936,59.0863,-1046.2,0,0
103196,58.4578,-1041.63,0,0
103457,58.0437,-1036.81,0,0
103717,58.0111,-1031.82,0,0
103977,58.4165,-1026.88,0,0
104238,59.0178,-1022.07,0,0
104498,59.7184,-1017.34,0,0
104758,60.6641,-1012.72,0,0
105019,61.7695,-1008.2,0,0
105279,63.015,-1003.87,0,0
105539,64.264,-999.705,0,0
105800,65.5299,-995.636,0,0
106060,66.8783,-991.619,0,0
106320.175,68.2675,-987.756,0,0
106580.5,69.7273,-983.966,0,0
106840.825,71.219,-980.334,0,0
107101.15,72.5812,-976.915,0,0
107361.475,73.8239,-973.426,0,0
107621.8,75.0787,-969.923,0,0
107882.125,76.5023,-966.293,0,0
108142.45,78.1179,-962.762,0,0
108402.775,79.7926,-959.37,0,0
108663.1,81.6136,-956.189,0,0
108923.425,83.382,-953.216,0,0
109183.75,85.1722,-950.334,0,0
109444.075,87.0407,-947.708,0,0
109704.4,88.674,-945.272,0,0
109964.725,90.1851,-942.91,0,0
110225.05,91.5804,-940.568,0,0
110485.375,93.0214,-938.29,0,0
110745.7,94.3404,-936.103,0,0
111006.025,95.4959,-933.912,0,0
111266.35,96.6376,-931.799,0,0
111526.675,97.7666,-929.77,0,0
111787.0,98.8044,-927.647,0,0
112047.325,99.884,-925.601,0,0
112307.65,100.926,-923.66,0,0
112567.975,101.926,-921.768,0,0
112828.3,102.826,-919.99,0,0
113088.625,103.687,-918.095,0,0
113348.95,104.403,-916.379,0,0
113609.275,105.008,-914.66,0,0
113869.6,105.65,-913.009,0,0
114129.925,106.221,-911.243,0,0
114390.25,106.682,-909.549,0,0
114650.575,107.118,-907.853,0,0
114910.9,107.543,-906.159,0,0
115171.225,107.892,-904.607,0,0
115431.55,108.065,-903.022,0,0
115691.875,108.13,-901.42,0,0
115952.2,108.113,-899.78,0,0
116212.525,108.047,-898.052,0,0
116472.85,107.916,-896.377,0,0
116733.175,107.645,-894.657,0,0
116993.5,107.292,-892.834,0,0
117253.825,106.811,-890.83,0,0
117514.15,106.379,-888.714,0,0
117774.475,105.867,-886.426,0,0
118034.8,105.42,-883.882,0,0
118295.125,105.263,-881.163,0,0
118555.45,105.262,-878.539,0,0
118815.775,105.338,-875.877,0,0
119076.1,105.645,-872.98,0,0
119336.425,106.486,-869.975,0,0
119596.75,108.098,-867.493,0,0
119857.075,109.785,-866.083,0,0
120117.4,110.907,-865.36,0,0
120377.725,111.42,-864.966,0,0
120638.05,111.438,-864.719,0,0
120898.375,110.69,-864.477,0,0
121158.7,109.27,-863.769,0,0
121419.025,107.665,-862.397,0,0
121679.35,106.178,-860.594,0,0
121939.675,104.785,-858.524,0,0
122200.0,103.524,-856.211,0,0
122460,102.422,-853.799,0,0
122721,101.429,-851.225,0,0
122981,100.748,-848.665,0,0
123241,100.052,-846.206,0,0
123502,99.3208,-843.716,0,0
123762,98.6362,-841.214,0,0
124022,98.072,-838.71,0,0
124283,97.4813,-836.195,0,0
124543,96.8925,-833.665,0,0
124803,96.3701,-831.084,0,0
125064,95.9534,-828.486,0,0
125324,95.6382,-826.07,0,0
125584,95.2627,-823.706,0,0
125845,94.8591,-821.38,0,0
126105,94.4852,-819.156,0,0
126365,94.044,-817.055,0,0
126626,93.3025,-814.946,0,0
126886,92.4252,-812.801,0,0
127146,91.5502,-810.455,0,0
127406,90.7081,-807.985,0,0
127667,89.9662,-805.589,0,0
127927,89.12,-803.349,0,0
128187,88.1206,-801.126,0,0
128448,86.7703,-798.747,0,0
128708,85.4565,-796.019,0,0
128968,84.1916,-793.272,0,0
129229,82.8513,-790.375,0,0
129489,81.5097,-787.272,0,0
129749,80.2787,-784.056,0,0
130010,79.0978,-780.717,0,0
130270,77.9786,-777.207,0,0
130530,77.0532,-773.602,0,0
130791,76.2034,-770.03,0,0
131051,75.4209,-766.406,0,0
131311,74.6882,-762.687,0,0
131572,74.1028,-758.908,0,0
131832,73.6918,-755.184,0,0
132092,73.2156,-751.552,0,0
132353,72.7641,-747.761,0,0
132613,72.432,-743.91,0,0
132873,72.2509,-740.109,0,0
133134,72.1237,-736.31,0,0
133394,72.0282,-732.539,0,0
133654,71.9542,-728.813,0,0
133915,71.9401,-724.96,0,0
134175,72.0656,-721.183,0,0
134435,72.2185,-717.416,0,0
134696,72.3731,-713.677,0,0
134956,72.5786,-709.911,0,0
135216,72.898,-706.107,0,0
135477,73.2946,-702.347,0,0
135737,73.7492,-698.677,0,0
135997,74.2502,-695.022,0,0
136258,74.7481,-691.423,0,0
136518,75.2645,-687.863,0,0
136778,75.8578,-684.327,0,0
137039,76.4768,-680.877,0,0
137299,77.0212,-677.556,0,0
137559,77.4441,-674.214,0,0
137819,77.8002,-670.807,0,0
138080,78.1313,-667.351,0,0
138340.125,78.4629,-663.809,0,0
138600.45,78.8478,-660.109,0,0
138860.775,79.3208,-656.395,0,0
139121.1,79.8004,-652.652,0,0
139381.425,80.3726,-648.832,0,0
139641.75,81.0648,-645.019,0,0
139902.075,81.8192,-641.241,0,0
140162.4,82.5974,-637.459,0,0
140422.725,83.4541,-633.636,0,0
140683.05,84.3681,-629.803,0,0
140943.375,85.3801,-625.986,0,0
141203.7,86.4637,-622.226,0,0
141464.025,87.5891,-618.497,0,0
141724.35,88.7407,-614.818,0,0
141984.675,89.885,-611.156,0,0
142245.0,91.0863,-607.497,0,0
142505.325,92.3,-603.821,0,0
142765.65,93.551,-600.218,0,0
143025.975,94.7678,-596.542,0,0
143286.3,96.1146,-592.813,0,0
143546.625,97.4986,-589.207,0,0
143806.95,98.8475,-585.593,0,0
144067.275,100.239,-581.929,0,0
144327.6,101.639,-578.235,0,0
144587.925,103.144,-574.548,0,0
144848.25,104.695,-570.856,0,0
145108.575,106.254,-567.138,0,0
145368.9,107.879,-563.395,0,0
145629.225,109.628,-559.645,0,0
145889.55,111.459,-555.945,0,0
146149.875,113.283,-552.215,0,0
146410.2,115.144,-548.403,0,0
146670.525,117.218,-544.689,0,0
146930.85,119.33,-541.051,0,0
147191.175,121.447,-537.433,0,0
147451.5,123.641,-533.823,0,0
147711.825,125.869,-530.247,0,0
147972.15,128.109,-526.677,0,0
148232.475,130.38,-523.051,0,0
148492.8,132.797,-519.358,0,0
148753.125,135.341,-515.73,0,0
149013.45,137.98,-512.136,0,0
149273.775,140.682,-508.648,0,0
149534.1,143.337,-505.111,0,0
149794.425,146.102,-501.431,0,0
150054.75,149.146,-497.768,0,0
150315.075,152.303,-494.277,0,0
150575.4,155.55,-490.825,0,0
150835.725,158.867,-487.432,0,0
151096.05,162.301,-483.958,0,0
151356.375,166.11,-480.536,0,0
151616.7,170.105,-477.387,0,0
151877.025,174.159,-474.481,0,0
152137.35,178.136,-471.654,0,0
152397.675,182.393,-468.761,0,0
152658.0,187.061,-466.217,0,0
152918.325,191.709,-464.205,0,0
153178.65,196.167,-462.41,0,0
153438.975,200.687,-460.708,0,0
153699.3,205.284,-459.353,0,0
153959.625,209.724,-458.45,0,0
154219.95,213.857,-457.701,0,0
154480,217.84,-457.097,0,0
154741,221.541,-456.808,0,0
155001,224.693,-456.329,0,0
155261,227.624,-455.371,0,0
155522,231.082,-454.228,0,0
155782,234.724,-453.31,0,0
156042,238.392,-452.802,0,0
156303,241.745,-452.476,0,0
156563,244.927,-452.228,0,0
156823,247.682,-451.987,0,0
157084,250.257,-451.401,0,0
157344,252.92,-450.517,0,0
157604,255.724,-449.626,0,0
157864,258.467,-448.573,0,0
158125,261.545,-447.095,0,0
158385,265.092,-445.846,0,0
158645,268.785,-444.961,0,0
158906,272.477,-444.065,0,0
159166,276.589,-443.075,0,0
159426,281.269,-442.83,0,0
159687,285.593,-443.197,0,0
159947,289.906,-443.809,0,0
160207,294.198,-444.967,0,0
160468,297.933,-446.793,0,0
160728,301.1,-448.903,0,0
160988,303.652,-451.165,0,0
161249,305.358,-453.085,0,0
161509,306.61,-454.767,0,0
161769,307.652,-455.764,0,0
162030,308.762,-456.412,0,0
162290,309.866,-456.981,0,0
162550,310.999,-457.229,0,0
162811,311.955,-457.626,0,0
163071,312.772,-457.424,0,0
163331,313.806,-456.83,0,0
163592,314.938,-456.179,0,0
163852,316.241,-455.179,0,0
164112,317.792,-454.071,0,0
164373,319.63,-452.791,0,0
164633,321.832,-451.44,0,0
164893,324.291,-450.21,0,0
165154,326.938,-449.129,0,0
165414,329.573,-448.108,0,0
165674,332.398,-446.829,0,0
165935,335.597,-445.402,0,0
166195,339.286,-444.048,0,0
166455,343.373,-442.828,0,0
166716,348.133,-441.814,0,0
166976,353.329,-441.238,0,0
167236,359.165,-441.403,0,0
167497,364.974,-442.358,0,0
167757,370.967,-443.951,0,0
168017,376.899,-446.472,0,0
168277,382.761,-449.896,0,0
168538,387.74,-454.038,0,0
168798,392.28,-458.393,0,0
169058,396.674,-463.013,0,0
169319,400.819,-468.428,0,0
169579,404.042,-474.507,0,0
169839,406.515,-480.465,0,0
170100,409.106,-486.596,0,0
170360.075,411.228,-493.713,0,0
170620.4,412.151,-501.646,0,0
170880.725,411.643,-509.795,0,0
171141.05,409.648,-517.707,0,0
171401.375,406.414,-524.782,0,0
171661.7,402.654,-531.03,0,0
171922.025,398.4,-536.846,0,0
172182.35,393.415,-542.174,0,0
172442.675,387.792,-546.681,0,0
172703.0,381.822,-550.405,0,0
172963.325,375.491,-553.44,0,0
173223.65,368.751,-555.6,0,0
173483.975,361.974,-556.746,0,0
173744.3,355.144,-557.066,0,0
174004.625,348.578,-556.383,0,0
174264.95,342.456,-555.13,0,0
174525.275,336.517,-553.37,0,0
174785.6,330.91,-550.963,0,0
175045.925,325.832,-548.212,0,0
175306.25,320.972,-545.122,0,0
175566.575,316.273,-541.5,0,0
175826.9,312.111,-537.376,0,0
176087.225,308.559,-532.966,0,0
176347.55,305.493,-528.435,0,0
176607.875,302.861,-523.721,0,0
176868.2,300.741,-518.943,0,0
177128.525,299.051,-514.136,0,0
177388.85,297.751,-509.395,0,0
177649.175,296.8,-504.718,0,0
177909.5,296.215,-500.147,0,0
178169.825,295.911,-495.831,0,0
178430.15,295.652,-491.693,0,0
178690.475,295.469,-487.568,0,0
178950.8,295.449,-483.369,0,0
179211.125,295.612,-479.217,0,0
179471.45,296.03,-475.139,0,0
179731.775,296.641,-471.146,0,0
179992.1,297.454,-467.335,0,0
180252.425,298.299,-463.737,0,0
180512.75,299.153,-460.274,0,0
180773.075,299.959,-456.848,0,0
181033.4,300.782,-453.497,0,0
181293.725,301.635,-450.141,0,0
181554.05,302.502,-446.862,0,0
181814.375,303.339,-443.634,0,0
182074.7,304.067,-440.456,0,0
182335.025,304.726,-437.193,0,0
182595.35,305.307,-433.805,0,0
182855.675,305.888,-430.241,0,0
183116.0,306.523,-426.563,0,0
183376.325,307.196,-422.725,0,0
183636.65,307.947,-418.757,0,0
183896.975,308.782,-414.64,0,0
184157.3,309.748,-410.344,0,0
184417.625,310.877,-405.928,0,0
184677.95,312.171,-401.407,0,0
184938.275,313.625,-396.804,0,0
185198.6,315.223,-392.1,0,0
185458.925,317.007,-387.271,0,0
185719.25,319.003,-382.384,0,0
185979.575,321.167,-377.434,0,0
186239.9,323.547,-372.418,0,0
186500,326.084,-367.305,0,0
186761,328.854,-362.19,0,0
187021,331.844,-357.06,0,0
187281,334.979,-351.813,0,0
187542,338.458,-346.548,0,0
187802,341.981,-341.303,0,0
188062,345.801,-335.904,0,0
188322,349.928,-330.429,0,0
188583,354.283,-324.929,0,0
188843,358.944,-319.477,0,0
189103,363.951,-314.013,0,0
189364,369.252,-308.466,0,0
189624,374.792,-302.987,0,0
189884,380.828,-297.533,0,0
190145,387.096,-292.149,0,0
190405,393.906,-286.892,0,0
190665,401.053,-281.782,0,0
190926,408.467,-276.839,0,0
191186,416.289,-272.169,0,0
191446,424.352,-267.573,0,0
191707,432.824,-263.194,0,0
191967,441.731,-258.96,0,0
192227,450.937,-255.147,0,0
192488,460.431,-251.75,0,0
192748,470.212,-248.518,0,0
193008,480.327,-245.678,0,0
193269,490.795,-243.241,0,0
193529,501.285,-241.233,0,0
193789,512.034,-239.579,0,0
194050,522.913,-238.203,0,0
194310,534.022,-237.258,0,0
194570,545.204,-236.758,0,0
194831,556.498,-236.563,0,0
195091,567.908,-236.678,0,0
195351,579.436,-237.128,0,0
195612,591.069,-237.79,0,0
195872,602.943,-238.691,0,0
196132,615.155,-239.903,0,0
196393,627.692,-241.546,0,0
196653,640.47,-243.663,0,0
196913,653.44,-246.222,0,0
197174,666.841,-249.166,0,0
197434,680.66,-252.783,0,0
197694,694.811,-257.198,0,0
197955,709.087,-262.498,0,0
198215,723.536,-268.689,0,0
198475,738.006,-275.648,0,0
198735,752.689,-283.559,0,0
198996,767.354,-292.612,0,0
199256,781.881,-302.968,0,0
199516,795.99,-314.52,0,0
199777,809.315,-327.309,0,0
200037,821.888,-341.149,0,0
200297,833.677,-355.696,0,0
200558,844.605,-371.221,0,0
200818,854.601,-387.553,0,0
201078,863.373,-404.667,0,0
201339,870.84,-422.252,0,0
201599,877.019,-440.088,0,0
201859,881.959,-458.086,0,0
202120,885.606,-476.121,0,0
202380.025,888.304,-493.747,0,0
202640.35,890.058,-511.162,0,0
202900.675,890.519,-528.468,0,0
203161.0,890.326,-544.887,0,0
203421.325,889.948,-560.959,0,0
203681.65,889.276,-577.077,0,0
203941.975,887.808,-593.678,0,0
204202.3,885.308,-609.962,0,0
204462.625,881.844,-625.712,0,0
204722.95,877.668,-640.686,0,0
204983.275,873.335,-655.383,0,0
205243.6,868.263,-669.81,0,0
205503.925,862.548,-683.77,0,0
205764.25,856.367,-696.842,0,0
206024.575,850.347,-709.041,0,0
206284.9,844.346,-721.206,0,0
206545.225,838.199,-733.355,0,0
206805.55,831.819,-745.349,0,0
207065.875,825.485,-757.443,0,0
207326.2,818.493,-770.095,0,0
207586.525,810.49,-782.916,0,0
207846.85,801.088,-795.462,0,0
208107.175,790.375,-807.192,0,0
208367.5,778.866,-817.74,0,0
208627.825,766.885,-827.06,0,0
208888.15,754.612,-835.331,0,0
209148.475,741.948,-842.366,0,0
209408.8,729.436,-848.129,0,0
209669.125,717.406,-852.92,0,0
209929.45,705.628,-857.008,0,0
210189.775,694.377,-860.533,0,0
210450.1,683.175,-863.23,0,0
210710.425,672.552,-865.577,0,0
210970.75,661.907,-867.313,0,0
211231.075,651.815,-868.373,0,0
211491.4,642.185,-868.985,0,0
211751.725,632.953,-869.283,0,0
212012.05,624.094,-869.013,0,0
212272.375,615.731,-868.348,0,0
212532.7,608.196,-867.295,0,0
212793.025,601.465,-866.413,0,0
213053.35,594.914,-865.763,0,0
213313.675,588.466,-865.091,0,0
213574.0,582.359,-863.971,0,0
213834.325,576.611,-862.792,0,0
214094.65,571.46,-861.354,0,0
214354.975,566.916,-859.893,0,0
214615.3,563.11,-858.624,0,0
214875.625,559.882,-857.987,0,0
215135.95,557.077,-857.742,0,0
215396.275,554.333,-858.388,0,0
215656.6,551.394,-859.386,0,0
215916.925,548.277,-860.879,0,0
216177.25,544.869,-862.621,0,0
216437.575,540.95,-864.681,0,0
216697.9,536.469,-866.607,0,0
216958.225,531.592,-868.181,0,0
217218.55,526.755,-869.212,0,0
217478.875,522.165,-869.964,0,0
217739.2,517.929,-870.717,0,0
217999.525,513.601,-871.643,0,0
218259.85,509.358,-872.527,0,0
218520,505.048,-873.468,0,0
218780,500.798,-874.324,0,0
219041,496.556,-875.1,0,0
219301,492.482,-875.891,0,0
219561,488.426,-876.909,0,0
219822,484.302,-878.103,0,0
220082,480.016,-879.252,0,0
220342,475.471,-880.441,0,0
220603,470.787,-881.404,0,0
220863,465.898,-882.325,0,0
221123,461.155,-883.067,0,0
221384,456.406,-883.528,0,0
221644,451.728,-884.009,0,0
221904,446.968,-884.507,0,0
222165,442.198,-884.869,0,0
222425,437.475,-885.113,0,0
222685,432.777,-885.092,0,0
222946,428.215,-885.141,0,0
223206,423.744,-885.133,0,0
223466,419.288,-885.167,0,0
223727,414.86,-885.231,0,0
223987,410.443,-885.349,0,0
224247,406.065,-885.348,0,0
224508,401.757,-885.566,0,0
224768,397.232,-885.898,0,0
225028,392.616,-886.142,0,0
225289,387.841,-886.462,0,0
225549,382.734,-886.711,0,0
225809,377.657,-886.731,0,0
226070,372.249,-886.735,0,0
226330,366.781,-886.523,0,0
226590,361.084,-886.031,0,0
226851,355.432,-885.249,0,0
227111,349.802,-884.296,0,0
227371,344.086,-883.092,0,0
227632,338.488,-881.724,0,0
227892,332.862,-880.101,0,0
228152,327.054,-878.344,0,0
228413,321.357,-876.113,0,0
228673,315.825,-873.569,0,0
228933,310.429,-870.757,0,0
229193,305.32,-867.612,0,0
229454,300.485,-864.387,0,0
229714,295.889,-860.963,0,0
229974,291.585,-857.526,0,0
230235,287.489,-854.041,0,0
230495,283.64,-850.459,0,0
230755,279.945,-846.857,0,0
231016,276.385,-843.178,0,0
231276,273.136,-839.567,0,0
231536,270.104,-835.972,0,0
231797,267.168,-832.372,0,0
232057,264.405,-828.808,0,0
232317,261.744,-825.347,0,0
232578,259.189,-821.844,0,0
232838,256.722,-818.423,0,0
233098,254.401,-814.89,0,0
233359,252.225,-811.436,0,0
233619,250.213,-807.969,0,0
233879,248.331,-804.564,0,0
234140,246.57,-801.307,0,0
234400,244.874,-798.089,0,0
234660.3,243.181,-794.856,0,0
234920.625,241.723,-791.629,0,0
235180.95,240.244,-788.502,0,0
235441.275,239.039,-785.459,0,0
235701.6,237.87,-782.561,0,0
235961.925,236.68,-779.762,0,0
236222.25,235.369,-777.075,0,0
236482.575,234.051,-774.331,0,0
236742.9,232.75,-771.497,0,0
237003.225,231.523,-768.608,0,0
237263.55,230.407,-765.715,0,0
237523.875,229.413,-762.734,0,0
237784.2,228.524,-759.739,0,0
238044.525,227.95,-756.786,0,0
238304.85,227.544,-753.979,0,0
238565.175,227.188,-751.276,0,0
238825.5,227.029,-748.877,0,0
239085.825,226.832,-746.526,0,0
239346.15,226.636,-744.319,0,0
239606.475,226.396,-742.224,0,0
239866.8,226.266,-740.27,0,0
240127.125,226.093,-738.402,0,0
240387.45,225.891,-736.675,0,0
240647.775,225.661,-735.033,0,0
240908.1,225.331,-733.495,0,0
241168.425,224.998,-731.957,0,0
241428.75,224.61,-730.507,0,0
241689.075,224.246,-729.123,0,0
241949.4,223.817,-727.811,0,0
242209.725,223.282,-726.596,0,0
242470.05,222.71,-725.401,0,0
242730.375,222.019,-724.274,0,0
242990.7,221.257,-723.121,0,0
243251.025,220.419,-721.979,0,0
243511.35,219.563,-720.82,0,0
243771.675,218.559,-719.656,0,0
244032.0,217.519,-718.518,0,0
244292.325,216.256,-717.426,0,0
244552.65,215.033,-716.062,0,0
244812.975,213.599,-714.647,0,0
245073.3,212.283,-713.09,0,0
245333.625,210.949,-711.436,0,0
245593.95,209.656,-709.6,0,0
245854.275,208.451,-707.769,0,0
246114.6,207.288,-705.794,0,0
246374.925,206.226,-703.805,0,0
246635.25,205.149,-701.772,0,0
246895.575,204.202,-699.701,0,0
247155.9,203.381,-697.48,0,0
247416.225,202.752,-695.274,0,0
247676.55,202.211,-693.148,0,0
247936.875,201.872,-691.118,0,0
248197.2,201.523,-689.327,0,0
248457.525,201.106,-687.548,0,0
248717.85,200.685,-685.894,0,0
248978.175,200.187,-684.243,0,0
249238.5,199.642,-682.562,0,0
249498.825,199.112,-680.849,0,0
249759.15,198.617,-679.214,0,0
250019.475,198.131,-677.596,0,0
250279.8,197.57,-675.972,0,0
250540,197.118,-674.399,0,0
250800,196.488,-672.822,0,0
251061,195.927,-671.291,0,0
251321,195.26,-669.721,0,0
251581,194.598,-668.177,0,0
251842,193.837,-666.715,0,0
252102,192.931,-665.2,0,0
252362,191.933,-663.64,0,0
252623,190.801,-661.946,0,0
252883,189.547,-660.085,0,0
253143,188.276,-658.024,0,0
253404,187.016,-655.721,0,0
253664,185.822,-653.172,0,0
253924,184.825,-650.454,0,0
254185,183.944,-647.662,0,0
254445,183.231,-644.798,0,0
254705,182.572,-641.912,0,0
254966,182.001,-638.859,0,0
255226,181.579,-635.802,0,0
255486,181.223,-632.703,0,0
255747,180.877,-629.384,0,0
256007,180.694,-625.887,0,0
256267,180.789,-622.194,0,0
256528,181.229,-618.471,0,0
256788,181.928,-614.781,0,0
257048,182.775,-611.185,0,0
257309,183.794,-607.541,0,0
257569,185.003,-603.868,0,0
257829,186.508,-600.192,0,0
258090,188.317,-596.579,0,0
258350,190.361,-593.11,0,0
258610,192.567,-589.775,0,0
258871,194.92,-586.493,0,0
259131,197.589,-583.302,0,0
259391,200.516,-580.189,0,0
259651,203.742,-577.321,0,0
259912,207.151,-574.742,0,0
260172,210.715,-572.426,0,0
260432,214.386,-570.326,0,0
260693,218.205,-568.436,0,0
260953,222.175,-566.787,0,0
261213,226.295,-565.513,0,0
261474,230.472,-564.577,0,0
261734,234.594,-563.986,0,0
261994,238.632,-563.645,0,0
262255,242.616,-563.491,0,0
262515,246.554,-563.479,0,0
262775,250.536,-563.588,0,0
263036,254.608,-563.945,0,0
263296,258.803,-564.574,0,0
263556,263.069,-565.501,0,0
263817,267.261,-566.849,0,0
264077,271.31,-568.558,0,0
264337,275.287,-570.563,0,0
264598,279.079,-572.918,0,0
264858,282.721,-575.584,0,0
265118,286.262,-578.539,0,0
265379,289.403,-582.081,0,0
265639,291.823,-585.737,0,0
265899,294.123,-589.11,0,0
266160,296.429,-592.733,0,0
266420,298.518,-596.663,0,0
266680.25,300.192,-600.875,0,0
266940.575,301.398,-605.134,0,0
267200.9,302.279,-609.359,0,0
267461.225,302.96,-613.571,0,0
267721.55,303.245,-617.923,0,0
267981.875,303.118,-622.229,0,0
268242.2,302.74,-626.34,0,0
268502.525,302.216,-630.415,0,0
268762.85,301.532,-634.631,0,0
269023.175,300.428,-638.968,0,0
269283.5,298.689,-643.188,0,0
269543.825,296.476,-647.256,0,0
269804.15,293.715,-650.849,0,0
270064.475,290.631,-653.92,0,0
270324.8,287.553,-656.278,0,0
270585.125,284.541,-658.304,0,0
270845.45,281.711,-659.868,0,0
271105.775,279.134,-661.113,0,0
271366.1,276.919,-662.174,0,0
271626.425,275.026,-663.39,0,0
271886.75,273.211,-664.778,0,0
272147.075,271.334,-666.267,0,0
272407.4,269.485,-667.79,0,0
272667.725,267.601,-669.368,0,0
272928.05,265.631,-671.059,0,0
273188.375,263.492,-672.717,0,0
273448.7,261.341,-674.437,0,0
273709.025,258.983,-676.188,0,0
273969.35,256.469,-677.976,0,0
274229.675,253.733,-679.778,0,0
274490.0,250.686,-681.441,0,0
274750.325,247.549,-683.014,0,0
275010.65,244.082,-684.531,0,0
275270.975,240.253,-685.79,0,0
275531.3,236.222,-686.779,0,0
275791.625,231.972,-687.335,0,0
276051.95,227.698,-687.51,0,0
276312.275,223.448,-687.324,0,0
276572.6,219.203,-686.792,0,0
276832.925,214.968,-686.026,0,0
277093.25,210.758,-684.827,0,0
277353.575,206.656,-683.222,0,0
277613.9,202.726,-681.189,0,0
277874.225,199.133,-678.876,0,0
278134.55,195.83,-676.298,0,0
278394.875,192.831,-673.49,0,0
278655.2,190.161,-670.456,0,0
278915.525,187.892,-667.226,0,0
279175.85,186.104,-663.833,0,0
279436.175,184.888,-660.566,0,0
279696.5,184.117,-657.456,0,0
279956.825,183.71,-654.635,0,0
280217.15,183.558,-652.172,0,0
280477.475,183.507,-650.075,0,0
280737.8,183.426,-648.284,0,0
280998.125,183.297,-646.722,0,0
281258.45,183.073,-645.222,0,0
281518.775,182.803,-643.87,0,0
281779.1,182.469,-642.646,0,0
282039.425,181.993,-641.424,0,0
282299.75,181.416,-640.095,0,0
282560,180.869,-638.574,0,0
282820,180.549,-636.931,0,0
283081,180.515,-635.333,0,0
283341,180.731,-633.935,0,0
283601,181.073,-632.82,0,0
283862,181.381,-632.013,0,0
284122,181.595,-631.45,0,0
284382,181.617,-631.06,0,0
284643,181.474,-630.771,0,0
284903,181.156,-630.531,0,0
285163,180.723,-630.315,0,0
285424,180.11,-630.081,0,0
285684,179.362,-629.838,0,0
285944,178.476,-629.556,0,0
286205,177.363,-629.256,0,0
286465,176.039,-628.851,0,0
286725,174.432,-628.123,0,0
286986,172.866,-627.049,0,0
287246,171.417,-625.674,0,0
287506,170.101,-624.159,0,0
287767,168.873,-622.505,0,0
288027,167.692,-620.673,0,0
288287,166.606,-618.614,0,0
288548,165.671,-616.333,0,0
288808,164.985,-613.757,0,0
289068,164.666,-611.031,0,0
289329,164.77,-608.139,0,0
289589,165.341,-605.312,0,0
289849,166.32,-602.587,0,0
290109,167.712,-600.06,0,0
290370,169.423,-597.804,0,0
290630,171.404,-595.833,0,0
290890,173.647,-594.215,0,0
291151,176.052,-592.976,0,0
291411,178.569,-592.13,0,0
291671,181.128,-591.661,0,0
291932,183.707,-591.6,0,0
292192,186.211,-591.924,0,0
292452,188.659,-592.593,0,0
292713,190.983,-593.628,0,0
292973,193.132,-595.07,0,0
293233,195.001,-596.846,0,0
293494,196.554,-598.905,0,0
293754,197.763,-601.186,0,0
294014,198.599,-603.592,0,0
294275,199.109,-606.069,0,0
294535,199.25,-608.678,0,0
294795,199.058,-611.336,0,0
295056,198.432,-613.943,0,0
295316,197.476,-616.486,0,0
295576,196.155,-618.85,0,0
295837,194.537,-621.03,0,0
296097,192.686,-622.99,0,0
296357,190.573,-624.699,0,0
296618,188.308,-626.127,0,0
296878,185.89,-627.22,0,0
297138,183.491,-627.988,0,0
297399,181.129,-628.473,0,0
297659,178.864,-628.769,0,0
297919,176.66,-628.904,0,0
298180,174.549,-628.894,0,0
298440,172.543,-628.779,0,0
298700.2,170.624,-628.57,0,0
298960.525,168.804,-628.348,0,0
299220.85,166.999,-628.049,0,0
299481.175,165.23,-627.717,0,0
299741.5,163.52,-627.343,0,0
300001.825,161.829,-626.943,0,0
300262.15,160.199,-626.525,0,0
300522.475,158.555,-626.075,0,0
300782.8,156.921,-625.57,0,0
301043.125,155.3,-625.041,0,0
301303.45,153.649,-624.46,0,0
301563.775,151.995,-623.816,0,0
301824.1,150.387,-623.073,0,0
302084.425,148.821,-622.246,0,0
302344.75,147.32,-621.338,0,0
302605.075,145.93,-620.399,0,0
302865.4,144.621,-619.494,0,0
303125.725,143.339,-618.617,0,0
303386.05,142.048,-617.752,0,0
303646.375,140.731,-616.847,0,0
303906.7,139.451,-615.902,0,0
304167.025,138.197,-614.888,0,0
304427.35,136.934,-613.863,0,0
304687.675,135.724,-612.792,0,0
304948.0,134.556,-611.64,0,0
305208.325,133.447,-610.449,0,0
305468.65,132.431,-609.25,0,0
305728.975,131.473,-608.021,0,0
305989.3,130.569,-606.81,0,0
306249.625,129.707,-605.577,0,0
306509.95,128.898,-604.313,0,0
306770.275,128.186,-603.029,0,0
307030.6,127.589,-601.765,0,0
307290.925,127.072,-600.527,0,0
307551.25,126.629,-599.362,0,0
307811.575,126.231,-598.276,0,0
308071.9,125.879,-597.248,0,0
308332.225,125.542,-596.289,0,0
308592.55,125.245,-595.385,0,0
308852.875,124.955,-594.602,0,0
309113.2,124.634,-593.889,0,0
309373.525,124.24,-593.246,0,0
309633.85,123.804,-592.635,0,0
309894.175,123.333,-592.027,0,0
310154.5,122.807,-591.465,0,0
310414.825,122.226,-590.901,0,0
310675.15,121.59,-590.324,0,0
310935.475,120.865,-589.718,0,0
311195.8,120.113,-589.004,0,0
311456.125,119.362,-588.274,0,0
311716.45,118.637,-587.474,0,0
311976.775,117.93,-586.624,0,0
312237.1,117.246,-585.759,0,0
312497.425,116.616,-584.874,0,0
312757.75,115.991,-583.996,0,0
313018.075,115.372,-583.089,0,0
313278.4,114.793,-582.135,0,0
313538.725,114.24,-581.168,0,0
313799.05,113.759,-580.177,0,0
314059.375,113.348,-579.184,0,0
314319.7,113.004,-578.224,0,0
314580,112.702,-577.334,0,0
314840,112.433,-576.451,0,0
315101,112.152,-575.587,0,0
315361,111.947,-574.887,0,0
315621,111.698,-574.062,0,0
315882,111.508,-573.35,0,0
316142,111.319,-572.735,0,0
316402,111.052,-572.037,0,0
316663,110.839,-571.444,0,0
316923,110.694,-570.892,0,0
317183,110.506,-570.345,0,0
317444,110.285,-569.906,0,0
317704,110.041,-569.533,0,0
317964,109.747,-569.142,0,0
318225,109.426,-568.744,0,0
318485,109.044,-568.405,0,0
318745,108.785,-568.095,0,0
319006,108.359,-567.86,0,0
319266,107.927,-567.677,0,0
319526,107.484,-567.508,0,0
319787,106.956,-567.371,0,0
320047,106.285,-567.308,0,0
320307,105.603,-567.174,0,0
320567,104.767,-567.056,0,0
320828,103.859,-566.812,0,0
321088,102.87,-566.713,0,0
321348,101.818,-566.486,0,0
321609,100.67,-566.32,0,0
321869,99.4851,-565.935,0,0
322129,98.193,-565.515,0,0
322390,96.7996,-565.042,0,0
322650,95.2804,-564.368,0,0
322910,93.787,-563.516,0,0
323171,92.2934,-562.553,0,0
323431,90.8847,-561.402,0,0
323691,89.6597,-560.088,0,0
323952,88.4463,-558.719,0,0
324212,87.376,-557.331,0,0
324472,86.4046,-555.79,0,0
324733,85.6203,-554.309,0,0
324993,84.8823,-552.897,0,0
325253,84.2344,-551.441,0,0
325514,83.7145,-550.09,0,0
325774,83.2012,-548.648,0,0
326034,82.6437,-547.464,0,0
326295,82.1598,-546.178,0,0
326555,81.6406,-544.911,0,0
326815,81.1125,-543.634,0,0
327076,80.5621,-542.301,0,0
327336,80.0874,-541.093,0,0
327596,79.5803,-539.773,0,0
327857,79.0888,-538.392,0,0
328117,78.7074,-537.006,0,0
328377,78.2632,-535.546,0,0
328638,77.9961,-534.068,0,0
328898,77.7611,-532.67,0,0
329158,77.5261,-531.2,0,0
329419,77.4242,-529.702,0,0
329679,77.3195,-528.249,0,0
329939,77.3428,-526.814,0,0
330200,77.4513,-525.433,0,0
330460,77.6379,-524.169,0,0
330720.15,77.9226,-522.881,0,0
330980.475,78.1706,-521.684,0,0
331240.8,78.4441,-520.584,0,0
331501.125,78.7432,-519.692,0,0
331761.45,79.0486,-518.68,0,0
332021.775,79.3575,-517.835,0,0
332282.1,79.592,-517.061,0,0
332542.425,79.8174,-516.319,0,0
332802.75,80.0456,-515.722,0,0
333063.075,80.1784,-515.001,0,0
333323.4,80.2488,-514.427,0,0
333583.725,80.2031,-513.853,0,0
333844.05,80.2457,-513.275,0,0
334104.375,80.1414,-512.788,0,0
334364.7,79.9623,-512.187,0,0
334625.025,79.7867,-511.657,0,0
334885.35,79.5126,-510.976,0,0
335145.675,79.2416,-510.35,0,0
335406.0,78.9018,-509.671,0,0
335666.325,78.5681,-508.964,0,0
335926.65,78.1643,-508.237,0,0
336186.975,77.76,-507.48,0,0
336447.3,77.3308,-506.623,0,0
336707.625,76.9349,-505.695,0,0
336967.95,76.5272,-504.621,0,0
337228.275,76.0849,-503.509,0,0
337488.6,75.7329,-502.364,0,0
337748.925,75.4925,-501.128,0,0
338009.25,75.3042,-499.95,0,0
338269.575,75.1394,-498.712,0,0
338529.9,75.051,-497.481,0,0
338790.225,75.0202,-496.223,0,0
339050.55,74.9966,-494.976,0,0
339310.875,75.0374,-493.697,0,0
339571.2,75.1448,-492.415,0,0
339831.525,75.3446,-491.167,0,0
340091.85,75.5539,-489.848,0,0
340352.175,75.8894,-488.57,0,0
340612.5,76.2475,-487.356,0,0
340872.825,76.6151,-486.122,0,0
341133.15,77.1313,-484.899,0,0
341393.475,77.7448,-483.76,0,0
341653.8,78.4069,-482.649,0,0
341914.125,79.1415,-481.585,0,0
342174.45,79.9656,-480.621,0,0
342434.775,80.8531,-479.793,0,0
342695.1,81.6994,-479.035,0,0
342955.425,82.6729,-478.446,0,0
343215.75,83.5771,-477.914,0,0
343476.075,84.4905,-477.659,0,0
343736.4,85.2719,-477.329,0,0
343996.725,86.0002,-477.204,0,0
344257.05,86.6843,-477.063,0,0
344517.375,87.228,-477.065,0,0
344777.7,87.8374,-477.066,0,0
345038.025,88.2603,-477.138,0,0
345298.35,88.6083,-477.212,0,0
345558.675,88.8901,-477.305,0,0
345819.0,89.1265,-477.432,0,0
346079.325,89.2514,-477.551,0,0
346339.65,89.2854,-477.624,0,0
346599.975,89.3713,-477.752,0,0
346860,89.2707,-477.836,0,0
347121,89.1919,-477.93,0,0
347381,88.9455,-477.881,0,0
347641,88.694,-477.838,0,0
347902,88.492,-477.785,0,0
348162,88.2224,-477.708,0,0
348422,87.8934,-477.616,0,0
348683,87.5351,-477.386,0,0
348943,87.219,-477.236,0,0
349203,86.8467,-477.012,0,0
349464,86.4358,-476.768,0,0
349724,86.0071,-476.417,0,0
349984,85.5614,-476.047,0,0
350245,85.0865,-475.652,0,0
350505,84.6966,-475.214,0,0
350765,84.2829,-474.691,0,0
351025,83.9041,-474.172,0,0
351286,83.5197,-473.638,0,0
351546,83.195,-473.05,0,0
351806,82.7541,-472.48,0,0
352067,82.4216,-471.891,0,0
352327,82.0695,-471.186,0,0
352587,81.7708,-470.514,0,0
352848,81.443,-469.819,0,0
353108,81.2481,-469.013,0,0
353368,81.0152,-468.188,0,0
353629,80.8852,-467.381,0,0
353889,80.7528,-466.597,0,0
354149,80.7969,-465.787,0,0
354410,80.8341,-465.03,0,0
354670,80.896,-464.354,0,0
354930,81.0266,-463.758,0,0
355191,81.1569,-463.159,0,0
355451,81.2441,-462.67,0,0
355711,81.2479,-462.218,0,0
355972,81.3097,-461.751,0,0
356232,81.3073,-461.301,0,0
356492,81.3093,-460.912,0,0
356753,81.1661,-460.547,0,0
357013,81.0964,-460.092,0,0
357273,80.856,-459.68,0,0
357534,80.7531,-459.242,0,0
357794,80.4896,-458.787,0,0
358054,80.2576,-458.366,0,0
358315,79.9429,-457.858,0,0
358575,79.6909,-457.364,0,0
358835,79.4221,-456.74,0,0
359096,79.0638,-456.13,0,0
359356,78.7485,-455.371,0,0
359616,78.4502,-454.592,0,0
359877,78.2509,-453.76,0,0
360137,78.0084,-452.98,0,0
360397,77.9159,-452.098,0,0
360658,77.8229,-451.222,0,0
360918,77.7829,-450.396,0,0
361178,77.7418,-449.53,0,0
361438,77.7342,-448.652,0,0
361699,77.8473,-447.804,0,0
361959,77.972,-446.955,0,0
362219,78.0471,-446.157,0,0
362480,78.2898,-445.387,0,0
362740.1,78.463,-444.623,0,0
363000.425,78.6073,-443.945,0,0
363260.75,78.8824,-443.289,0,0
363521.075,79.0125,-442.652,0,0
363781.4,79.2233,-442.026,0,0
364041.725,79.3883,-441.483,0,0
364302.05,79.4669,-440.895,0,0
364562.375,79.5789,-440.327,0,0
364822.7,79.6646,-439.745,0,0
365083.025,79.6637,-439.15,0,0
365343.35,79.6832,-438.507,0,0
365603.675,79.6698,-437.826,0,0
365864.0,79.6648,-437.147,0,0
366124.325,79.7005,-436.319,0,0
366384.65,79.7057,-435.509,0,0
366644.975,79.7979,-434.608,0,0
366905.3,79.9063,-433.717,0,0
367165.625,80.0758,-432.791,0,0
367425.95,80.3638,-431.82,0,0
367686.275,80.6661,-430.798,0,0
367946.6,81.0761,-429.846,0,0
368206.925,81.5489,-428.953,0,0
368467.25,82.0437,-427.973,0,0
368727.575,82.6027,-427.119,0,0
368987.9,83.2713,-426.156,0,0
369248.225,84.0092,-425.315,0,0
369508.55,84.8414,-424.501,0,0
369768.875,85.7223,-423.807,0,0
370029.2,86.6002,-423.145,0,0
370289.525,87.5534,-422.594,0,0
370549.85,88.5776,-422.152,0,0
370810.175,89.5092,-421.693,0,0
371070.5,90.511,-421.327,0,0
371330.825,91.5828,-421.102,0,0
371591.15,92.6705,-420.917,0,0
371851.475,93.7144,-420.878,0,0
372111.8,94.7843,-420.988,0,0
372372.125,95.8236,-421.156,0,0
372632.45,96.7925,-421.403,0,0
372892.775,97.6902,-421.797,0,0
373153.1,98.5717,-422.316,0,0
373413.425,99.2618,-422.888,0,0
373673.75,99.8695,-423.57,0,0
373934.075,100.376,-424.237,0,0
374194.4,100.752,-424.929,0,0
374454.725,100.982,-425.64,0,0
374715.05,101.117,-426.328,0,0
374975.375,101.084,-427.018,0,0
375235.7,101.026,-427.532,0,0
375496.025,100.887,-428.085,0,0
375756.35,100.721,-428.511,0,0
376016.675,100.458,-428.894,0,0
376277.0,100.276,-429.202,0,0
376537.325,100.034,-429.442,0,0
376797.65,99.7699,-429.688,0,0
377057.975,99.5327,-429.862,0,0
377318.3,99.3393,-429.945,0,0
377578.625,99.1577,-430.121,0,0
377838.95,99.0284,-430.194,0,0
378099.275,98.8398,-430.365,0,0
378359.6,98.7251,-430.558,0,0
378619.925,98.5169,-430.744,0,0
378880,98.2297,-430.947,0,0
379141,97.9811,-431.164,0,0
379401,97.6369,-431.268,0,0
379661,97.2562,-431.404,0,0
379922,96.8892,-431.392,0,0
380182,96.507,-431.457,0,0
380442,96.1968,-431.359,0,0
380703,95.8557,-431.294,0,0
380963,95.5682,-431.179,0,0
381223,95.2659,-431.096,0,0
381483,94.928,-430.999,0,0
381744,94.6764,-430.832,0,0
382004,94.5007,-430.518,0,0
382264,94.3562,-430.276,0,0
382525,94.3902,-430.066,0,0
382785,94.5122,-429.911,0,0
383045,94.6733,-429.942,0,0
383306,94.7959,-430.106,0,0
383566,94.9513,-430.364,0,0
383826,94.9856,-430.775,0,0
384087,94.9799,-431.366,0,0
384347,94.7121,-431.968,0,0
384607,94.336,-432.652,0,0
384868,93.793,-433.228,0,0
385128,93.0704,-433.781,0,0
385388,92.2556,-434.351,0,0
385649,91.3882,-434.782,0,0
385909,90.3007,-435.105,0,0
386169,89.1156,-435.309,0,0
386430,87.9032,-435.386,0,0
386690,86.6591,-435.179,0,0
386950,85.4044,-434.933,0,0
387211,84.219,-434.571,0,0
387471,83.0645,-433.961,0,0
387731,81.9762,-433.308,0,0
387992,81.0058,-432.501,0,0
388252,80.1321,-431.589,0,0
388512,79.3696,-430.657,0,0
388773,78.724,-429.668,0,0
389033,78.2994,-428.661,0,0
389293,77.9988,-427.654,0,0
389554,77.7414,-426.711,0,0
389814,77.6551,-425.801,0,0
390074,77.7346,-424.967,0,0
390335,77.8485,-424.243,0,0
390595,78.0573,-423.654,0,0
390855,78.2301,-423.243,0,0
391116,78.4238,-422.965,0,0
391376,78.6104,-422.833,0,0
391636,78.6723,-422.811,0,0
391896,78.6886,-422.875,0,0
392157,78.5421,-423.071,0,0
392417,78.2821,-423.276,0,0
392677,77.833,-423.553,0,0
392938,77.2488,-423.735,0,0
393198,76.5369,-423.92,0,0
393458,75.7035,-423.953,0,0
393719,74.7494,-423.806,0,0
393979,73.7961,-423.623,0,0
394239,72.7959,-423.338,0,0
394500,71.803,-422.939,0,0
394760.05,70.8448,-422.405,0,0
395020.375,69.8964,-421.768,0,0
395280.7,68.998,-421.054,0,0
395541.025,68.1553,-420.306,0,0
395801.35,67.3041,-419.472,0,0
396061.675,66.581,-418.6,0,0
396322.0,65.8784,-417.659,0,0
396582.325,65.2585,-416.718,0,0
396842.65,64.7043,-415.745,0,0
397102.975,64.206,-414.804,0,0
397363.3,63.719,-413.887,0,0
397623.625,63.3236,-412.902,0,0
397883.95,62.9018,-411.955,0,0
398144.275,62.474,-411.006,0,0
398404.6,62.1637,-410.029,0,0
398664.925,61.8067,-409.078,0,0
398925.25,61.4815,-408.107,0,0
399185.575,61.1916,-407.112,0,0
399445.9,60.9367,-406.129,0,0
399706.225,60.6955,-405.128,0,0
399966.55,60.4848,-404.126,0,0
400006.6,60.4422,-403.973,0,0