File: Accelerated corrosion test data/2025-10-12_06-00-03/sample_8.csv
Frequency (Hz),Impedance (ohms),Phase (Radians),Temperature (C),Humidity (%)
10000.0,311.658,-10959.2,0,0
10260.325,303.991,-10684.4,0,0
10520.65,296.647,-10423.3,0,0
10780.975,289.46,-10175,0,0
11041.3,282.695,-9937.61,0,0
11301.625,276.276,-9712.09,0,0
11561.95,270.566,-9496.01,0,0
11822.275,264.635,-9288.95,0,0
12082.6,262.222,-9089.05,0,0
12342.925,259.425,-8902.9,0,0
12603.25,254.504,-8722.28,0,0
12863.575,250.047,-8551.13,0,0
13123.9,242.86,-8386.98,0,0
13384.225,236.926,-8225.21,0,0
13644.55,233.933,-8070.19,0,0
13904.875,225.638,-7921.47,0,0
14165.2,221.621,-7777.98,0,0
14425.525,217.357,-7637.69,0,0
14685.8,212.288,-7503.17,0,0
14946.175,208.768,-7373.9,0,0
15206.5,205.532,-7248.4,0,0
15466.825,202.254,-7128.23,0,0
15727.15,198.975,-7011.34,0,0
15987.5,195.892,-6898.34,0,0
16247.8,192.707,-6788.86,0,0
16508.125,189.732,-6682.63,0,0
16768.45,186.556,-6579.82,0,0
17028.775,183.72,-6479.78,0,0
17289.1,181.123,-6383.26,0,0
17549.425,178.81,-6288.5,0,0
17809.75,176.175,-6196.38,0,0
18070.075,173.819,-6109.48,0,0
18330.4,171.461,-6022.22,0,0
18590.725,169.297,-5937.09,0,0
18851.05,169.855,-5854.1,0,0
19111.375,168.183,-5775.35,0,0
19371.7,170.598,-5698.85,0,0
19632.025,166.9,-5626.13,0,0
19892.35,163.592,-5556.1,0,0
20152.675,160.709,-5483.06,0,0
20413.0,160.024,-5413.08,0,0
20673.3,159.786,-5346.13,0,0
20933.65,157.962,-5282.6,0,0
21193.975,154.663,-5219.03,0,0
21454.3,152.23,-5154.98,0,0
21714.625,150.548,-5092.98,0,0
21974.9,150.163,-5032.89,0,0
22235.275,150.08,-4974.95,0,0
22495.6,148.31,-4918.41,0,0
22755.925,146.945,-4864.5,0,0
23016.25,144.717,-4809.59,0,0
23276.6,141.346,-4757.54,0,0
23536.9,140.158,-4704.43,0,0
23797.225,137.737,-4653.84,0,0
24057.55,135.482,-4602.18,0,0
24317.875,134.338,-4552.9,0,0
24578.2,132.556,-4505.05,0,0
24838.525,130.732,-4457.06,0,0
25098.85,130.139,-4410.79,0,0
25359.175,128.708,-4365.66,0,0
25619.5,127.677,-4321.13,0,0
25879.8,126.064,-4276.9,0,0
26140.1,125.214,-4235.05,0,0
26400.5,123.912,-4193.07,0,0
26660.8,122.808,-4151.43,0,0
26921.1,122.307,-4110.12,0,0
27181.4,122.73,-4070.74,0,0
27441.8,121.324,-4032.23,0,0
27702.1,120.828,-3994.9,0,0
27962.4,118.767,-3957.86,0,0
28222.7,119.131,-3919.52,0,0
28483.1,118.209,-3884.47,0,0
28743.4,118.565,-3848.51,0,0
29003.7,117.808,-3814.61,0,0
29264,117.88,-3779.61,0,0
29524.4,117.208,-3746.6,0,0
29784.7,117.05,-3713.08,0,0
30045,117.109,-3681.54,0,0
30305.3,116.992,-3649.9,0,0
30565.7,116.196,-3619.61,0,0
30826,116.104,-3589.39,0,0
31086.3,115.305,-3559.29,0,0
31346.6,114.834,-3529.45,0,0
31607,114.299,-3500.5,0,0
31867.3,114.218,-3471.7,0,0
32127.6,114.079,-3444.47,0,0
32387.9,113.555,-3416.1,0,0
32648.3,113.566,-3388.74,0,0
32908.6,114.986,-3361,0,0
33168.9,114.881,-3335.74,0,0
33429.2,116.347,-3310.09,0,0
33689.6,117.603,-3286.75,0,0
33949.9,116.996,-3264.28,0,0
34210.2,115.672,-3241.39,0,0
34470.5,114.181,-3218.28,0,0
34730.9,113.248,-3194.55,0,0
34991.2,112.879,-3172.34,0,0
35251.5,111.233,-3150.66,0,0
35511.8,109.188,-3128.56,0,0
35772.2,107.295,-3106.6,0,0
36032.5,105.366,-3084.57,0,0
36292.8,103.481,-3062.66,0,0
36553.1,101.816,-3040.93,0,0
36813.5,100.396,-3019.47,0,0
37073.8,99.4166,-2998.11,0,0
37334.1,97.9542,-2977.15,0,0
37594.4,96.035,-2956.58,0,0
37854.8,94.8,-2935.85,0,0
38115.1,93.4703,-2915.5,0,0
38375.4,92.0786,-2895.32,0,0
38635.7,91.0154,-2875.27,0,0
38896.1,90.1542,-2855.48,0,0
39156.4,88.9899,-2835.7,0,0
39416.7,88.0521,-2816.24,0,0
39677,87.1713,-2797.33,0,0
39937.4,85.8219,-2778.48,0,0
40197.7,85.4351,-2759.17,0,0
40458,85.2172,-2740.75,0,0
40718.3,85.187,-2722.84,0,0
40978.7,84.455,-2705.36,0,0
41239,83.8046,-2687.7,0,0
41499.3,83.2756,-2670.5,0,0
41759.6,83.1209,-2653.26,0,0
42020,82.3767,-2636.43,0,0
42280.275,81.6723,-2619.59,0,0
42540.6,81.5089,-2602.58,0,0
42800.925,81.4468,-2586.49,0,0
43061.25,81.3534,-2570.24,0,0
43321.575,81.659,-2554.51,0,0
43581.9,81.5789,-2539.37,0,0
43842.225,80.9117,-2524.59,0,0
44102.55,80.1248,-2509.72,0,0
44362.875,79.6138,-2494.65,0,0
44623.2,79.0507,-2479.91,0,0
44883.525,78.3954,-2465.06,0,0
45143.85,78.0302,-2450.38,0,0
45404.175,77.2946,-2435.84,0,0
45664.5,77.0885,-2421.47,0,0
45924.825,76.3447,-2407.78,0,0
46185.15,75.6691,-2393.53,0,0
46445.475,75.3127,-2379.45,0,0
46705.8,75.0253,-2365.59,0,0
46966.125,74.6229,-2351.93,0,0
47226.45,74.5429,-2338.47,0,0
47486.775,74.3169,-2325.38,0,0
47747.1,74.2703,-2312.19,0,0
48007.425,73.8896,-2299.45,0,0
48267.75,73.468,-2286.77,0,0
48528.075,73.178,-2274.05,0,0
48788.4,72.7837,-2261.92,0,0
49048.725,72.2424,-2249.47,0,0
49309.05,71.6548,-2237.01,0,0
49569.375,71.3646,-2224.71,0,0
49829.7,70.9466,-2212.63,0,0
50090.025,70.6286,-2200.42,0,0
50350.35,70.3296,-2188.61,0,0
50610.675,69.9948,-2176.65,0,0
50871.0,69.8718,-2165.01,0,0
51131.325,69.7221,-2153.39,0,0
51391.65,69.5463,-2141.83,0,0
51651.975,69.6252,-2130.54,0,0
51912.3,69.4879,-2119.5,0,0
52172.625,69.2957,-2108.43,0,0
52432.95,69.0416,-2097.75,0,0
52693.275,69.1566,-2086.74,0,0
52953.6,69.1334,-2076.25,0,0
53213.925,69.1135,-2065.95,0,0
53474.25,68.9661,-2055.54,0,0
53734.575,69.016,-2045.72,0,0
53994.9,68.6155,-2036.08,0,0
54255.225,67.8938,-2026.16,0,0
54515.55,67.2874,-2016.02,0,0
54775.875,66.7862,-2006.11,0,0
55036.2,66.2734,-1996.49,0,0
55296.525,65.4495,-1986.59,0,0
55556.85,64.7984,-1976.76,0,0
55817.175,64.3186,-1966.88,0,0
56077.5,63.734,-1957.1,0,0
56337.825,63.2707,-1947.18,0,0
56598.15,62.9566,-1937.28,0,0
56858.475,62.6276,-1927.65,0,0
57118.8,62.5338,-1918.09,0,0
57379.125,62.2795,-1908.69,0,0
57639.45,62.182,-1899.4,0,0
57899.775,61.964,-1890.18,0,0
58160.1,61.9214,-1880.94,0,0
58420.4,61.8666,-1871.8,0,0
58680.7,61.8521,-1862.84,0,0
58941.1,61.9064,-1854.02,0,0
59201.4,62.0422,-1845.68,0,0
59461.7,61.6909,-1837.2,0,0
59722,61.4233,-1828.69,0,0
59982.4,61.0588,-1820.23,0,0
60242.7,60.6189,-1811.72,0,0
60503,60.3851,-1802.96,0,0
60763.3,60.2891,-1794.38,0,0
61023.7,60.2361,-1785.95,0,0
61284,60.1625,-1777.62,0,0
61544.3,60.4129,-1769.43,0,0
61804.6,60.4007,-1761.45,0,0
62065,60.1399,-1753.52,0,0
62325.3,60.0812,-1745.44,0,0
62585.6,60.1401,-1737.22,0,0
62845.9,60.282,-1729.23,0,0
63106.3,60.5492,-1721.43,0,0
63366.6,60.8132,-1713.73,0,0
63626.9,61.0789,-1706.22,0,0
63887.2,61.366,-1698.75,0,0
64147.6,61.7226,-1691.41,0,0
64407.9,62.2309,-1684.5,0,0
64668.2,62.318,-1677.93,0,0
64928.5,62.053,-1671.04,0,0
65188.9,61.8689,-1664.16,0,0
65449.2,61.5809,-1657.46,0,0
65709.5,61.0642,-1650.41,0,0
65969.8,60.9547,-1643.64,0,0
66230.2,60.6208,-1636.92,0,0
66490.5,60.0019,-1630.21,0,0
66750.8,59.297,-1623.19,0,0
67011.1,58.8877,-1616.15,0,0
67271.5,58.751,-1609.1,0,0
67531.8,58.5902,-1602.06,0,0
67792.1,58.3185,-1595.28,0,0
68052.4,58.1747,-1588.41,0,0
68312.8,57.9614,-1581.63,0,0
68573.1,57.8069,-1574.96,0,0
68833.4,57.5526,-1568.17,0,0
69093.7,57.5082,-1561.41,0,0
69354.1,57.5122,-1554.8,0,0
69614.4,57.6742,-1548.16,0,0
69874.7,57.6408,-1541.71,0,0
70135,57.7296,-1535.3,0,0
70395.4,57.7848,-1529,0,0
70655.7,57.8067,-1522.75,0,0
70916,57.7605,-1516.43,0,0
71176.3,57.8838,-1510.2,0,0
71436.7,57.9252,-1504.15,0,0
71697,58.1464,-1497.95,0,0
71957.3,58.3286,-1492.32,0,0
72217.6,58.2487,-1486.54,0,0
72478,58.0214,-1480.71,0,0
72738.3,57.8467,-1474.91,0,0
72998.6,57.5962,-1469.13,0,0
73258.9,57.4021,-1463.12,0,0
73519.3,57.3421,-1457.15,0,0
73779.6,57.2866,-1451.41,0,0
74039.9,57.2224,-1445.72,0,0
74300.225,57.1405,-1440.05,0,0
74560.55,56.9267,-1434.33,0,0
74820.875,56.7603,-1428.55,0,0
75081.2,56.7143,-1422.87,0,0
75341.525,56.5936,-1417.17,0,0
75601.85,56.58,-1411.46,0,0
75862.175,56.6379,-1405.87,0,0
76122.5,56.6675,-1400.28,0,0
76382.825,56.7187,-1394.79,0,0
76643.15,56.7713,-1389.37,0,0
76903.475,56.7224,-1384.09,0,0
77163.8,56.6905,-1378.74,0,0
77424.125,56.6617,-1373.42,0,0
77684.45,56.5982,-1368.12,0,0
77944.775,56.5496,-1362.77,0,0
78205.1,56.4128,-1357.56,0,0
78465.425,56.3092,-1352.23,0,0
78725.75,56.1888,-1346.89,0,0
78986.075,56.2196,-1341.58,0,0
79246.4,56.1924,-1336.34,0,0
79506.725,56.1364,-1331.07,0,0
79767.05,56.2263,-1325.75,0,0
80027.375,56.321,-1320.6,0,0
80287.7,56.3992,-1315.49,0,0
80548.025,56.4789,-1310.33,0,0
80808.35,56.4842,-1305.29,0,0
81068.675,56.4526,-1300.08,0,0
81329.0,56.668,-1294.86,0,0
81589.325,56.8563,-1289.77,0,0
81849.65,57.1154,-1284.68,0,0
82109.975,57.4824,-1279.59,0,0
82370.3,57.9265,-1274.76,0,0
82630.625,58.1535,-1270,0,0
82890.95,58.4332,-1265.16,0,0
83151.275,58.7967,-1260.5,0,0
83411.6,59.0066,-1255.75,0,0
83671.925,59.3706,-1250.91,0,0
83932.25,59.7755,-1246.27,0,0
84192.575,60.1992,-1241.76,0,0
84452.9,60.599,-1237.25,0,0
84713.225,61.0498,-1232.84,0,0
84973.55,61.4741,-1228.8,0,0
85233.875,61.4725,-1224.88,0,0
85494.2,61.1837,-1220.63,0,0
85754.525,60.8531,-1216.18,0,0
86014.85,60.7319,-1211.45,0,0
86275.175,60.8431,-1206.87,0,0
86535.5,60.9515,-1202.23,0,0
86795.825,60.9941,-1197.55,0,0
87056.15,61.3608,-1192.93,0,0
87316.475,61.7791,-1188.5,0,0
87576.8,61.8358,-1184.08,0,0
87837.125,62.1687,-1179.52,0,0
88097.45,62.6337,-1175.06,0,0
88357.775,63.0262,-1170.56,0,0
88618.1,63.4952,-1166.31,0,0
88878.425,63.8988,-1162.02,0,0
89138.75,64.4499,-1157.66,0,0
89399.075,64.7721,-1153.46,0,0
89659.4,65.1439,-1149,0,0
89919.725,65.8639,-1144.74,0,0
90180,66.4069,-1140.48,0,0
90440.4,67.0064,-1136.37,0,0
90700.7,67.8571,-1132.05,0,0
90961,68.7801,-1128.06,0,0
91221.3,69.8757,-1124.14,0,0
91481.7,70.9881,-1120.37,0,0
91742,72.0657,-1117.09,0,0
92002.3,72.8191,-1113.79,0,0
92262.6,73.5697,-1110.56,0,0
92523,74.1856,-1107.43,0,0
92783.3,74.6526,-1104.42,0,0
93043.6,75.1754,-1101.5,0,0
93303.9,75.2458,-1098.84,0,0
93564.3,74.8356,-1095.8,0,0
93824.6,74.4539,-1092.5,0,0
94084.9,74.005,-1088.67,0,0
94345.2,74.1548,-1084.74,0,0
94605.6,74.2143,-1081,0,0
94865.9,74.6184,-1077.06,0,0
95126.2,75.0561,-1073.45,0,0
95386.5,75.7531,-1069.79,0,0
95646.9,76.3553,-1066.85,0,0
95907.2,76.3166,-1063.59,0,0
96167.5,76.5239,-1060.12,0,0
96427.8,76.8043,-1056.54,0,0
96688.2,77.3813,-1053.06,0,0
96948.5,77.8718,-1049.81,0,0
97208.8,78.3722,-1046.55,0,0
97469.1,78.9624,-1043.32,0,0
97729.5,79.5305,-1040.27,0,0
97989.8,80.0132,-1037.41,0,0
98250.1,80.351,-1034.51,0,0
98510.4,80.8614,-1031.61,0,0
98770.8,81.3492,-1029.1,0,0
99031.1,81.2853,-1026.78,0,0
99291.4,80.9378,-1024.07,0,0
99551.7,80.6307,-1021.01,0,0
99812.1,80.5692,-1017.85,0,0
100072,80.7054,-1014.75,0,0
100333,80.805,-1011.75,0,0
100593,80.946,-1008.87,0,0
100853,81.018,-1006.06,0,0
101114,81.0072,-1003.29,0,0
101374,80.8825,-1000.52,0,0
101634,80.8243,-997.714,0,0
101895,80.5489,-995.067,0,0
102155,80.1562,-992.216,0,0
102415,79.7899,-989.275,0,0
102676,79.3542,-986.269,0,0
102936,79.0106,-983.102,0,0
103196,78.6565,-979.929,0,0
103457,78.3318,-976.579,0,0
103717,78.2498,-973.21,0,0
103977,78.1978,-969.908,0,0
104238,78.3074,-966.633,0,0
104498,78.3392,-963.629,0,0
104758,78.3068,-960.533,0,0
105019,78.1357,-957.506,0,0
105279,78.0062,-954.066,0,0
105539,78.1524,-950.65,0,0
105800,78.4216,-947.453,0,0
106060,78.6768,-944.317,0,0
106320.175,78.9309,-941.167,0,0
106580.5,79.3374,-938.091,0,0
106840.825,79.8104,-935.146,0,0
107101.15,80.2132,-932.414,0,0
107361.475,80.4778,-929.804,0,0
107621.8,80.58,-927.245,0,0
107882.125,80.4876,-924.528,0,0
108142.45,80.3912,-921.695,0,0
108402.775,80.3626,-918.787,0,0
108663.1,80.454,-915.807,0,0
108923.425,80.5472,-912.903,0,0
109183.75,80.6801,-910.014,0,0
109444.075,80.856,-907.125,0,0
109704.4,81.0949,-904.301,0,0
109964.725,81.3148,-901.512,0,0
110225.05,81.5215,-898.766,0,0
110485.375,81.7635,-896.051,0,0
110745.7,81.8853,-893.506,0,0
111006.025,82.0504,-890.954,0,0
111266.35,81.9469,-888.122,0,0
111526.675,81.9251,-885.459,0,0
111787.0,82.0843,-882.636,0,0
112047.325,82.3167,-880.09,0,0
112307.65,82.3778,-877.485,0,0
112567.975,82.4143,-874.788,0,0
112828.3,82.5063,-872.1,0,0
113088.625,82.6123,-869.461,0,0
113348.95,82.7016,-866.858,0,0
113609.275,82.8036,-864.323,0,0
113869.6,82.8229,-861.764,0,0
114129.925,82.8103,-859.3,0,0
114390.25,82.7699,-856.675,0,0
114650.575,82.7362,-854.054,0,0
114910.9,82.7964,-851.42,0,0
115171.225,82.7691,-848.836,0,0
115431.55,82.8077,-846.27,0,0
115691.875,82.7002,-843.723,0,0
115952.2,82.6316,-841.132,0,0
116212.525,82.5671,-838.541,0,0
116472.85,82.4939,-835.94,0,0
116733.175,82.2504,-833.289,0,0
116993.5,82.0716,-830.442,0,0
117253.825,82.1046,-827.465,0,0
117514.15,82.3375,-824.619,0,0
117774.475,82.5767,-821.999,0,0
118034.8,82.6863,-819.4,0,0
118295.125,82.8193,-816.783,0,0
118555.45,82.9699,-814.161,0,0
118815.775,83.2054,-811.576,0,0
119076.1,83.404,-809.13,0,0
119336.425,83.5426,-806.818,0,0
119596.75,83.4349,-804.463,0,0
119857.075,83.3172,-801.989,0,0
120117.4,83.1852,-799.412,0,0
120377.725,83.0762,-796.85,0,0
120638.05,83.013,-794.201,0,0
120898.375,82.9714,-791.49,0,0
121158.7,83.1014,-788.819,0,0
121419.025,83.1769,-786.314,0,0
121679.35,83.1419,-783.727,0,0
121939.675,83.1564,-781.083,0,0
122200.0,83.2088,-778.412,0,0
122460,83.3568,-775.834,0,0
122721,83.4601,-773.377,0,0
122981,83.4557,-770.904,0,0
123241,83.3977,-768.389,0,0
123502,83.3109,-765.803,0,0
123762,83.2551,-763.159,0,0
124022,83.1936,-760.479,0,0
124283,83.2222,-757.708,0,0
124543,83.3376,-754.975,0,0
124803,83.5132,-752.306,0,0
125064,83.6858,-749.652,0,0
125324,83.8466,-747.123,0,0
125584,83.9991,-744.586,0,0
125845,84.079,-742.038,0,0
126105,84.1114,-739.49,0,0
126365,84.1304,-736.813,0,0
126626,84.2955,-734.138,0,0
126886,84.5427,-731.532,0,0
127146,84.7411,-729.015,0,0
127406,84.8516,-726.551,0,0
127667,84.8114,-724.011,0,0
127927,84.9321,-721.356,0,0
128187,85.0493,-718.773,0,0
128448,85.1883,-716.214,0,0
128708,85.3225,-713.65,0,0
128968,85.369,-711.084,0,0
129229,85.4648,-708.456,0,0
129489,85.5466,-705.803,0,0
129749,85.67,-703.128,0,0
130010,85.7852,-700.449,0,0
130270,85.9445,-697.727,0,0
130530,86.2027,-694.979,0,0
130791,86.5374,-692.35,0,0
131051,86.8289,-689.83,0,0
131311,87.0648,-687.281,0,0
131572,87.3551,-684.77,0,0
131832,87.5017,-682.433,0,0
132092,87.4512,-679.943,0,0
132353,87.4286,-677.27,0,0
132613,87.4906,-674.567,0,0
132873,87.5927,-671.827,0,0
133134,87.7464,-669.146,0,0
133394,87.8489,-666.472,0,0
133654,87.909,-663.737,0,0
133915,87.9083,-660.891,0,0
134175,88.081,-657.872,0,0
134435,88.3584,-654.824,0,0
134696,88.7039,-651.886,0,0
134956,89.1226,-648.889,0,0
135216,89.7496,-645.876,0,0
135477,90.4935,-643.099,0,0
135737,91.1659,-640.416,0,0
135997,91.899,-637.752,0,0
136258,92.6763,-635.387,0,0
136518,93.1863,-633.113,0,0
136778,93.6445,-630.889,0,0
137039,93.8812,-628.707,0,0
137299,93.884,-626.359,0,0
137559,93.8643,-623.953,0,0
137819,93.7671,-621.38,0,0
138080,93.5678,-618.672,0,0
138340.125,93.4063,-615.696,0,0
138600.45,93.4791,-612.529,0,0
138860.775,93.7075,-609.448,0,0
139121.1,93.9898,-606.328,0,0
139381.425,94.401,-603.289,0,0
139641.75,94.711,-600.325,0,0
139902.075,94.9997,-597.203,0,0
140162.4,95.4472,-594.035,0,0
140422.725,95.9036,-590.972,0,0
140683.05,96.3168,-587.854,0,0
140943.375,96.7517,-584.648,0,0
141203.7,97.357,-581.388,0,0
141464.025,98.0203,-578.236,0,0
141724.35,98.6317,-575.163,0,0
141984.675,99.1465,-572.013,0,0
142245.0,99.7073,-568.762,0,0
142505.325,100.312,-565.445,0,0
142765.65,101.01,-562.087,0,0
143025.975,101.764,-558.777,0,0
143286.3,102.415,-555.445,0,0
143546.625,103.162,-551.906,0,0
143806.95,104.03,-548.366,0,0
144067.275,104.933,-544.795,0,0
144327.6,105.911,-541.146,0,0
144587.925,106.933,-537.383,0,0
144848.25,108.198,-533.471,0,0
145108.575,109.759,-529.582,0,0
145368.9,111.469,-525.846,0,0
145629.225,113.343,-522.184,0,0
145889.55,115.355,-518.751,0,0
146149.875,117.289,-515.471,0,0
146410.2,119.182,-512.234,0,0
146670.525,121.111,-508.907,0,0
146930.85,123.212,-505.679,0,0
147191.175,125.359,-502.563,0,0
147451.5,127.595,-499.662,0,0
147711.825,129.554,-497.14,0,0
147972.15,130.923,-494.394,0,0
148232.475,132.296,-491.079,0,0
148492.8,133.896,-487.467,0,0
148753.125,135.77,-483.584,0,0
149013.45,138.042,-479.616,0,0
149273.775,140.674,-475.52,0,0
149534.1,143.814,-471.652,0,0
149794.425,147.181,-468.01,0,0
150054.75,150.666,-464.632,0,0
150315.075,154.449,-461.222,0,0
150575.4,158.483,-458.043,0,0
150835.725,162.878,-455.188,0,0
151096.05,167.679,-452.525,0,0
151356.375,172.941,-450.725,0,0
151616.7,178.081,-449.762,0,0
151877.025,182.701,-449.506,0,0
152137.35,186.983,-449.54,0,0
152397.675,190.906,-450.213,0,0
152658.0,193.852,-451.259,0,0
152918.325,196.034,-451.737,0,0
153178.65,198.22,-451.947,0,0
153438.975,200.03,-452.17,0,0
153699.3,201.486,-452.017,0,0
153959.625,203.182,-451.507,0,0
154219.95,204.988,-451.161,0,0
154480,206.26,-450.851,0,0
154741,207.307,-449.931,0,0
155001,208.781,-448.28,0,0
155261,211.004,-446.598,0,0
155522,213.897,-445.151,0,0
155782,217.143,-444.412,0,0
156042,220.7,-444.473,0,0
156303,224.179,-445.854,0,0
156563,226.135,-448.771,0,0
156823,226.043,-451.303,0,0
157084,224.511,-452.516,0,0
157344,222.839,-452.324,0,0
157604,221.326,-451.067,0,0
157864,220.334,-448.902,0,0
158125,220.006,-446.043,0,0
158385,220.547,-442.951,0,0
158645,221.919,-439.862,0,0
158906,224.055,-437.236,0,0
159166,226.631,-435.205,0,0
159426,229.454,-434.014,0,0
159687,231.96,-433.688,0,0
159947,233.473,-433.815,0,0
160207,234.531,-433.763,0,0
160468,234.845,-433.698,0,0
160728,234.44,-432.933,0,0
160988,234.006,-431.162,0,0
161249,233.772,-428.692,0,0
161509,234.361,-425.4,0,0
161769,236.072,-422.097,0,0
162030,238.258,-419.259,0,0
162290,240.834,-416.786,0,0
162550,243.715,-414.744,0,0
162811,246.689,-413.078,0,0
163071,249.635,-411.759,0,0
163331,252.8,-410.649,0,0
163592,256.218,-410.368,0,0
163852,258.963,-410.764,0,0
164112,261.155,-411.301,0,0
164373,262.869,-411.347,0,0
164633,264.84,-411.498,0,0
164893,266.799,-412.047,0,0
165154,268.528,-412.924,0,0
165414,270.175,-414.424,0,0
165674,270.664,-416.619,0,0
165935,269.695,-418.339,0,0
166195,268.388,-418.914,0,0
166455,267.058,-419.109,0,0
166716,265.546,-419.064,0,0
166976,263.54,-418.511,0,0
167236,261.341,-417.155,0,0
167497,259.525,-415.077,0,0
167757,258.036,-412.823,0,0
168017,256.808,-410.355,0,0
168277,255.667,-407.575,0,0
168538,254.645,-404.76,0,0
168798,253.492,-401.653,0,0
169058,252.556,-398.069,0,0
169319,252.017,-394.028,0,0
169579,251.98,-389.947,0,0
169839,252.273,-386.111,0,0
170100,252.43,-382.432,0,0
170360.075,252.468,-378.284,0,0
170620.4,252.911,-373.892,0,0
170880.725,253.629,-369.519,0,0
171141.05,254.364,-365.161,0,0
171401.375,254.984,-360.545,0,0
171661.7,255.604,-355.298,0,0
171922.025,257.052,-349.293,0,0
172182.35,259.512,-343.299,0,0
172442.675,262.834,-337.691,0,0
172703.0,266.631,-332.642,0,0
172963.325,270.524,-328.254,0,0
173223.65,274.386,-324.089,0,0
173483.975,278.472,-320.149,0,0
173744.3,282.806,-316.7,0,0
174004.625,286.757,-313.753,0,0
174264.95,290.532,-310.731,0,0
174525.275,294.234,-307.997,0,0
174785.6,297.429,-305.311,0,0
175045.925,300.51,-302.31,0,0
175306.25,303.479,-299.268,0,0
175566.575,306.085,-296.029,0,0
175826.9,308.53,-292.068,0,0
176087.225,311.493,-287.342,0,0
176347.55,315.205,-282.335,0,0
176607.875,319.497,-277.3,0,0
176868.2,324.601,-272.454,0,0
177128.525,330.299,-268.046,0,0
177388.85,335.904,-264.197,0,0
177649.175,341.327,-260.468,0,0
177909.5,347.069,-256.295,0,0
178169.825,353.67,-252.214,0,0
178430.15,360.838,-248.677,0,0
178690.475,368.199,-245.73,0,0
178950.8,375.594,-243.337,0,0
179211.125,382.978,-241.327,0,0
179471.45,390.451,-239.773,0,0
179731.775,397.573,-238.571,0,0
179992.1,404.68,-237.275,0,0
180252.425,412.39,-236.55,0,0
180512.75,419.528,-236.347,0,0
180773.075,426.286,-236.285,0,0
181033.4,433.089,-236.105,0,0
181293.725,439.596,-236.34,0,0
181554.05,445.731,-236.391,0,0
181814.375,452.166,-236.231,0,0
182074.7,458.803,-236.211,0,0
182335.025,465.728,-236.392,0,0
182595.35,472.687,-237.109,0,0
182855.675,479.693,-238.58,0,0
183116.0,486.004,-240.548,0,0
183376.325,491.457,-242.545,0,0
183636.65,496.269,-244.166,0,0
183896.975,500.835,-245.286,0,0
184157.3,504.866,-245.952,0,0
184417.625,509.408,-245.815,0,0
184677.95,514.41,-245.425,0,0
184938.275,519.512,-245.009,0,0
185198.6,524.648,-244.068,0,0
185458.925,530.642,-242.6,0,0
185719.25,537.387,-241.439,0,0
185979.575,544.645,-240.539,0,0
186239.9,552.36,-239.597,0,0
186500,560.939,-239.532,0,0
186761,569.46,-240.292,0,0
187021,577.785,-241.205,0,0
187281,586.131,-242.427,0,0
187542,594.433,-243.679,0,0
187802,602.946,-244.855,0,0
188062,612.152,-246.066,0,0
188322,622.304,-247.962,0,0
188583,632.899,-251.414,0,0
188843,642.812,-256.177,0,0
189103,651.805,-261.941,0,0
189364,659.463,-268.052,0,0
189624,665.946,-273.684,0,0
189884,672.166,-278.588,0,0
190145,678.267,-283.205,0,0
190405,684.005,-287.379,0,0
190665,689.68,-290.464,0,0
190926,696.506,-292.39,0,0
191186,705.166,-294.594,0,0
191446,714.71,-297.988,0,0
191707,724.666,-302.604,0,0
191967,734.4,-308.662,0,0
192227,742.928,-315.57,0,0
192488,750.453,-322.345,0,0
192748,756.852,-328.393,0,0
193008,763.439,-332.347,0,0
193269,772.48,-335.259,0,0
193529,783.55,-339.403,0,0
193789,795.611,-344.477,0,0
194050,809.125,-351.048,0,0
194310,823.151,-359.962,0,0
194570,836.945,-370.93,0,0
194831,850.14,-383.938,0,0
195091,862,-398.115,0,0
195351,872.932,-413.06,0,0
195612,883.326,-428.645,0,0
195872,893.771,-445.39,0,0
196132,903.578,-464.2,0,0
196393,911.617,-484.955,0,0
196653,917.321,-506.859,0,0
196913,920.653,-529.053,0,0
197174,922.262,-551.026,0,0
197434,922.515,-572.874,0,0
197694,921.272,-595.135,0,0
197955,917.496,-616.945,0,0
198215,912.031,-638.173,0,0
198475,904.605,-658.062,0,0
198735,896.669,-676.497,0,0
198996,888.17,-694.141,0,0
199256,879.147,-710.867,0,0
199516,870.018,-727.082,0,0
199777,860.278,-743.803,0,0
200037,848.973,-760.413,0,0
200297,835.378,-775.798,0,0
200558,820.323,-789.393,0,0
200818,805.026,-800.552,0,0
201078,790.188,-809.825,0,0
201339,776.256,-818.152,0,0
201599,762.666,-826.361,0,0
201859,748.6,-834.422,0,0
202120,733.984,-841.626,0,0
202380.025,718.617,-847.972,0,0
202640.35,702.581,-852.808,0,0
202900.675,686.589,-855.611,0,0
203161.0,671.384,-856.698,0,0
203421.325,657.282,-856.742,0,0
203681.65,643.862,-855.911,0,0
203941.975,631.718,-854.294,0,0
204202.3,620.477,-852.596,0,0
204462.625,609.723,-850.436,0,0
204722.95,600.111,-848.045,0,0
204983.275,590.962,-845.979,0,0
205243.6,582.34,-844.123,0,0
205503.925,573.437,-842.182,0,0
205764.25,564.547,-839.946,0,0
206024.575,555.608,-837.168,0,0
206284.9,546.687,-833.236,0,0
206545.225,538.811,-828.229,0,0
206805.55,532.396,-822.66,0,0
207065.875,527.271,-817.317,0,0
207326.2,523.013,-812.333,0,0
207586.525,519.433,-807.917,0,0
207846.85,516.269,-803.907,0,0
208107.175,513.496,-800.359,0,0
208367.5,510.914,-797.051,0,0
208627.825,508.587,-794.019,0,0
208888.15,506.375,-791.216,0,0
209148.475,504.396,-788.6,0,0
209408.8,502.611,-786.007,0,0
209669.125,501.075,-783.68,0,0
209929.45,499.873,-781.429,0,0
210189.775,498.959,-779.431,0,0
210450.1,498.232,-777.656,0,0
210710.425,497.803,-776.317,0,0
210970.75,497.42,-775.281,0,0
211231.075,497.246,-774.63,0,0
211491.4,497.224,-774.3,0,0
211751.725,497.214,-774.487,0,0
212012.05,497.016,-775.183,0,0
212272.375,496.583,-776.179,0,0
212532.7,495.901,-777.5,0,0
212793.025,494.899,-779.018,0,0
213053.35,493.634,-780.732,0,0
213313.675,491.94,-782.563,0,0
213574.0,489.911,-784.357,0,0
213834.325,487.634,-786.136,0,0
214094.65,484.969,-787.792,0,0
214354.975,482.006,-789.184,0,0
214615.3,478.899,-790.414,0,0
214875.625,475.822,-791.217,0,0
215135.95,472.784,-792.09,0,0
215396.275,469.44,-792.714,0,0
215656.6,466.095,-793.11,0,0
215916.925,462.576,-793.302,0,0
216177.25,459.039,-792.911,0,0
216437.575,455.678,-792.211,0,0
216697.9,452.615,-791.061,0,0
216958.225,450.029,-789.496,0,0
217218.55,448.077,-787.832,0,0
217478.875,446.71,-786.427,0,0
217739.2,445.693,-785.369,0,0
217999.525,444.903,-784.648,0,0
218259.85,444.231,-784.305,0,0
218520,443.481,-784.212,0,0
218780,442.454,-784.196,0,0
219041,441.387,-784.164,0,0
219301,440.537,-783.997,0,0
219561,440.035,-783.817,0,0
219822,439.786,-783.83,0,0
220082,439.764,-784.392,0,0
220342,439.683,-785.298,0,0
220603,439.502,-786.5,0,0
220863,439.322,-788.009,0,0
221123,438.747,-789.799,0,0
221384,437.863,-791.622,0,0
221644,436.949,-793.33,0,0
221904,436.105,-795.209,0,0
222165,435.261,-797.206,0,0
222425,434.371,-799.538,0,0
222685,433.151,-802.18,0,0
222946,431.508,-805.155,0,0
223206,429.432,-808.038,0,0
223466,426.92,-810.601,0,0
223727,424.386,-812.967,0,0
223987,421.907,-815.056,0,0
224247,419.571,-817.166,0,0
224508,417.239,-819.524,0,0
224768,414.973,-821.937,0,0
225028,412.595,-824.717,0,0
225289,409.97,-827.782,0,0
225549,406.689,-831.341,0,0
225809,402.639,-834.511,0,0
226070,398.141,-837.406,0,0
226330,393.455,-839.79,0,0
226590,388.754,-841.74,0,0
226851,383.638,-843.892,0,0
227111,378.529,-845.45,0,0
227371,373.364,-846.814,0,0
227632,367.925,-847.878,0,0
227892,362.347,-848.452,0,0
228152,356.91,-848.369,0,0
228413,351.919,-847.934,0,0
228673,347.312,-847.334,0,0
228933,343.028,-846.807,0,0
229193,339.043,-846.425,0,0
229454,335.066,-846.18,0,0
229714,331.093,-846.13,0,0
229974,326.996,-846.189,0,0
230235,322.777,-846.328,0,0
230495,318.127,-846.482,0,0
230755,313.287,-846.342,0,0
231016,308.373,-845.826,0,0
231276,303.575,-845.065,0,0
231536,298.815,-844.269,0,0
231797,293.939,-843.355,0,0
232057,289.027,-842.287,0,0
232317,284.018,-840.895,0,0
232578,279.11,-839.192,0,0
232838,274.254,-837.325,0,0
233098,269.663,-835.169,0,0
233359,265.144,-832.979,0,0
233619,260.703,-830.64,0,0
233879,256.333,-828.142,0,0
234140,252.067,-825.379,0,0
234400,248.076,-822.48,0,0
234660.3,244.141,-819.461,0,0
234920.625,240.501,-816.237,0,0
235180.95,236.963,-812.935,0,0
235441.275,233.732,-809.477,0,0
235701.6,230.782,-806.107,0,0
235961.925,227.962,-802.625,0,0
236222.25,225.405,-799.144,0,0
236482.575,222.929,-795.649,0,0
236742.9,220.731,-792.195,0,0
237003.225,218.763,-788.722,0,0
237263.55,216.967,-785.41,0,0
237523.875,215.317,-782.055,0,0
237784.2,213.886,-778.745,0,0
238044.525,212.626,-775.622,0,0
238304.85,211.497,-772.569,0,0
238565.175,210.555,-769.537,0,0
238825.5,209.792,-766.693,0,0
239085.825,209.27,-764.013,0,0
239346.15,208.886,-761.658,0,0
239606.475,208.588,-759.53,0,0
239866.8,208.214,-757.928,0,0
240127.125,207.773,-756.391,0,0
240387.45,206.965,-755.218,0,0
240647.775,206.058,-754.084,0,0
240908.1,204.912,-753.061,0,0
241168.425,203.524,-752.121,0,0
241428.75,201.801,-751.153,0,0
241689.075,199.89,-749.998,0,0
241949.4,197.916,-748.657,0,0
242209.725,195.817,-747.165,0,0
242470.05,193.617,-745.477,0,0
242730.375,191.433,-743.578,0,0
242990.7,189.338,-741.447,0,0
243251.025,187.305,-739.175,0,0
243511.35,185.456,-736.844,0,0
243771.675,183.674,-734.347,0,0
244032.0,181.974,-731.89,0,0
244292.325,180.315,-729.332,0,0
244552.65,178.928,-726.714,0,0
244812.975,177.641,-724.023,0,0
245073.3,176.438,-721.552,0,0
245333.625,175.303,-718.888,0,0
245593.95,174.13,-716.278,0,0
245854.275,173.104,-713.648,0,0
246114.6,172.206,-710.964,0,0
246374.925,171.476,-708.396,0,0
246635.25,170.881,-705.857,0,0
246895.575,170.359,-703.434,0,0
247155.9,169.943,-701.177,0,0
247416.225,169.306,-699.063,0,0
247676.55,168.633,-696.883,0,0
247936.875,167.951,-694.774,0,0
248197.2,167.157,-692.657,0,0
248457.525,166.251,-690.465,0,0
248717.85,165.39,-688.141,0,0
248978.175,164.539,-685.648,0,0
249238.5,163.708,-683.071,0,0
249498.825,162.96,-680.38,0,0
249759.15,162.407,-677.497,0,0
250019.475,162.003,-674.592,0,0
250279.8,161.692,-671.608,0,0
250540,161.595,-668.655,0,0
250800,161.691,-665.656,0,0
251061,161.999,-662.659,0,0
251321,162.502,-659.687,0,0
251581,163.281,-656.773,0,0
251842,164.318,-653.975,0,0
252102,165.65,-651.416,0,0
252362,167.087,-649.229,0,0
252623,168.608,-647.285,0,0
252883,170.175,-645.739,0,0
253143,171.544,-644.555,0,0
253404,172.75,-643.54,0,0
253664,173.689,-642.724,0,0
253924,174.318,-641.941,0,0
254185,174.802,-641.09,0,0
254445,175.023,-640.122,0,0
254705,175.229,-639.029,0,0
254966,175.464,-637.805,0,0
255226,175.728,-636.5,0,0
255486,175.961,-635.192,0,0
255747,176.224,-633.81,0,0
256007,176.503,-632.267,0,0
256267,176.948,-630.682,0,0
256528,177.536,-629.186,0,0
256788,178.125,-627.749,0,0
257048,178.749,-626.317,0,0
257309,179.408,-624.842,0,0
257569,180.176,-623.342,0,0
257829,181.024,-621.908,0,0
258090,181.997,-620.543,0,0
258350,183.054,-619.271,0,0
258610,184.066,-618.052,0,0
258871,185.171,-616.875,0,0
259131,186.35,-615.776,0,0
259391,187.564,-614.786,0,0
259651,188.857,-613.85,0,0
259912,190.172,-612.979,0,0
260172,191.515,-612.37,0,0
260432,192.772,-611.81,0,0
260693,193.976,-611.342,0,0
260953,195.166,-610.9,0,0
261213,196.382,-610.599,0,0
261474,197.547,-610.349,0,0
261734,198.671,-610.13,0,0
261994,199.846,-609.975,0,0
262255,201.014,-609.994,0,0
262515,202.044,-610.227,0,0
262775,202.777,-610.52,0,0
263036,203.348,-610.635,0,0
263296,203.863,-610.679,0,0
263556,204.432,-610.684,0,0
263817,204.93,-610.708,0,0
264077,205.263,-610.638,0,0
264337,205.5,-610.393,0,0
264598,205.779,-609.959,0,0
264858,206.179,-609.299,0,0
265118,206.81,-608.589,0,0
265379,207.601,-607.798,0,0
265639,208.513,-606.975,0,0
265899,209.649,-606.101,0,0
266160,211.05,-605.255,0,0
266420,212.712,-604.467,0,0
266680.25,214.64,-603.839,0,0
266940.575,216.819,-603.352,0,0
267200.9,219.234,-603.136,0,0
267461.225,221.829,-603.192,0,0
267721.55,224.597,-603.631,0,0
267981.875,227.467,-604.424,0,0
268242.2,230.391,-605.574,0,0
268502.525,233.304,-607.256,0,0
268762.85,236.195,-609.183,0,0
269023.175,238.887,-611.733,0,0
269283.5,241.276,-614.639,0,0
269543.825,243.342,-617.918,0,0
269804.15,245.009,-621.425,0,0
270064.475,246.427,-625.054,0,0
270324.8,247.607,-628.879,0,0
270585.125,248.387,-632.892,0,0
270845.45,248.961,-637.154,0,0
271105.775,249.031,-641.495,0,0
271366.1,248.747,-646.077,0,0
271626.425,247.915,-650.689,0,0
271886.75,246.642,-655.249,0,0
272147.075,244.951,-659.755,0,0
272407.4,242.753,-664.112,0,0
272667.725,240.184,-668.273,0,0
272928.05,237.254,-672.235,0,0
273188.375,234.028,-675.995,0,0
273448.7,230.408,-679.596,0,0
273709.025,226.491,-682.898,0,0
273969.35,222.147,-685.895,0,0
274229.675,217.364,-688.529,0,0
274490.0,212.309,-690.564,0,0
274750.325,207.131,-692.03,0,0
275010.65,201.988,-692.931,0,0
275270.975,196.927,-693.26,0,0
275531.3,192,-693.164,0,0
275791.625,187.39,-692.632,0,0
276051.95,183.001,-691.801,0,0
276312.275,178.873,-690.742,0,0
276572.6,175.052,-689.543,0,0
276832.925,171.452,-688.303,0,0
277093.25,167.997,-686.934,0,0
277353.575,164.693,-685.532,0,0
277613.9,161.53,-683.996,0,0
277874.225,158.454,-682.431,0,0
278134.55,155.525,-680.776,0,0
278394.875,152.677,-679.081,0,0
278655.2,149.891,-677.295,0,0
278915.525,147.199,-675.373,0,0
279175.85,144.553,-673.236,0,0
279436.175,142.137,-670.978,0,0
279696.5,139.881,-668.56,0,0
279956.825,137.97,-665.999,0,0
280217.15,136.313,-663.521,0,0
280477.475,134.848,-661.022,0,0
280737.8,133.608,-658.594,0,0
280998.125,132.595,-656.25,0,0
281258.45,131.715,-653.986,0,0
281518.775,131.01,-651.821,0,0
281779.1,130.398,-649.738,0,0
282039.425,129.966,-647.791,0,0
282299.75,129.627,-645.968,0,0
282560,129.404,-644.321,0,0
282820,129.227,-642.895,0,0
283081,128.959,-641.645,0,0
283341,128.597,-640.502,0,0
283601,128.131,-639.401,0,0
283862,127.583,-638.28,0,0
284122,127.028,-637.086,0,0
284382,126.433,-635.839,0,0
284643,125.863,-634.538,0,0
284903,125.369,-633.141,0,0
285163,125.007,-631.649,0,0
285424,124.888,-630.111,0,0
285684,124.963,-628.639,0,0
285944,125.31,-627.295,0,0
286205,125.835,-626.141,0,0
286465,126.47,-625.256,0,0
286725,127.206,-624.658,0,0
286986,127.958,-624.344,0,0
287246,128.664,-624.391,0,0
287506,129.267,-624.767,0,0
287767,129.639,-625.448,0,0
288027,129.665,-626.371,0,0
288287,129.348,-627.451,0,0
288548,128.61,-628.532,0,0
288808,127.526,-629.539,0,0
289068,126.135,-630.322,0,0
289329,124.565,-630.951,0,0
289589,122.831,-631.368,0,0
289849,120.993,-631.519,0,0
290109,119.131,-631.518,0,0
290370,117.248,-631.31,0,0
290630,115.441,-630.911,0,0
290890,113.759,-630.439,0,0
291151,112.102,-629.941,0,0
291411,110.455,-629.429,0,0
291671,108.757,-628.875,0,0
291932,107.04,-628.275,0,0
292192,105.3,-627.606,0,0
292452,103.528,-626.832,0,0
292713,101.756,-625.931,0,0
292973,100.029,-624.935,0,0
293233,98.3175,-623.862,0,0
293494,96.6545,-622.714,0,0
293754,95.0925,-621.514,0,0
294014,93.5398,-620.253,0,0
294275,92.0267,-618.957,0,0
294535,90.5439,-617.587,0,0
294795,89.0658,-616.109,0,0
295056,87.7197,-614.598,0,0
295316,86.4074,-613.009,0,0
295576,85.205,-611.396,0,0
295837,84.0971,-609.737,0,0
296097,83.09,-608.1,0,0
296357,82.1422,-606.5,0,0
296618,81.2798,-604.916,0,0
296878,80.4389,-603.355,0,0
297138,79.6207,-601.833,0,0
297399,78.8175,-600.301,0,0
297659,78.0354,-598.787,0,0
297919,77.2784,-597.252,0,0
298180,76.5489,-595.676,0,0
298440,75.8434,-594.114,0,0
298700.2,75.1894,-592.546,0,0
298960.525,74.5678,-590.971,0,0
299220.85,73.9784,-589.368,0,0
299481.175,73.4386,-587.758,0,0
299741.5,72.9158,-586.155,0,0
300001.825,72.4592,-584.527,0,0
300262.15,72.0688,-582.887,0,0
300522.475,71.722,-581.235,0,0
300782.8,71.4453,-579.585,0,0
301043.125,71.2406,-577.951,0,0
301303.45,71.1343,-576.323,0,0
301563.775,71.0935,-574.754,0,0
301824.1,71.1265,-573.262,0,0
302084.425,71.1844,-571.845,0,0
302344.75,71.2878,-570.461,0,0
302605.075,71.3927,-569.153,0,0
302865.4,71.5379,-567.899,0,0
303125.725,71.667,-566.71,0,0
303386.05,71.8103,-565.559,0,0
303646.375,71.9301,-564.446,0,0
303906.7,72.0696,-563.359,0,0
304167.025,72.1895,-562.31,0,0
304427.35,72.3423,-561.263,0,0
304687.675,72.483,-560.251,0,0
304948.0,72.6513,-559.251,0,0
305208.325,72.8243,-558.331,0,0
305468.65,72.997,-557.407,0,0
305728.975,73.2052,-556.542,0,0
305989.3,73.4146,-555.71,0,0
306249.625,73.6299,-554.941,0,0
306509.95,73.8086,-554.213,0,0
306770.275,73.991,-553.535,0,0
307030.6,74.1596,-552.889,0,0
307290.925,74.2693,-552.283,0,0
307551.25,74.3901,-551.68,0,0
307811.575,74.5068,-551.091,0,0
308071.9,74.6358,-550.529,0,0
308332.225,74.778,-550.054,0,0
308592.55,74.8939,-549.65,0,0
308852.875,74.9616,-549.352,0,0
309113.2,74.9147,-549.104,0,0
309373.525,74.7393,-548.837,0,0
309633.85,74.4623,-548.565,0,0
309894.175,74.1388,-548.193,0,0
310154.5,73.822,-547.808,0,0
310414.825,73.4744,-547.37,0,0
310675.15,73.111,-546.899,0,0
310935.475,72.7699,-546.39,0,0
311195.8,72.4226,-545.89,0,0
311456.125,72.0574,-545.397,0,0
311716.45,71.6944,-544.872,0,0
311976.775,71.3091,-544.372,0,0
312237.1,70.927,-543.846,0,0
312497.425,70.5146,-543.304,0,0
312757.75,70.126,-542.751,0,0
313018.075,69.7265,-542.207,0,0
313278.4,69.3028,-541.644,0,0
313538.725,68.8583,-541.109,0,0
313799.05,68.374,-540.526,0,0
314059.375,67.8676,-539.935,0,0
314319.7,67.3489,-539.302,0,0
314580,66.7929,-538.615,0,0
314840,66.3701,-537.899,0,0
315101,65.8747,-537.119,0,0
315361,65.3709,-536.34,0,0
315621,64.9256,-535.606,0,0
315882,64.4874,-534.756,0,0
316142,64.0664,-533.941,0,0
316402,63.6702,-533.077,0,0
316663,63.3061,-532.197,0,0
316923,62.9907,-531.338,0,0
317183,62.6999,-530.443,0,0
317444,62.5011,-529.585,0,0
317704,62.305,-528.742,0,0
317964,62.0915,-527.965,0,0
318225,61.9003,-527.136,0,0
318485,61.726,-526.405,0,0
318745,61.568,-525.604,0,0
319006,61.4305,-524.873,0,0
319266,61.3446,-524.121,0,0
319526,61.1166,-523.398,0,0
319787,61.1299,-522.648,0,0
320047,61.0266,-522.011,0,0
320307,60.9708,-521.444,0,0
320567,60.8224,-520.847,0,0
320828,60.7716,-520.335,0,0
321088,60.5871,-519.875,0,0
321348,60.3476,-519.404,0,0
321609,60.1673,-518.906,0,0
321869,59.8509,-518.475,0,0
322129,59.5586,-517.868,0,0
322390,59.308,-517.346,0,0
322650,59.0054,-516.875,0,0
322910,58.6434,-516.323,0,0
323171,58.3848,-515.818,0,0
323431,58.0655,-515.323,0,0
323691,57.7342,-514.893,0,0
323952,57.3133,-514.353,0,0
324212,56.9179,-513.86,0,0
324472,56.4023,-513.316,0,0
324733,55.9758,-512.75,0,0
324993,55.4544,-512.161,0,0
325253,54.9852,-511.549,0,0
325514,54.4316,-510.892,0,0
325774,53.9719,-510.177,0,0
326034,53.532,-509.494,0,0
326295,52.9986,-508.698,0,0
326555,52.5573,-507.914,0,0
326815,52.2136,-507.181,0,0
327076,51.7958,-506.404,0,0
327336,51.419,-505.612,0,0
327596,50.9699,-504.834,0,0
327857,50.5926,-504,0,0
328117,50.2038,-503.264,0,0
328377,49.8895,-502.47,0,0
328638,49.49,-501.662,0,0
328898,49.1695,-500.86,0,0
329158,48.8519,-500.077,0,0
329419,48.5187,-499.238,0,0
329679,48.1633,-498.424,0,0
329939,47.8583,-497.657,0,0
330200,47.5153,-496.851,0,0
330460,47.1516,-495.973,0,0
330720.15,46.8618,-495.104,0,0
330980.475,46.5708,-494.268,0,0
331240.8,46.2824,-493.372,0,0
331501.125,46.0309,-492.557,0,0
331761.45,45.7085,-491.678,0,0
332021.775,45.4604,-490.736,0,0
332282.1,45.1798,-489.889,0,0
332542.425,44.9985,-488.912,0,0
332802.75,44.7973,-488.018,0,0
333063.075,44.6139,-487.077,0,0
333323.4,44.4431,-486.158,0,0
333583.725,44.349,-485.29,0,0
333844.05,44.2702,-484.33,0,0
334104.375,44.1419,-483.402,0,0
334364.7,44.0876,-482.502,0,0
334625.025,44.0681,-481.666,0,0
334885.35,44.0666,-480.797,0,0
335145.675,44.0648,-479.944,0,0
335406.0,44.0933,-479.122,0,0
335666.325,44.1105,-478.38,0,0
335926.65,44.104,-477.597,0,0
336186.975,44.1498,-476.91,0,0
336447.3,44.1951,-476.133,0,0
336707.625,44.2323,-475.383,0,0
336967.95,44.1912,-474.796,0,0
337228.275,44.2026,-474.111,0,0
337488.6,44.2033,-473.426,0,0
337748.925,44.2133,-472.846,0,0
338009.25,44.2057,-472.157,0,0
338269.575,44.155,-471.563,0,0
338529.9,44.1085,-470.95,0,0
338790.225,44.0315,-470.384,0,0
339050.55,43.9291,-469.8,0,0
339310.875,43.8286,-469.194,0,0
339571.2,43.7796,-468.558,0,0
339831.525,43.6394,-467.967,0,0
340091.85,43.513,-467.337,0,0
340352.175,43.379,-466.753,0,0
340612.5,43.2441,-466.095,0,0
340872.825,43.173,-465.524,0,0
341133.15,42.9376,-464.868,0,0
341393.475,42.8241,-464.22,0,0
341653.8,42.6299,-463.65,0,0
341914.125,42.4251,-462.936,0,0
342174.45,42.2825,-462.216,0,0
342434.775,42.1289,-461.561,0,0
342695.1,41.9901,-460.876,0,0
342955.425,41.8413,-460.171,0,0
343215.75,41.6621,-459.472,0,0
343476.075,41.5669,-458.709,0,0
343736.4,41.4348,-458.019,0,0
343996.725,41.2727,-457.26,0,0
344257.05,41.1307,-456.481,0,0
344517.375,41.0316,-455.768,0,0
344777.7,40.9443,-455.086,0,0
345038.025,40.8639,-454.305,0,0
345298.35,40.789,-453.583,0,0
345558.675,40.685,-452.826,0,0
345819.0,40.5969,-452.067,0,0
346079.325,40.5424,-451.309,0,0
346339.65,40.5203,-450.579,0,0
346599.975,40.4647,-449.762,0,0
346860,40.4629,-449.013,0,0
347121,40.4834,-448.245,0,0
347381,40.4977,-447.547,0,0
347641,40.5018,-446.72,0,0
347902,40.558,-446.023,0,0
348162,40.6256,-445.305,0,0
348422,40.6522,-444.621,0,0
348683,40.7152,-443.902,0,0
348943,40.7706,-443.185,0,0
349203,40.8594,-442.501,0,0
349464,40.8813,-441.86,0,0
349724,40.9446,-441.179,0,0
349984,41.05,-440.495,0,0
350245,41.1066,-439.853,0,0
350505,41.1947,-439.196,0,0
350765,41.3029,-438.57,0,0
351025,41.358,-437.937,0,0
351286,41.4276,-437.301,0,0
351546,41.5272,-436.717,0,0
351806,41.5936,-436.078,0,0
352067,41.7069,-435.483,0,0
352327,41.7911,-434.895,0,0
352587,41.8952,-434.321,0,0
352848,41.952,-433.687,0,0
353108,42.102,-433.095,0,0
353368,42.1864,-432.578,0,0
353629,42.2827,-432.023,0,0
353889,42.3614,-431.425,0,0
354149,42.4474,-430.887,0,0
354410,42.5406,-430.398,0,0
354670,42.6488,-429.892,0,0
354930,42.7102,-429.381,0,0
355191,42.8064,-428.88,0,0
355451,42.892,-428.388,0,0
355711,42.932,-427.905,0,0
355972,43.0269,-427.429,0,0
356232,43.0308,-426.954,0,0
356492,43.0766,-426.544,0,0
356753,43.0878,-426.057,0,0
357013,43.1322,-425.638,0,0
357273,43.1188,-425.16,0,0
357534,43.0442,-424.69,0,0
357794,43.0137,-424.173,0,0
358054,42.9475,-423.677,0,0
358315,42.938,-423.223,0,0
358575,42.8676,-422.697,0,0
358835,42.8157,-422.143,0,0
359096,42.7612,-421.627,0,0
359356,42.7318,-421.083,0,0
359616,42.6598,-420.538,0,0
359877,42.627,-420.013,0,0
360137,42.6271,-419.414,0,0
360397,42.6064,-418.853,0,0
360658,42.5251,-418.323,0,0
360918,42.558,-417.737,0,0
361178,42.5349,-417.162,0,0
361438,42.5277,-416.566,0,0
361699,42.5036,-415.964,0,0
361959,42.5109,-415.434,0,0
362219,42.501,-414.902,0,0
362480,42.5319,-414.307,0,0
362740.1,42.4926,-413.713,0,0
363000.425,42.4929,-413.091,0,0
363260.75,42.5286,-412.53,0,0
363521.075,42.578,-411.934,0,0
363781.4,42.6143,-411.333,0,0
364041.725,42.6602,-410.697,0,0
364302.05,42.7237,-410.133,0,0
364562.375,42.8022,-409.503,0,0
364822.7,42.8822,-408.881,0,0
365083.025,42.9851,-408.266,0,0
365343.35,43.086,-407.685,0,0
365603.675,43.2339,-407.146,0,0
365864.0,43.4206,-406.603,0,0
366124.325,43.5345,-406.088,0,0
366384.65,43.6522,-405.598,0,0
366644.975,43.7743,-405.063,0,0
366905.3,43.9111,-404.579,0,0
367165.625,44.0045,-404.095,0,0
367425.95,44.0634,-403.592,0,0
367686.275,44.1618,-403.139,0,0
367946.6,44.2266,-402.614,0,0
368206.925,44.2701,-402.105,0,0
368467.25,44.3545,-401.567,0,0
368727.575,44.4386,-400.984,0,0
368987.9,44.5729,-400.43,0,0
369248.225,44.7169,-399.909,0,0
369508.55,44.8483,-399.332,0,0
369768.875,45.0523,-398.767,0,0
370029.2,45.268,-398.229,0,0
370289.525,45.5,-397.745,0,0
370549.85,45.7196,-397.268,0,0
370810.175,46.0147,-396.824,0,0
371070.5,46.2598,-396.404,0,0
371330.825,46.4851,-396.058,0,0
371591.15,46.679,-395.669,0,0
371851.475,46.8865,-395.312,0,0
372111.8,47.0498,-395.023,0,0
372372.125,47.2101,-394.684,0,0
372632.45,47.3681,-394.342,0,0
372892.775,47.532,-394.047,0,0
373153.1,47.6178,-393.774,0,0
373413.425,47.7427,-393.427,0,0
373673.75,47.8541,-393.159,0,0
373934.075,47.9132,-392.838,0,0
374194.4,47.98,-392.547,0,0
374454.725,48.0201,-392.236,0,0
374715.05,48.1144,-391.915,0,0
374975.375,48.0989,-391.589,0,0
375235.7,48.148,-391.258,0,0
375496.025,48.1856,-390.859,0,0
375756.35,48.2363,-390.564,0,0
376016.675,48.3155,-390.174,0,0
376277.0,48.36,-389.875,0,0
376537.325,48.4161,-389.494,0,0
376797.65,48.5174,-389.16,0,0
377057.975,48.6167,-388.819,0,0
377318.3,48.7327,-388.547,0,0
377578.625,48.8357,-388.247,0,0
377838.95,48.8714,-388.047,0,0
378099.275,48.8964,-387.82,0,0
378359.6,48.8869,-387.623,0,0
378619.925,48.8369,-387.37,0,0
378880,48.7521,-387.128,0,0
379141,48.6032,-386.843,0,0
379401,48.4667,-386.485,0,0
379661,48.3095,-386.064,0,0
379922,48.2176,-385.603,0,0
380182,48.2016,-385.154,0,0
380442,48.1887,-384.661,0,0
380703,48.3169,-384.166,0,0
380963,48.4312,-383.745,0,0
381223,48.6355,-383.369,0,0
381483,48.8766,-383.076,0,0
381744,49.0072,-382.906,0,0
382004,49.1723,-382.768,0,0
382264,49.1648,-382.676,0,0
382525,49.1632,-382.594,0,0
382785,49.0817,-382.467,0,0
383045,48.8962,-382.401,0,0
383306,48.7021,-382.24,0,0
383566,48.4526,-382.072,0,0
383826,48.1909,-381.83,0,0
384087,47.9327,-381.634,0,0
384347,47.6669,-381.304,0,0
384607,47.3197,-380.983,0,0
384868,47.0381,-380.602,0,0
385128,46.7411,-380.191,0,0
385388,46.4732,-379.742,0,0
385649,46.1662,-379.234,0,0
385909,45.9066,-378.793,0,0
386169,45.7147,-378.275,0,0
386430,45.5053,-377.728,0,0
386690,45.2781,-377.232,0,0
386950,45.1044,-376.671,0,0
387211,44.8557,-376.067,0,0
387471,44.7598,-375.495,0,0
387731,44.5921,-374.916,0,0
387992,44.495,-374.349,0,0
388252,44.3766,-373.719,0,0
388512,44.3295,-373.11,0,0
388773,44.224,-372.523,0,0
389033,44.2512,-371.955,0,0
389293,44.2131,-371.34,0,0
389554,44.1999,-370.777,0,0
389814,44.2284,-370.209,0,0
390074,44.2392,-369.643,0,0
390335,44.2397,-369.134,0,0
390595,44.2502,-368.62,0,0
390855,44.2656,-368.109,0,0
391116,44.2864,-367.609,0,0
391376,44.2631,-367.117,0,0
391636,44.3011,-366.601,0,0
391896,44.2952,-366.108,0,0
392157,44.2802,-365.615,0,0
392417,44.3066,-365.103,0,0
392677,44.2758,-364.604,0,0
392938,44.2597,-364.089,0,0
393198,44.2713,-363.583,0,0
393458,44.294,-363.053,0,0
393719,44.286,-362.517,0,0
393979,44.2966,-362,0,0
394239,44.2829,-361.481,0,0
394500,44.302,-360.96,0,0
394760.05,44.3505,-360.421,0,0
395020.375,44.4113,-359.909,0,0
395280.7,44.424,-359.35,0,0
395541.025,44.5035,-358.801,0,0
395801.35,44.553,-358.284,0,0
396061.675,44.6238,-357.743,0,0
396322.0,44.7316,-357.213,0,0
396582.325,44.8171,-356.731,0,0
396842.65,44.9383,-356.269,0,0
397102.975,45.0112,-355.797,0,0
397363.3,45.0973,-355.357,0,0
397623.625,45.1875,-354.906,0,0
397883.95,45.2434,-354.464,0,0
398144.275,45.2674,-354.036,0,0
398404.6,45.3291,-353.595,0,0
398664.925,45.3859,-353.166,0,0
398925.25,45.3992,-352.732,0,0
399185.575,45.4228,-352.259,0,0
399445.9,45.4541,-351.769,0,0
399706.225,45.4559,-351.343,0,0
399966.55,45.4629,-350.893,0,0
400006.6,45.4587,-350.796,0,0