File: Accelerated corrosion test data/2025-10-12_06-00-03/sample_3.csv
Frequency (Hz),Impedance (ohms),Phase (Radians),Temperature (C),Humidity (%)
10000.0,249.763,-11800.2,0,0
10260.325,242.941,-11502.4,0,0
10520.65,238.173,-11219.3,0,0
10780.975,233.45,-10949.4,0,0
11041.3,227.759,-10697,0,0
11301.625,222.447,-10451.9,0,0
11561.95,217.111,-10218.1,0,0
11822.275,213.398,-9993.92,0,0
12082.6,210.059,-9780.65,0,0
12342.925,208.07,-9574.22,0,0
12603.25,201.587,-9380.2,0,0
12863.575,197.942,-9190.63,0,0
13123.9,197.754,-9006.81,0,0
13384.225,191.203,-8838.54,0,0
13644.55,189.009,-8669.95,0,0
13904.875,184.157,-8506.14,0,0
14165.2,183.97,-8349.71,0,0
14425.525,179.029,-8201.42,0,0
14685.8,178.165,-8054.92,0,0
14946.175,174.926,-7916.98,0,0
15206.5,172.042,-7776,0,0
15466.825,178.638,-7636.12,0,0
15727.15,193.811,-7534.58,0,0
15987.5,172.54,-7421.98,0,0
16247.8,165.899,-7292.83,0,0
16508.125,160.645,-7180.69,0,0
16768.45,165.621,-7059.75,0,0
17028.775,156.583,-6962.17,0,0
17289.1,158.828,-6848.5,0,0
17549.425,156.31,-6757.23,0,0
17809.75,155.503,-6650.92,0,0
18070.075,161.425,-6564.95,0,0
18330.4,149.444,-6471.06,0,0
18590.725,147.389,-6379.74,0,0
18851.05,144.076,-6289.54,0,0
19111.375,145.188,-6199.76,0,0
19371.7,144.246,-6117.15,0,0
19632.025,145.301,-6033.14,0,0
19892.35,144.745,-5953.6,0,0
20152.675,149.259,-5876.19,0,0
20413.0,158.716,-5800.16,0,0
20673.3,160.804,-5730.86,0,0
20933.65,162.468,-5680.43,0,0
21193.975,159.37,-5611.56,0,0
21454.3,145.557,-5553.47,0,0
21714.625,137.522,-5477.84,0,0
21974.9,140.86,-5412.14,0,0
22235.275,138.63,-5353.62,0,0
22495.6,135.566,-5291.39,0,0
22755.925,128.087,-5231.73,0,0
23016.25,127.566,-5171.93,0,0
23276.6,127.024,-5110.02,0,0
23536.9,128.606,-5063.97,0,0
23797.225,120.182,-5005.4,0,0
24057.55,117.84,-4947.97,0,0
24317.875,118.459,-4892.77,0,0
24578.2,116.461,-4842.46,0,0
24838.525,116.856,-4789.17,0,0
25098.85,115.476,-4742.03,0,0
25359.175,112.326,-4692.56,0,0
25619.5,112.356,-4644.92,0,0
25879.8,109.866,-4598.72,0,0
26140.1,107.437,-4550.55,0,0
26400.5,106.658,-4503.57,0,0
26660.8,107.425,-4459.13,0,0
26921.1,107.646,-4414.39,0,0
27181.4,108.298,-4374,0,0
27441.8,106.739,-4330.49,0,0
27702.1,107.195,-4291.1,0,0
27962.4,104.897,-4250.33,0,0
28222.7,102.984,-4207.81,0,0
28483.1,109.849,-4165.11,0,0
28743.4,112.103,-4129.92,0,0
29003.7,115.051,-4100.3,0,0
29264,108.335,-4067.32,0,0
29524.4,107.899,-4030.32,0,0
29784.7,103.522,-3995.52,0,0
30045,101.461,-3961.68,0,0
30305.3,99.8184,-3924.27,0,0
30565.7,101.039,-3890.57,0,0
30826,100.806,-3858.53,0,0
31086.3,101.69,-3825.1,0,0
31346.6,98.2361,-3795.07,0,0
31607,97.1925,-3760.93,0,0
31867.3,97.0733,-3726.98,0,0
32127.6,100.648,-3693.89,0,0
32387.9,108.767,-3665.27,0,0
32648.3,111.34,-3647.64,0,0
32908.6,104.087,-3623.59,0,0
33168.9,100.451,-3596.06,0,0
33429.2,98.7832,-3568.54,0,0
33689.6,93.0301,-3541.65,0,0
33949.9,90.1514,-3511.76,0,0
34210.2,89.8007,-3483.66,0,0
34470.5,89.6576,-3457.12,0,0
34730.9,87.314,-3431.28,0,0
34991.2,85.9062,-3404.43,0,0
35251.5,84.9113,-3378.47,0,0
35511.8,84.4086,-3353.04,0,0
35772.2,83.6286,-3328.14,0,0
36032.5,82.789,-3303.04,0,0
36292.8,82.0687,-3278.66,0,0
36553.1,81.8104,-3255.07,0,0
36813.5,81.0466,-3231.63,0,0
37073.8,80.1955,-3208.37,0,0
37334.1,79.7148,-3185.29,0,0
37594.4,79.3226,-3162.43,0,0
37854.8,78.8008,-3140.29,0,0
38115.1,78.3264,-3118.34,0,0
38375.4,77.7379,-3096.64,0,0
38635.7,77.3165,-3075.35,0,0
38896.1,77.0245,-3054.25,0,0
39156.4,76.6608,-3033.41,0,0
39416.7,76.2691,-3012.99,0,0
39677,75.6878,-2992.78,0,0
39937.4,75.1007,-2972.57,0,0
40197.7,75.0477,-2952.71,0,0
40458,74.3655,-2933.39,0,0
40718.3,74.0927,-2913.82,0,0
40978.7,73.5956,-2894.46,0,0
41239,73.8197,-2875.47,0,0
41499.3,73.6889,-2857.28,0,0
41759.6,73.7163,-2838.91,0,0
42020,73.3372,-2821.47,0,0
42280.275,73.1154,-2803.39,0,0
42540.6,72.8317,-2786.01,0,0
42800.925,72.7592,-2768.49,0,0
43061.25,72.1476,-2751.57,0,0
43321.575,71.6052,-2734.34,0,0
43581.9,71.2161,-2717.22,0,0
43842.225,71.2889,-2700.33,0,0
44102.55,71.5098,-2684.03,0,0
44362.875,71.8559,-2668.06,0,0
44623.2,70.8087,-2652.16,0,0
44883.525,70.5626,-2636.06,0,0
45143.85,70.613,-2620.66,0,0
45404.175,70.1482,-2605.26,0,0
45664.5,69.8727,-2589.38,0,0
45924.825,70.5294,-2574.18,0,0
46185.15,69.9146,-2559.96,0,0
46445.475,69.2488,-2544.8,0,0
46705.8,69.2213,-2529.73,0,0
46966.125,69.4484,-2515.42,0,0
47226.45,69.215,-2501.01,0,0
47486.775,69.0663,-2486.64,0,0
47747.1,69.5962,-2472.16,0,0
48007.425,69.918,-2459.23,0,0
48267.75,69.9883,-2446.13,0,0
48528.075,69.1271,-2432.96,0,0
48788.4,69.0465,-2419.94,0,0
49048.725,68.1508,-2406.6,0,0
49309.05,67.3458,-2393.22,0,0
49569.375,67.328,-2379.91,0,0
49829.7,67.2034,-2367.09,0,0
50090.025,66.5709,-2354.54,0,0
50350.35,66.191,-2341.64,0,0
50610.675,65.9492,-2328.53,0,0
50871.0,65.8777,-2315.9,0,0
51131.325,65.7709,-2303.44,0,0
51391.65,65.5513,-2290.96,0,0
51651.975,65.6717,-2278.78,0,0
51912.3,65.7102,-2266.97,0,0
52172.625,65.5603,-2254.91,0,0
52432.95,65.3833,-2242.74,0,0
52693.275,65.6038,-2230.85,0,0
52953.6,65.934,-2219,0,0
53213.925,66.5862,-2207.31,0,0
53474.25,67.5461,-2196.44,0,0
53734.575,67.7121,-2185.88,0,0
53994.9,67.8068,-2174.88,0,0
54255.225,68.7734,-2164.08,0,0
54515.55,69.6996,-2154.93,0,0
54775.875,69.0239,-2145.63,0,0
55036.2,68.2261,-2135.86,0,0
55296.525,67.6668,-2126.24,0,0
55556.85,66.2539,-2116.6,0,0
55817.175,64.6131,-2105.98,0,0
56077.5,63.7028,-2095.47,0,0
56337.825,62.9943,-2084.87,0,0
56598.15,62.2008,-2074.38,0,0
56858.475,61.3585,-2063.82,0,0
57118.8,60.9085,-2052.9,0,0
57379.125,60.7448,-2042.34,0,0
57639.45,60.6505,-2031.92,0,0
57899.775,60.7849,-2021.69,0,0
58160.1,60.6901,-2011.77,0,0
58420.4,60.6841,-2001.88,0,0
58680.7,60.6935,-1991.73,0,0
58941.1,60.7432,-1982.03,0,0
59201.4,60.8603,-1972.13,0,0
59461.7,61.2778,-1962.64,0,0
59722,61.5542,-1952.97,0,0
59982.4,61.8185,-1943.67,0,0
60242.7,62.1465,-1934.42,0,0
60503,62.2463,-1925.18,0,0
60763.3,62.4928,-1915.91,0,0
61023.7,63.0036,-1906.67,0,0
61284,63.3167,-1897.65,0,0
61544.3,63.8975,-1888.54,0,0
61804.6,64.4628,-1880,0,0
62065,64.5839,-1871.13,0,0
62325.3,65.1367,-1862.3,0,0
62585.6,65.7873,-1853.62,0,0
62845.9,66.2571,-1844.6,0,0
63106.3,67.3578,-1835.78,0,0
63366.6,68.306,-1827.37,0,0
63626.9,69.3097,-1818.54,0,0
63887.2,70.904,-1810.23,0,0
64147.6,72.1468,-1801.74,0,0
64407.9,74.5424,-1793.32,0,0
64668.2,76.9952,-1785.64,0,0
64928.5,79.7662,-1778.19,0,0
65188.9,83.5501,-1772.05,0,0
65449.2,86.638,-1767.38,0,0
65709.5,88.6338,-1763.16,0,0
65969.8,91.2442,-1760.05,0,0
66230.2,91.1005,-1760.31,0,0
66490.5,85.2727,-1758.13,0,0
66750.8,80.3552,-1751.21,0,0
67011.1,77.4747,-1742.52,0,0
67271.5,75.5392,-1734.79,0,0
67531.8,74.3573,-1726.31,0,0
67792.1,74.4914,-1718.15,0,0
68052.4,74.5931,-1710.48,0,0
68312.8,75.5908,-1703.28,0,0
68573.1,75.8621,-1697.16,0,0
68833.4,75.8631,-1690.78,0,0
69093.7,76.2928,-1684.22,0,0
69354.1,76.8952,-1678.77,0,0
69614.4,76.3231,-1673.59,0,0
69874.7,75.5435,-1668.14,0,0
70135,74.5884,-1662.17,0,0
70395.4,74.0516,-1656.27,0,0
70655.7,72.7634,-1650.41,0,0
70916,71.4404,-1644.09,0,0
71176.3,70.5602,-1637.6,0,0
71436.7,69.6957,-1630.89,0,0
71697,68.9287,-1624.13,0,0
71957.3,68.8866,-1617.11,0,0
72217.6,69.0988,-1610.88,0,0
72478,69.048,-1604.82,0,0
72738.3,69.049,-1598.95,0,0
72998.6,68.9261,-1593.49,0,0
73258.9,68.4131,-1587.91,0,0
73519.3,67.9132,-1582.15,0,0
73779.6,67.556,-1576.52,0,0
74039.9,67.0227,-1570.96,0,0
74300.225,66.2491,-1565.47,0,0
74560.55,65.5132,-1559.76,0,0
74820.875,64.7545,-1553.99,0,0
75081.2,63.9769,-1548.31,0,0
75341.525,63.2235,-1542.57,0,0
75601.85,62.4237,-1536.78,0,0
75862.175,61.6956,-1530.86,0,0
76122.5,61.0189,-1524.97,0,0
76382.825,60.4291,-1519.12,0,0
76643.15,59.8644,-1513.25,0,0
76903.475,59.3214,-1507.45,0,0
77163.8,58.8509,-1501.62,0,0
77424.125,58.3694,-1495.86,0,0
77684.45,57.8975,-1490.18,0,0
77944.775,57.3195,-1484.51,0,0
78205.1,56.8603,-1478.74,0,0
78465.425,56.4676,-1473.04,0,0
78725.75,56.0553,-1467.35,0,0
78986.075,55.6555,-1461.69,0,0
79246.4,55.263,-1456.08,0,0
79506.725,54.9865,-1450.41,0,0
79767.05,54.599,-1444.86,0,0
80027.375,54.2764,-1439.23,0,0
80287.7,54.1054,-1433.65,0,0
80548.025,53.8759,-1428.16,0,0
80808.35,53.6289,-1422.76,0,0
81068.675,53.4363,-1417.27,0,0
81329.0,53.2561,-1411.83,0,0
81589.325,53.1224,-1406.48,0,0
81849.65,52.9253,-1401.07,0,0
82109.975,52.7706,-1395.76,0,0
82370.3,52.6941,-1390.48,0,0
82630.625,52.6143,-1385.2,0,0
82890.95,52.4997,-1379.92,0,0
83151.275,52.4679,-1374.87,0,0
83411.6,52.3295,-1369.65,0,0
83671.925,52.291,-1364.46,0,0
83932.25,52.2176,-1359.39,0,0
84192.575,52.2253,-1354.31,0,0
84452.9,52.1442,-1349.29,0,0
84713.225,52.141,-1344.24,0,0
84973.55,52.097,-1339.25,0,0
85233.875,52.1755,-1334.2,0,0
85494.2,52.1768,-1329.28,0,0
85754.525,52.2242,-1324.37,0,0
86014.85,52.2311,-1319.5,0,0
86275.175,52.2652,-1314.67,0,0
86535.5,52.2841,-1309.84,0,0
86795.825,52.2529,-1304.98,0,0
87056.15,52.2932,-1300.18,0,0
87316.475,52.3415,-1295.3,0,0
87576.8,52.5489,-1290.54,0,0
87837.125,52.6633,-1285.72,0,0
88097.45,52.8378,-1281.09,0,0
88357.775,52.9412,-1276.36,0,0
88618.1,53.1045,-1271.62,0,0
88878.425,53.2732,-1266.76,0,0
89138.75,53.7195,-1262.02,0,0
89399.075,54.1367,-1257.4,0,0
89659.4,54.6436,-1252.83,0,0
89919.725,55.1262,-1248.41,0,0
90180,55.6146,-1244.1,0,0
90440.4,55.9965,-1239.89,0,0
90700.7,56.434,-1235.64,0,0
90961,56.7987,-1231.3,0,0
91221.3,57.2857,-1227.12,0,0
91481.7,57.8427,-1222.92,0,0
91742,58.2993,-1218.89,0,0
92002.3,58.8393,-1214.83,0,0
92262.6,59.3803,-1210.74,0,0
92523,59.9664,-1206.96,0,0
92783.3,60.6407,-1203.34,0,0
93043.6,61.0747,-1199.68,0,0
93303.9,61.7614,-1195.96,0,0
93564.3,62.4736,-1192.74,0,0
93824.6,62.9729,-1189.75,0,0
94084.9,63.4116,-1187.06,0,0
94345.2,62.9357,-1184.5,0,0
94605.6,62.4439,-1181.36,0,0
94865.9,62.1009,-1178.6,0,0
95126.2,60.8699,-1175.87,0,0
95386.5,59.3221,-1172.29,0,0
95646.9,58.1553,-1167.89,0,0
95907.2,57.4795,-1163.7,0,0
96167.5,56.8312,-1159.49,0,0
96427.8,56.3552,-1155.07,0,0
96688.2,56.2431,-1150.68,0,0
96948.5,56.2402,-1146.56,0,0
97208.8,56.1678,-1142.56,0,0
97469.1,56.13,-1138.57,0,0
97729.5,56.1021,-1134.64,0,0
97989.8,56.0494,-1130.78,0,0
98250.1,55.9685,-1126.89,0,0
98510.4,55.9558,-1123,0,0
98770.8,56.0122,-1119.19,0,0
99031.1,55.9517,-1115.52,0,0
99291.4,55.7767,-1111.8,0,0
99551.7,55.6059,-1108,0,0
99812.1,55.4076,-1104.08,0,0
100072,55.3792,-1100.21,0,0
100333,55.25,-1096.35,0,0
100593,55.1,-1092.45,0,0
100853,54.9753,-1088.45,0,0
101114,54.9886,-1084.36,0,0
101374,55.0735,-1080.36,0,0
101634,55.1752,-1076.27,0,0
101895,55.441,-1072.17,0,0
102155,55.7762,-1068.08,0,0
102415,56.2302,-1063.95,0,0
102676,57.0386,-1059.85,0,0
102936,58.038,-1056.16,0,0
103196,58.9349,-1052.84,0,0
103457,59.5309,-1049.54,0,0
103717,60.1876,-1046.14,0,0
103977,60.881,-1042.79,0,0
104238,61.8092,-1039.59,0,0
104498,62.8081,-1036.83,0,0
104758,63.3933,-1034.45,0,0
105019,63.507,-1032.06,0,0
105279,63.3557,-1029.34,0,0
105539,63.4279,-1026.45,0,0
105800,63.4556,-1023.81,0,0
106060,63.2592,-1021.15,0,0
106320.175,62.8556,-1018.39,0,0
106580.5,62.4488,-1015.4,0,0
106840.825,62.0375,-1012.46,0,0
107101.15,61.4744,-1009.45,0,0
107361.475,60.9067,-1006.21,0,0
107621.8,60.4752,-1002.79,0,0
107882.125,60.0266,-999.4,0,0
108142.45,59.6628,-995.938,0,0
108402.775,59.2934,-992.464,0,0
108663.1,58.999,-988.895,0,0
108923.425,58.6945,-985.259,0,0
109183.75,58.4289,-981.499,0,0
109444.075,58.4459,-977.625,0,0
109704.4,58.598,-973.965,0,0
109964.725,58.6511,-970.369,0,0
110225.05,58.7359,-966.751,0,0
110485.375,58.8643,-962.889,0,0
110745.7,59.3387,-959.134,0,0
111006.025,59.9554,-955.483,0,0
111266.35,60.6756,-952.13,0,0
111526.675,60.9604,-948.822,0,0
111787.0,61.425,-945.466,0,0
112047.325,61.9508,-942.192,0,0
112307.65,62.3976,-938.954,0,0
112567.975,62.864,-935.931,0,0
112828.3,63.1565,-932.883,0,0
113088.625,63.4148,-929.653,0,0
113348.95,63.7645,-926.457,0,0
113609.275,64.0906,-923.339,0,0
113869.6,64.3472,-920.157,0,0
114129.925,64.7024,-916.91,0,0
114390.25,64.9921,-913.738,0,0
114650.575,65.1724,-910.361,0,0
114910.9,65.6185,-906.898,0,0
115171.225,66.0259,-903.481,0,0
115431.55,66.6725,-900.052,0,0
115691.875,67.3926,-896.771,0,0
115952.2,67.9852,-893.599,0,0
116212.525,68.5511,-890.199,0,0
116472.85,69.3346,-886.763,0,0
116733.175,70.3403,-883.397,0,0
116993.5,71.4392,-880.297,0,0
117253.825,72.347,-877.27,0,0
117514.15,73.2462,-874.021,0,0
117774.475,74.4725,-870.598,0,0
118034.8,76.2731,-867.511,0,0
118295.125,78.032,-865.036,0,0
118555.45,79.544,-862.933,0,0
118815.775,80.5301,-860.964,0,0
119076.1,81.4354,-858.397,0,0
119336.425,82.6785,-855.822,0,0
119596.75,84.5112,-853.521,0,0
119857.075,86.2591,-851.984,0,0
120117.4,87.6395,-850.867,0,0
120377.725,88.5221,-850.094,0,0
120638.05,88.7615,-849.21,0,0
120898.375,88.8108,-848.069,0,0
121158.7,88.5038,-846.921,0,0
121419.025,87.8186,-845.495,0,0
121679.35,86.9224,-843.529,0,0
121939.675,86.1295,-841.043,0,0
122200.0,85.7739,-838.258,0,0
122460,85.7561,-835.505,0,0
122721,85.864,-832.908,0,0
122981,86.0271,-830.276,0,0
123241,86.3925,-827.673,0,0
123502,86.819,-825.304,0,0
123762,87.1303,-823.087,0,0
124022,87.4095,-820.774,0,0
124283,87.7206,-818.507,0,0
124543,88.0341,-816.306,0,0
124803,88.3034,-814.142,0,0
125064,88.6199,-811.953,0,0
125324,88.9484,-809.922,0,0
125584,89.1354,-807.865,0,0
125845,89.3514,-805.895,0,0
126105,89.5216,-804.049,0,0
126365,89.5405,-802.221,0,0
126626,89.297,-800.336,0,0
126886,89.0707,-798.35,0,0
127146,88.9264,-796.247,0,0
127406,88.5499,-794.154,0,0
127667,88.3341,-792.054,0,0
127927,88.0003,-789.861,0,0
128187,87.7524,-787.611,0,0
128448,87.2808,-785.411,0,0
128708,86.781,-783.06,0,0
128968,86.3762,-780.416,0,0
129229,86.073,-777.803,0,0
129489,85.8669,-775.172,0,0
129749,85.6635,-772.524,0,0
130010,85.5645,-769.758,0,0
130270,85.5993,-766.962,0,0
130530,85.8441,-764.205,0,0
130791,86.2898,-761.727,0,0
131051,86.5695,-759.502,0,0
131311,86.7275,-757.342,0,0
131572,86.7534,-755.217,0,0
131832,86.6366,-753.063,0,0
132092,86.4352,-750.865,0,0
132353,86.1811,-748.538,0,0
132613,85.9788,-746.063,0,0
132873,85.9043,-743.596,0,0
133134,85.8358,-741.244,0,0
133394,85.7047,-738.89,0,0
133654,85.5182,-736.591,0,0
133915,85.1598,-734.298,0,0
134175,84.7603,-731.816,0,0
134435,84.5097,-729.191,0,0
134696,84.3232,-726.657,0,0
134956,83.9889,-724.15,0,0
135216,83.6184,-721.48,0,0
135477,83.3828,-718.739,0,0
135737,83.1836,-716.056,0,0
135997,82.9506,-713.45,0,0
136258,82.5807,-710.725,0,0
136518,82.1254,-707.771,0,0
136778,81.9579,-704.626,0,0
137039,81.9828,-701.46,0,0
137299,82.1515,-698.479,0,0
137559,82.3985,-695.566,0,0
137819,82.6222,-692.793,0,0
138080,82.7715,-690.032,0,0
138340.125,82.9782,-687.2,0,0
138600.45,83.3277,-684.505,0,0
138860.775,83.616,-682.076,0,0
139121.1,83.6031,-679.67,0,0
139381.425,83.4739,-677.151,0,0
139641.75,83.2284,-674.546,0,0
139902.075,82.9551,-671.719,0,0
140162.4,82.7559,-668.74,0,0
140422.725,82.7683,-665.767,0,0
140683.05,82.8716,-662.892,0,0
140943.375,82.8603,-660.166,0,0
141203.7,82.6726,-657.399,0,0
141464.025,82.4734,-654.483,0,0
141724.35,82.2136,-651.487,0,0
141984.675,81.9624,-648.304,0,0
142245.0,81.8965,-645.053,0,0
142505.325,81.8908,-641.85,0,0
142765.65,81.8224,-638.632,0,0
143025.975,81.751,-635.338,0,0
143286.3,81.7682,-631.954,0,0
143546.625,81.8241,-628.487,0,0
143806.95,81.9204,-625.047,0,0
144067.275,82.052,-621.549,0,0
144327.6,82.2196,-617.991,0,0
144587.925,82.4381,-614.378,0,0
144848.25,82.7918,-610.726,0,0
145108.575,83.1979,-607.082,0,0
145368.9,83.6747,-603.448,0,0
145629.225,84.1334,-599.844,0,0
145889.55,84.5424,-596.195,0,0
146149.875,84.9892,-592.39,0,0
146410.2,85.6545,-588.488,0,0
146670.525,86.38,-584.749,0,0
146930.85,87.0415,-580.939,0,0
147191.175,87.7818,-577.051,0,0
147451.5,88.5643,-573.136,0,0
147711.825,89.4092,-569.049,0,0
147972.15,90.5106,-564.884,0,0
148232.475,91.7895,-560.859,0,0
148492.8,93.0822,-556.915,0,0
148753.125,94.3388,-552.979,0,0
149013.45,95.6326,-548.93,0,0
149273.775,97.0524,-544.771,0,0
149534.1,98.6712,-540.497,0,0
149794.425,100.596,-536.209,0,0
150054.75,102.783,-532.14,0,0
150315.075,105.06,-528.266,0,0
150575.4,107.404,-524.467,0,0
150835.725,109.876,-520.766,0,0
151096.05,112.382,-517.287,0,0
151356.375,114.952,-513.932,0,0
151616.7,117.524,-510.722,0,0
151877.025,120.05,-507.619,0,0
152137.35,122.65,-504.566,0,0
152397.675,125.255,-501.707,0,0
152658.0,127.778,-499.018,0,0
152918.325,130.211,-496.348,0,0
153178.65,132.733,-493.808,0,0
153438.975,135.004,-491.575,0,0
153699.3,136.952,-489.197,0,0
153959.625,138.939,-486.61,0,0
154219.95,141.021,-484.15,0,0
154480,142.871,-481.951,0,0
154741,144.27,-479.683,0,0
155001,145.219,-476.896,0,0
155261,146.338,-473.411,0,0
155522,148.06,-469.396,0,0
155782,150.555,-465.7,0,0
156042,153.125,-462.411,0,0
156303,155.436,-459.421,0,0
156563,157.409,-456.171,0,0
156823,159.632,-452.376,0,0
157084,162.571,-448.428,0,0
157344,166.114,-444.863,0,0
157604,170.105,-442.089,0,0
157864,173.418,-440.091,0,0
158125,176.513,-438.185,0,0
158385,179.364,-436.649,0,0
158645,181.018,-435.554,0,0
158906,181.917,-433.56,0,0
159166,182.381,-430.823,0,0
159426,183.008,-427.168,0,0
159687,183.785,-422.944,0,0
159947,184.539,-417.727,0,0
160207,186.586,-411.437,0,0
160468,189.936,-405.351,0,0
160728,193.947,-399.407,0,0
160988,199.025,-394.24,0,0
161249,203.45,-390.087,0,0
161509,207.251,-384.966,0,0
161769,212.316,-379.119,0,0
162030,218.69,-373.869,0,0
162290,224.978,-369.557,0,0
162550,231.281,-365.234,0,0
162811,238.057,-361.11,0,0
163071,244.874,-357.148,0,0
163331,252.163,-353.072,0,0
163592,260.166,-349.052,0,0
163852,268.798,-345.592,0,0
164112,278.078,-342.713,0,0
164373,287.643,-340.782,0,0
164633,297.119,-339.17,0,0
164893,307.456,-337.455,0,0
165154,319.242,-337.204,0,0
165414,330.805,-339.458,0,0
165674,340.717,-342.698,0,0
165935,350.199,-345.562,0,0
166195,360.074,-349.045,0,0
166455,369.949,-353.73,0,0
166716,379.323,-359.716,0,0
166976,387.493,-366.888,0,0
167236,394.218,-374.408,0,0
167497,399.797,-381.984,0,0
167757,404.244,-388.957,0,0
168017,408.739,-395.264,0,0
168277,413.406,-402.242,0,0
168538,417.416,-409.644,0,0
168798,420.757,-417.297,0,0
169058,423.515,-425.169,0,0
169319,425.787,-433.424,0,0
169579,426.56,-442.676,0,0
169839,424.979,-451.53,0,0
170100,421.807,-458.601,0,0
170360.075,418.5,-463.724,0,0
170620.4,415.541,-467.85,0,0
170880.725,412.702,-471.373,0,0
171141.05,409.86,-474.261,0,0
171401.375,406.962,-476.18,0,0
171661.7,404.826,-476.976,0,0
171922.025,403.846,-477.788,0,0
172182.35,402.804,-478.906,0,0
172442.675,401.766,-479.404,0,0
172703.0,401.182,-479.091,0,0
172963.325,402.102,-478.088,0,0
173223.65,405.09,-478.197,0,0
173483.975,408.225,-480.604,0,0
173744.3,409.968,-484.134,0,0
174004.625,410.59,-487.311,0,0
174264.95,411.048,-489.588,0,0
174525.275,412.779,-491.987,0,0
174785.6,414.459,-496.109,0,0
175045.925,414.782,-500.764,0,0
175306.25,414.029,-505.277,0,0
175566.575,412.826,-508.915,0,0
175826.9,411.857,-512.231,0,0
176087.225,410.994,-515.756,0,0
176347.55,409.755,-519.616,0,0
176607.875,408.227,-523.497,0,0
176868.2,406.457,-527.932,0,0
177128.525,403.135,-532.957,0,0
177388.85,398.057,-536.767,0,0
177649.175,392.674,-538.911,0,0
177909.5,387.673,-540.224,0,0
178169.825,382.55,-541.131,0,0
178430.15,376.95,-540.881,0,0
178690.475,371.905,-539.302,0,0
178950.8,367.734,-536.927,0,0
179211.125,364.62,-534.164,0,0
179471.45,362.137,-531.517,0,0
179731.775,360.026,-528.508,0,0
179992.1,358.963,-525.055,0,0
180252.425,359.217,-522.35,0,0
180512.75,359.42,-520.671,0,0
180773.075,359.488,-519.104,0,0
181033.4,359.862,-517.514,0,0
181293.725,360.832,-516.19,0,0
181554.05,362.123,-515.799,0,0
181814.375,363.467,-516.27,0,0
182074.7,364.269,-518.026,0,0
182335.025,363.551,-520.139,0,0
182595.35,361.695,-521.848,0,0
182855.675,359.419,-522.674,0,0
183116.0,357.274,-522.995,0,0
183376.325,355.201,-523.388,0,0
183636.65,352.588,-523.935,0,0
183896.975,349.193,-524.062,0,0
184157.3,345.332,-523.081,0,0
184417.625,342.031,-521.082,0,0
184677.95,339.32,-519.097,0,0
184938.275,336.372,-517.115,0,0
185198.6,333.387,-514.449,0,0
185458.925,330.643,-511.365,0,0
185719.25,328.201,-507.973,0,0
185979.575,325.881,-504.109,0,0
186239.9,324.069,-499.728,0,0
186500,322.746,-495.144,0,0
186761,322.076,-490.112,0,0
187021,322.428,-485.162,0,0
187281,323.286,-480.886,0,0
187542,324.157,-476.812,0,0
187802,325.406,-472.748,0,0
188062,327.104,-469.152,0,0
188322,328.858,-466.016,0,0
188583,330.59,-463.28,0,0
188843,332.009,-461.032,0,0
189103,332.716,-458.702,0,0
189364,333.249,-455.673,0,0
189624,334.204,-452.043,0,0
189884,335.913,-448.367,0,0
190145,338.14,-445.227,0,0
190405,340.176,-442.611,0,0
190665,341.995,-440.024,0,0
190926,343.866,-437.35,0,0
191186,345.778,-434.77,0,0
191446,347.631,-432.305,0,0
191707,349.295,-429.722,0,0
191967,351.023,-426.839,0,0
192227,353.043,-423.99,0,0
192488,354.922,-421.292,0,0
192748,356.525,-418.262,0,0
193008,358.248,-414.511,0,0
193269,360.735,-410.331,0,0
193529,363.892,-406.151,0,0
193789,367.696,-402.233,0,0
194050,371.796,-398.574,0,0
194310,376.214,-394.957,0,0
194570,381.127,-391.456,0,0
194831,386.622,-388.247,0,0
195091,392.8,-385.471,0,0
195351,399.499,-383.517,0,0
195612,406.354,-382.531,0,0
195872,413.183,-382.335,0,0
196132,419.86,-382.997,0,0
196393,426.49,-384.6,0,0
196653,432.093,-387.119,0,0
196913,436.643,-390.184,0,0
197174,439.875,-393.311,0,0
197434,441.964,-395.634,0,0
197694,443.857,-396.867,0,0
197955,446.256,-397.515,0,0
198215,449.018,-398.225,0,0
198475,451.842,-399.112,0,0
198735,454.49,-400.3,0,0
198996,456.539,-401.463,0,0
199256,458.421,-401.789,0,0
199516,460.976,-401.772,0,0
199777,464.229,-402.438,0,0
200037,466.804,-404.07,0,0
200297,468.14,-405.62,0,0
200558,468.706,-406.28,0,0
200818,469.071,-405.663,0,0
201078,470.227,-403.943,0,0
201339,472.264,-401.902,0,0
201599,475.033,-399.854,0,0
201859,478.27,-397.942,0,0
202120,481.909,-396.123,0,0
202380.025,485.949,-394.219,0,0
202640.35,490.673,-392.536,0,0
202900.675,496.03,-391.237,0,0
203161.0,501.64,-390.471,0,0
203421.325,507.55,-390.13,0,0
203681.65,513.695,-390.264,0,0
203941.975,519.977,-391.098,0,0
204202.3,526.11,-392.381,0,0
204462.625,532.245,-394.304,0,0
204722.95,538.053,-396.867,0,0
204983.275,543.368,-399.714,0,0
205243.6,548.484,-402.763,0,0
205503.925,553.381,-406.437,0,0
205764.25,557.428,-410.549,0,0
206024.575,560.442,-414.583,0,0
206284.9,562.239,-418.253,0,0
206545.225,563.338,-420.529,0,0
206805.55,564.845,-421.562,0,0
207065.875,566.9,-421.659,0,0
207326.2,570.024,-420.899,0,0
207586.525,574.601,-420.228,0,0
207846.85,580.107,-420.337,0,0
208107.175,585.946,-421.049,0,0
208367.5,592.072,-422.117,0,0
208627.825,598.638,-423.78,0,0
208888.15,605.311,-426.142,0,0
209148.475,611.951,-428.996,0,0
209408.8,618.612,-432.349,0,0
209669.125,625.257,-436.129,0,0
209929.45,631.915,-440.323,0,0
210189.775,638.348,-445.218,0,0
210450.1,644.559,-450.556,0,0
210710.425,650.561,-456.085,0,0
210970.75,656.331,-462.094,0,0
211231.075,661.939,-468.515,0,0
211491.4,667.006,-475.245,0,0
211751.725,671.646,-482.142,0,0
212012.05,675.969,-489.036,0,0
212272.375,680.179,-495.964,0,0
212532.7,684.222,-503.019,0,0
212793.025,688.206,-510.117,0,0
213053.35,692.237,-517.45,0,0
213313.675,696.121,-525.392,0,0
213574.0,699.609,-533.785,0,0
213834.325,702.445,-542.439,0,0
214094.65,704.793,-550.991,0,0
214354.975,706.83,-559.342,0,0
214615.3,708.831,-567.616,0,0
214875.625,710.868,-576.169,0,0
215135.95,712.817,-585.1,0,0
215396.275,714.336,-594.66,0,0
215656.6,715.143,-604.508,0,0
215916.925,715.166,-614.261,0,0
216177.25,714.691,-623.831,0,0
216437.575,713.954,-633.146,0,0
216697.9,712.938,-642.488,0,0
216958.225,711.477,-652.108,0,0
217218.55,709.13,-661.654,0,0
217478.875,706.181,-670.497,0,0
217739.2,703.19,-678.823,0,0
217999.525,700.259,-686.86,0,0
218259.85,697.38,-694.887,0,0
218520,694.131,-703.264,0,0
218780,690.196,-711.113,0,0
219041,686.004,-718.291,0,0
219301,682.222,-724.913,0,0
219561,678.927,-731.534,0,0
219822,675.75,-738.567,0,0
220082,672.649,-745.938,0,0
220342,668.713,-754.147,0,0
220603,664.121,-762.186,0,0
220863,659.074,-769.864,0,0
221123,653.753,-777.422,0,0
221384,647.977,-784.736,0,0
221644,642.077,-791.603,0,0
221904,636.024,-798.733,0,0
222165,629.23,-805.931,0,0
222425,621.418,-812.615,0,0
222685,613.296,-818.792,0,0
222946,604.597,-824.525,0,0
223206,595.176,-829.316,0,0
223466,585.321,-833.165,0,0
223727,575.383,-835.459,0,0
223987,566.01,-836.557,0,0
224247,557.535,-836.771,0,0
224508,549.623,-836.539,0,0
224768,542.628,-835.766,0,0
225028,536.294,-834.673,0,0
225289,531.204,-833.43,0,0
225549,526.64,-832.376,0,0
225809,523.044,-831.629,0,0
226070,520.073,-831.648,0,0
226330,517.389,-832.555,0,0
226590,514.332,-834.084,0,0
226851,510.971,-835.835,0,0
227111,507.576,-837.888,0,0
227371,504.17,-840.287,0,0
227632,500.278,-843.089,0,0
227892,495.707,-846.02,0,0
228152,490.64,-848.703,0,0
228413,485.367,-851.158,0,0
228673,479.705,-853.278,0,0
228933,473.86,-855.058,0,0
229193,468.056,-856.42,0,0
229454,462.291,-857.399,0,0
229714,456.622,-858.512,0,0
229974,451.1,-859.099,0,0
230235,445.526,-859.668,0,0
230495,440.184,-860.263,0,0
230755,434.698,-860.752,0,0
231016,429.032,-861.015,0,0
231276,423.591,-861.04,0,0
231536,418.216,-860.872,0,0
231797,412.956,-860.657,0,0
232057,407.945,-860.349,0,0
232317,402.912,-860.026,0,0
232578,397.901,-859.653,0,0
232838,392.964,-859.193,0,0
233098,388.003,-858.739,0,0
233359,383.026,-858.148,0,0
233619,378.175,-857.431,0,0
233879,373.483,-856.682,0,0
234140,368.779,-855.914,0,0
234400,364.082,-855.073,0,0
234660.3,359.29,-854.069,0,0
234920.625,354.788,-853.013,0,0
235180.95,350.515,-852.184,0,0
235441.275,345.981,-851.321,0,0
235701.6,341.399,-850.578,0,0
235961.925,336.653,-849.745,0,0
236222.25,331.752,-848.737,0,0
236482.575,326.819,-847.511,0,0
236742.9,321.888,-846.013,0,0
237003.225,317.018,-844.443,0,0
237263.55,312.267,-842.774,0,0
237523.875,307.48,-841.036,0,0
237784.2,302.562,-839.14,0,0
238044.525,297.558,-837.036,0,0
238304.85,292.596,-834.616,0,0
238565.175,287.755,-831.894,0,0
238825.5,283.059,-828.868,0,0
239085.825,278.622,-825.533,0,0
239346.15,274.476,-822.063,0,0
239606.475,270.659,-818.437,0,0
239866.8,267.206,-814.867,0,0
240127.125,263.972,-811.231,0,0
240387.45,260.849,-807.766,0,0
240647.775,257.902,-804.354,0,0
240908.1,255.096,-800.91,0,0
241168.425,252.332,-797.491,0,0
241428.75,249.649,-793.954,0,0
241689.075,247.049,-790.396,0,0
241949.4,244.706,-786.465,0,0
242209.725,242.692,-782.605,0,0
242470.05,241.161,-778.933,0,0
242730.375,239.736,-775.475,0,0
242990.7,238.408,-772.133,0,0
243251.025,237.178,-768.973,0,0
243511.35,235.934,-765.825,0,0
243771.675,234.981,-762.786,0,0
244032.0,234.17,-760.045,0,0
244292.325,233.287,-757.41,0,0
244552.65,232.3,-754.928,0,0
244812.975,231.381,-752.478,0,0
245073.3,230.458,-750.044,0,0
245333.625,229.243,-747.871,0,0
245593.95,228.202,-745.59,0,0
245854.275,227.032,-743.296,0,0
246114.6,226.005,-740.925,0,0
246374.925,224.961,-738.553,0,0
246635.25,223.984,-736.247,0,0
246895.575,223.072,-733.882,0,0
247155.9,222.149,-731.521,0,0
247416.225,221.3,-729.29,0,0
247676.55,220.38,-727.014,0,0
247936.875,219.539,-724.624,0,0
248197.2,218.745,-722.196,0,0
248457.525,218.138,-719.652,0,0
248717.85,217.793,-717.176,0,0
248978.175,217.683,-714.84,0,0
249238.5,217.713,-712.794,0,0
249498.825,217.772,-710.972,0,0
249759.15,217.848,-709.437,0,0
250019.475,217.673,-708.036,0,0
250279.8,217.519,-706.819,0,0
250540,217.183,-705.932,0,0
250800,216.48,-704.976,0,0
251061,215.622,-703.993,0,0
251321,214.576,-702.941,0,0
251581,213.324,-701.795,0,0
251842,212.012,-700.549,0,0
252102,210.556,-699.232,0,0
252362,208.992,-697.736,0,0
252623,207.244,-696.002,0,0
252883,205.485,-693.988,0,0
253143,203.783,-691.667,0,0
253404,202.191,-689.135,0,0
253664,200.825,-686.382,0,0
253924,199.578,-683.502,0,0
254185,198.525,-680.476,0,0
254445,197.708,-677.31,0,0
254705,197.076,-674.117,0,0
254966,196.676,-670.842,0,0
255226,196.45,-667.556,0,0
255486,196.457,-664.13,0,0
255747,196.725,-660.702,0,0
256007,197.345,-657.276,0,0
256267,198.316,-653.882,0,0
256528,199.639,-650.651,0,0
256788,201.296,-647.737,0,0
257048,203.133,-645.206,0,0
257309,205.041,-642.966,0,0
257569,206.873,-641.005,0,0
257829,208.627,-639.229,0,0
258090,210.364,-637.591,0,0
258350,211.979,-636.105,0,0
258610,213.504,-634.53,0,0
258871,215.124,-632.867,0,0
259131,216.89,-631.114,0,0
259391,219.001,-629.38,0,0
259651,221.541,-627.816,0,0
259912,224.367,-626.596,0,0
260172,227.394,-625.826,0,0
260432,230.522,-625.572,0,0
260693,233.585,-625.69,0,0
260953,236.658,-626.188,0,0
261213,239.703,-627.183,0,0
261474,242.619,-628.772,0,0
261734,245.129,-630.873,0,0
261994,247.171,-633.277,0,0
262255,248.802,-635.89,0,0
262515,249.962,-638.744,0,0
262775,250.656,-641.716,0,0
263036,250.878,-644.684,0,0
263296,250.656,-647.579,0,0
263556,250.069,-650.39,0,0
263817,249.244,-653.113,0,0
264077,247.998,-655.809,0,0
264337,246.343,-658.435,0,0
264598,244.205,-660.765,0,0
264858,241.858,-662.744,0,0
265118,239.285,-664.345,0,0
265379,236.546,-665.64,0,0
265639,233.661,-666.688,0,0
265899,230.744,-667.317,0,0
266160,227.761,-667.705,0,0
266420,224.746,-667.75,0,0
266680.25,221.726,-667.54,0,0
266940.575,218.811,-666.876,0,0
267200.9,215.997,-666.002,0,0
267461.225,213.346,-664.882,0,0
267721.55,210.858,-663.559,0,0
267981.875,208.591,-662.041,0,0
268242.2,206.423,-660.377,0,0
268502.525,204.544,-658.562,0,0
268762.85,202.868,-656.656,0,0
269023.175,201.489,-654.697,0,0
269283.5,200.296,-652.824,0,0
269543.825,199.199,-651.153,0,0
269804.15,198.08,-649.455,0,0
270064.475,197.044,-647.628,0,0
270324.8,196.018,-645.736,0,0
270585.125,195.271,-643.764,0,0
270845.45,194.63,-641.746,0,0
271105.775,194.19,-639.767,0,0
271366.1,193.953,-637.871,0,0
271626.425,193.923,-636.14,0,0
271886.75,193.937,-634.522,0,0
272147.075,193.957,-632.947,0,0
272407.4,194.179,-631.574,0,0
272667.725,194.247,-630.445,0,0
272928.05,194.103,-629.433,0,0
273188.375,193.755,-628.233,0,0
273448.7,193.4,-626.906,0,0
273709.025,193.104,-625.402,0,0
273969.35,192.904,-623.757,0,0
274229.675,192.909,-621.879,0,0
274490.0,193.238,-620.103,0,0
274750.325,193.691,-618.387,0,0
275010.65,194.293,-616.631,0,0
275270.975,195.143,-614.984,0,0
275531.3,196.177,-613.413,0,0
275791.625,197.477,-612.033,0,0
276051.95,198.902,-610.848,0,0
276312.275,200.44,-609.896,0,0
276572.6,202.071,-609.209,0,0
276832.925,203.777,-608.78,0,0
277093.25,205.489,-608.65,0,0
277353.575,207.143,-608.796,0,0
277613.9,208.646,-609.201,0,0
277874.225,210.038,-609.777,0,0
278134.55,211.345,-610.532,0,0
278394.875,212.544,-611.493,0,0
278655.2,213.567,-612.672,0,0
278915.525,214.38,-614.014,0,0
279175.85,214.957,-615.48,0,0
279436.175,215.299,-617.06,0,0
279696.5,215.359,-618.679,0,0
279956.825,215.239,-620.305,0,0
280217.15,214.791,-621.986,0,0
280477.475,214.108,-623.616,0,0
280737.8,213.132,-625.068,0,0
280998.125,212.033,-626.339,0,0
281258.45,210.807,-627.462,0,0
281518.775,209.56,-628.507,0,0
281779.1,208.2,-629.489,0,0
282039.425,206.656,-630.348,0,0
282299.75,205.027,-631.035,0,0
282560,203.337,-631.569,0,0
282820,201.619,-631.949,0,0
283081,199.919,-632.195,0,0
283341,198.165,-632.364,0,0
283601,196.385,-632.432,0,0
283862,194.535,-632.317,0,0
284122,192.755,-632.092,0,0
284382,190.941,-631.752,0,0
284643,189.148,-631.267,0,0
284903,187.415,-630.634,0,0
285163,185.718,-629.919,0,0
285424,184.105,-629.084,0,0
285684,182.493,-628.126,0,0
285944,180.996,-627.077,0,0
286205,179.612,-625.896,0,0
286465,178.307,-624.607,0,0
286725,177.149,-623.267,0,0
286986,176.084,-621.885,0,0
287246,175.222,-620.354,0,0
287506,174.553,-618.754,0,0
287767,174.115,-617.258,0,0
288027,173.88,-615.896,0,0
288287,173.782,-614.675,0,0
288548,173.725,-613.595,0,0
288808,173.729,-612.653,0,0
289068,173.775,-611.864,0,0
289329,173.774,-611.226,0,0
289589,173.706,-610.71,0,0
289849,173.534,-610.29,0,0
290109,173.232,-609.857,0,0
290370,172.918,-609.403,0,0
290630,172.574,-608.956,0,0
290890,172.225,-608.505,0,0
291151,171.833,-608.103,0,0
291411,171.321,-607.737,0,0
291671,170.732,-607.274,0,0
291932,170.103,-606.791,0,0
292192,169.431,-606.176,0,0
292452,168.737,-605.485,0,0
292713,168.075,-604.615,0,0
292973,167.527,-603.619,0,0
293233,167.1,-602.54,0,0
293494,166.855,-601.416,0,0
293754,166.797,-600.296,0,0
294014,166.889,-599.251,0,0
294275,167.132,-598.283,0,0
294535,167.492,-597.459,0,0
294795,167.96,-596.747,0,0
295056,168.467,-596.187,0,0
295316,169.058,-595.818,0,0
295576,169.654,-595.61,0,0
295837,170.192,-595.603,0,0
296097,170.695,-595.761,0,0
296357,171.071,-596.059,0,0
296618,171.353,-596.456,0,0
296878,171.506,-596.975,0,0
297138,171.524,-597.562,0,0
297399,171.393,-598.187,0,0
297659,171.131,-598.859,0,0
297919,170.723,-599.546,0,0
298180,170.158,-600.213,0,0
298440,169.481,-600.81,0,0
298700.2,168.682,-601.354,0,0
298960.525,167.831,-601.834,0,0
299220.85,166.921,-602.269,0,0
299481.175,165.941,-602.647,0,0
299741.5,164.89,-602.986,0,0
300001.825,163.797,-603.252,0,0
300262.15,162.656,-603.442,0,0
300522.475,161.471,-603.585,0,0
300782.8,160.236,-603.662,0,0
301043.125,158.994,-603.683,0,0
301303.45,157.724,-603.63,0,0
301563.775,156.395,-603.534,0,0
301824.1,155.065,-603.372,0,0
302084.425,153.7,-603.106,0,0
302344.75,152.349,-602.765,0,0
302605.075,151.021,-602.317,0,0
302865.4,149.728,-601.821,0,0
303125.725,148.473,-601.273,0,0
303386.05,147.243,-600.706,0,0
303646.375,146.029,-600.102,0,0
303906.7,144.813,-599.452,0,0
304167.025,143.602,-598.759,0,0
304427.35,142.409,-597.982,0,0
304687.675,141.252,-597.173,0,0
304948.0,140.149,-596.279,0,0
305208.325,139.067,-595.355,0,0
305468.65,138.081,-594.403,0,0
305728.975,137.098,-593.399,0,0
305989.3,136.197,-592.374,0,0
306249.625,135.367,-591.315,0,0
306509.95,134.61,-590.225,0,0
306770.275,133.942,-589.139,0,0
307030.6,133.349,-588.076,0,0
307290.925,132.855,-587.045,0,0
307551.25,132.421,-586.065,0,0
307811.575,132.012,-585.154,0,0
308071.9,131.664,-584.3,0,0
308332.225,131.318,-583.534,0,0
308592.55,130.981,-582.828,0,0
308852.875,130.623,-582.188,0,0
309113.2,130.217,-581.59,0,0
309373.525,129.793,-581.034,0,0
309633.85,129.336,-580.491,0,0
309894.175,128.832,-580.002,0,0
310154.5,128.281,-579.509,0,0
310414.825,127.677,-579.012,0,0
310675.15,127.041,-578.544,0,0
310935.475,126.349,-578.041,0,0
311195.8,125.611,-577.514,0,0
311456.125,124.844,-576.98,0,0
311716.45,124.022,-576.381,0,0
311976.775,123.137,-575.802,0,0
312237.1,122.224,-575.102,0,0
312497.425,121.29,-574.335,0,0
312757.75,120.335,-573.47,0,0
313018.075,119.421,-572.528,0,0
313278.4,118.553,-571.496,0,0
313538.725,117.724,-570.394,0,0
313799.05,116.965,-569.236,0,0
314059.375,116.271,-568.041,0,0
314319.7,115.614,-566.817,0,0
314580,115.016,-565.612,0,0
314840,114.542,-564.198,0,0
315101,114.031,-562.908,0,0
315361,113.841,-561.536,0,0
315621,113.683,-560.117,0,0
315882,113.659,-558.8,0,0
316142,113.634,-557.557,0,0
316402,113.755,-556.387,0,0
316663,113.95,-555.332,0,0
316923,114.123,-554.322,0,0
317183,114.386,-553.52,0,0
317444,114.594,-552.711,0,0
317704,114.788,-552.043,0,0
317964,114.968,-551.493,0,0
318225,114.998,-550.856,0,0
318485,115.054,-550.285,0,0
318745,115.074,-549.692,0,0
319006,115.089,-549.102,0,0
319266,115.058,-548.562,0,0
319526,114.966,-547.985,0,0
319787,114.969,-547.435,0,0
320047,114.978,-546.751,0,0
320307,114.912,-546.122,0,0
320567,115.023,-545.591,0,0
320828,115.021,-545.055,0,0
321088,115.144,-544.483,0,0
321348,115.203,-543.92,0,0
321609,115.381,-543.404,0,0
321869,115.629,-542.952,0,0
322129,115.853,-542.598,0,0
322390,116.121,-542.345,0,0
322650,116.361,-542.178,0,0
322910,116.603,-542.117,0,0
323171,116.697,-542.128,0,0
323431,116.781,-542.196,0,0
323691,116.697,-542.355,0,0
323952,116.685,-542.501,0,0
324212,116.521,-542.715,0,0
324472,116.235,-542.822,0,0
324733,115.831,-543.099,0,0
324993,115.388,-543.287,0,0
325253,114.962,-543.465,0,0
325514,114.361,-543.567,0,0
325774,113.783,-543.741,0,0
326034,113.049,-543.833,0,0
326295,112.372,-543.843,0,0
326555,111.536,-543.872,0,0
326815,110.727,-543.782,0,0
327076,109.862,-543.615,0,0
327336,108.971,-543.465,0,0
327596,108.08,-543.335,0,0
327857,107.17,-542.966,0,0
328117,106.274,-542.609,0,0
328377,105.412,-542.245,0,0
328638,104.495,-541.865,0,0
328898,103.565,-541.413,0,0
329158,102.753,-540.972,0,0
329419,101.827,-540.387,0,0
329679,101.06,-539.899,0,0
329939,100.271,-539.335,0,0
330200,99.4262,-538.774,0,0
330460,98.6225,-538.277,0,0
330720.15,97.7979,-537.678,0,0
330980.475,96.9079,-537.044,0,0
331240.8,96.0983,-536.542,0,0
331501.125,95.2913,-535.918,0,0
331761.45,94.3209,-535.305,0,0
332021.775,93.4936,-534.538,0,0
332282.1,92.6731,-533.911,0,0
332542.425,91.7715,-533.15,0,0
332802.75,90.9108,-532.373,0,0
333063.075,90,-531.597,0,0
333323.4,89.102,-530.749,0,0
333583.725,88.214,-529.923,0,0
333844.05,87.3802,-528.981,0,0
334104.375,86.4696,-527.952,0,0
334364.7,85.7454,-526.928,0,0
334625.025,84.8761,-525.86,0,0
334885.35,84.1426,-524.766,0,0
335145.675,83.4075,-523.658,0,0
335406.0,82.7534,-522.483,0,0
335666.325,82.1167,-521.315,0,0
335926.65,81.4854,-520.069,0,0
336186.975,80.9851,-518.865,0,0
336447.3,80.4848,-517.685,0,0
336707.625,80.046,-516.495,0,0
336967.95,79.6125,-515.286,0,0
337228.275,79.129,-514.141,0,0
337488.6,78.7359,-512.875,0,0
337748.925,78.4647,-511.669,0,0
338009.25,78.0107,-510.464,0,0
338269.575,77.7126,-509.195,0,0
338529.9,77.3747,-507.896,0,0
338790.225,77.1267,-506.581,0,0
339050.55,76.8368,-505.31,0,0
339310.875,76.6509,-504.014,0,0
339571.2,76.5422,-502.627,0,0
339831.525,76.5295,-501.262,0,0
340091.85,76.5206,-499.869,0,0
340352.175,76.6392,-498.527,0,0
340612.5,76.7558,-497.183,0,0
340872.825,77.0267,-495.937,0,0
341133.15,77.3335,-494.652,0,0
341393.475,77.7293,-493.492,0,0
341653.8,78.0961,-492.385,0,0
341914.125,78.6015,-491.347,0,0
342174.45,79.1728,-490.414,0,0
342434.775,79.7083,-489.551,0,0
342695.1,80.2022,-488.771,0,0
342955.425,80.7428,-488.077,0,0
343215.75,81.2088,-487.492,0,0
343476.075,81.679,-486.967,0,0
343736.4,82.128,-486.463,0,0
343996.725,82.5251,-486.026,0,0
344257.05,82.7927,-485.698,0,0
344517.375,83.1249,-485.35,0,0
344777.7,83.2843,-485.092,0,0
345038.025,83.4362,-484.81,0,0
345298.35,83.5014,-484.481,0,0
345558.675,83.3959,-484.166,0,0
345819.0,83.3955,-483.829,0,0
346079.325,83.3003,-483.384,0,0
346339.65,83.2003,-482.995,0,0
346599.975,83.1189,-482.548,0,0
346860,83.0891,-482.072,0,0
347121,82.9288,-481.593,0,0
347381,82.859,-481.036,0,0
347641,82.6887,-480.593,0,0
347902,82.5732,-480.068,0,0
348162,82.4341,-479.511,0,0
348422,82.2682,-478.899,0,0
348683,82.1448,-478.32,0,0
348943,82.0414,-477.695,0,0
349203,81.9153,-476.968,0,0
349464,81.8657,-476.222,0,0
349724,81.8499,-475.503,0,0
349984,81.8974,-474.831,0,0
350245,82.0317,-474.045,0,0
350505,82.2025,-473.349,0,0
350765,82.4009,-472.647,0,0
351025,82.6148,-472.01,0,0
351286,82.959,-471.438,0,0
351546,83.2907,-470.894,0,0
351806,83.658,-470.502,0,0
352067,84.0283,-470.188,0,0
352327,84.3711,-469.981,0,0
352587,84.5764,-469.894,0,0
352848,84.7644,-469.809,0,0
353108,84.8016,-469.831,0,0
353368,84.776,-469.774,0,0
353629,84.6472,-469.722,0,0
353889,84.4469,-469.649,0,0
354149,84.1432,-469.515,0,0
354410,83.8405,-469.284,0,0
354670,83.4864,-469.051,0,0
354930,83.1499,-468.822,0,0
355191,82.7822,-468.385,0,0
355451,82.4229,-468.03,0,0
355711,82.0354,-467.632,0,0
355972,81.6967,-467.165,0,0
356232,81.4636,-466.734,0,0
356492,81.0409,-466.177,0,0
356753,80.7864,-465.675,0,0
357013,80.4427,-465.143,0,0
357273,80.0996,-464.604,0,0
357534,79.8053,-464.01,0,0
357794,79.4639,-463.362,0,0
358054,79.1628,-462.72,0,0
358315,78.9285,-462.023,0,0
358575,78.76,-461.281,0,0
358835,78.5961,-460.521,0,0
359096,78.4525,-459.804,0,0
359356,78.4275,-459.089,0,0
359616,78.389,-458.403,0,0
359877,78.3607,-457.712,0,0
360137,78.3914,-457.09,0,0
360397,78.3854,-456.475,0,0
360658,78.418,-455.912,0,0
360918,78.4621,-455.322,0,0
361178,78.469,-454.773,0,0
361438,78.4168,-454.213,0,0
361699,78.3453,-453.65,0,0
361959,78.3068,-453.165,0,0
362219,78.2808,-452.574,0,0
362480,78.2617,-452.021,0,0
362740.1,78.2533,-451.425,0,0
363000.425,78.2225,-450.737,0,0
363260.75,78.2436,-450.063,0,0
363521.075,78.3265,-449.471,0,0
363781.4,78.4778,-448.773,0,0
364041.725,78.7082,-448.137,0,0
364302.05,78.9467,-447.563,0,0
364562.375,79.2303,-447.039,0,0
364822.7,79.5496,-446.61,0,0
365083.025,79.9387,-446.315,0,0
365343.35,80.2737,-446.13,0,0
365603.675,80.5003,-445.944,0,0
365864.0,80.7065,-445.883,0,0
366124.325,80.8081,-445.867,0,0
366384.65,80.7886,-445.906,0,0
366644.975,80.6502,-445.869,0,0
366905.3,80.4321,-445.854,0,0
367165.625,80.1439,-445.779,0,0
367425.95,79.7591,-445.648,0,0
367686.275,79.3619,-445.478,0,0
367946.6,78.8884,-445.209,0,0
368206.925,78.4155,-444.877,0,0
368467.25,77.8458,-444.441,0,0
368727.575,77.3798,-443.877,0,0
368987.9,76.8698,-443.22,0,0
369248.225,76.5027,-442.514,0,0
369508.55,76.1348,-441.637,0,0
369768.875,75.8778,-440.706,0,0
370029.2,75.8298,-439.808,0,0
370289.525,75.8741,-438.92,0,0
370549.85,76.0134,-438.031,0,0
370810.175,76.3065,-437.249,0,0
371070.5,76.6027,-436.565,0,0
371330.825,77.0124,-436.026,0,0
371591.15,77.4509,-435.621,0,0
371851.475,77.7737,-435.358,0,0
372111.8,78.1007,-435.196,0,0
372372.125,78.2747,-435.118,0,0
372632.45,78.3635,-435.062,0,0
372892.775,78.3631,-435.055,0,0
373153.1,78.2273,-435.078,0,0
373413.425,77.987,-434.971,0,0
373673.75,77.5848,-434.84,0,0
373934.075,77.253,-434.634,0,0
374194.4,76.853,-434.314,0,0
374454.725,76.4534,-433.935,0,0
374715.05,76.0973,-433.508,0,0
374975.375,75.6977,-433.026,0,0
375235.7,75.3087,-432.553,0,0
375496.025,74.9375,-431.948,0,0
375756.35,74.5674,-431.3,0,0
376016.675,74.2758,-430.617,0,0
376277.0,74.0085,-429.89,0,0
376537.325,73.8519,-429.091,0,0
376797.65,73.7123,-428.328,0,0
377057.975,73.6677,-427.555,0,0
377318.3,73.6553,-426.78,0,0
377578.625,73.683,-426.058,0,0
377838.95,73.7799,-425.316,0,0
378099.275,73.9125,-424.707,0,0
378359.6,74.0645,-424.022,0,0
378619.925,74.1911,-423.437,0,0
378880,74.4199,-422.867,0,0
379141,74.6122,-422.325,0,0
379401,74.8326,-421.814,0,0
379661,75.0526,-421.411,0,0
379922,75.2747,-420.952,0,0
380182,75.4473,-420.595,0,0
380442,75.6477,-420.291,0,0
380703,75.7653,-420.009,0,0
380963,75.8939,-419.716,0,0
381223,75.949,-419.472,0,0
381483,76.0369,-419.211,0,0
381744,75.9637,-418.905,0,0
382004,76.0245,-418.589,0,0
382264,76.0255,-418.31,0,0
382525,76.0845,-418.039,0,0
382785,76.0082,-417.777,0,0
383045,75.9835,-417.525,0,0
383306,75.8816,-417.321,0,0
383566,75.8066,-417.021,0,0
383826,75.7299,-416.773,0,0
384087,75.6201,-416.556,0,0
384347,75.4095,-416.269,0,0
384607,75.1811,-416.066,0,0
384868,74.9514,-415.726,0,0
385128,74.7018,-415.404,0,0
385388,74.4416,-415.027,0,0
385649,74.1824,-414.588,0,0
385909,73.9494,-414.178,0,0
386169,73.695,-413.732,0,0
386430,73.4199,-413.244,0,0
386690,73.1635,-412.772,0,0
386950,72.9445,-412.222,0,0
387211,72.7094,-411.703,0,0
387471,72.4783,-411.169,0,0
387731,72.2015,-410.574,0,0
387992,71.9706,-410.009,0,0
388252,71.7995,-409.363,0,0
388512,71.5508,-408.721,0,0
388773,71.337,-408.008,0,0
389033,71.1851,-407.262,0,0
389293,71.1089,-406.528,0,0
389554,70.9688,-405.727,0,0
389814,70.901,-404.939,0,0
390074,70.9365,-404.125,0,0
390335,70.9226,-403.263,0,0
390595,71.0289,-402.49,0,0
390855,71.191,-401.672,0,0
391116,71.3478,-400.89,0,0
391376,71.5413,-400.042,0,0
391636,71.7851,-399.28,0,0
391896,72.0667,-398.487,0,0
392157,72.4322,-397.746,0,0
392417,72.8684,-397.044,0,0
392677,73.3005,-396.391,0,0
392938,73.7518,-395.788,0,0
393198,74.2646,-395.258,0,0
393458,74.7856,-394.76,0,0
393719,75.2877,-394.334,0,0
393979,75.7929,-393.941,0,0
394239,76.3259,-393.586,0,0
394500,76.7994,-393.307,0,0
394760.05,77.2998,-393.048,0,0
395020.375,77.7396,-392.85,0,0
395280.7,78.1865,-392.705,0,0
395541.025,78.6232,-392.546,0,0
395801.35,78.9938,-392.446,0,0
396061.675,79.3516,-392.392,0,0
396322.0,79.7197,-392.331,0,0
396582.325,80.0382,-392.32,0,0
396842.65,80.3594,-392.34,0,0
397102.975,80.6307,-392.399,0,0
397363.3,80.8265,-392.477,0,0
397623.625,81.0241,-392.573,0,0
397883.95,81.1517,-392.719,0,0
398144.275,81.2319,-392.807,0,0
398404.6,81.2734,-392.969,0,0
398664.925,81.1829,-393.119,0,0
398925.25,81.0868,-393.213,0,0
399185.575,80.9532,-393.272,0,0
399445.9,80.8359,-393.341,0,0
399706.225,80.6032,-393.365,0,0
399966.55,80.4101,-393.335,0,0
400006.6,80.395,-393.301,0,0