File: Accelerated corrosion test data/2025-10-12_06-00-03/sample_7.csv
Frequency (Hz),Impedance (ohms),Phase (Radians),Temperature (C),Humidity (%)
10000.0,273.265,-12093.6,0,0
10260.325,269.247,-11803.1,0,0
10520.65,257.332,-11503.6,0,0
10780.975,252.168,-11222.2,0,0
11041.3,249.909,-10954.8,0,0
11301.625,246.374,-10698.8,0,0
11561.95,250.352,-10449.8,0,0
11822.275,260.143,-10217.5,0,0
12082.6,269.905,-9992.71,0,0
12342.925,315.757,-9845.84,0,0
12603.25,256.473,-9643.66,0,0
12863.575,266.069,-9467.12,0,0
13123.9,236.236,-9276.66,0,0
13384.225,226.956,-9101.02,0,0
13644.55,225.068,-8924.58,0,0
13904.875,209.167,-8752.36,0,0
14165.2,211.485,-8581.26,0,0
14425.525,203.623,-8442.12,0,0
14685.8,202.955,-8292.8,0,0
14946.175,199.071,-8144.99,0,0
15206.5,194.48,-8015.81,0,0
15466.825,186.268,-7873.48,0,0
15727.15,182.377,-7745.21,0,0
15987.5,179.25,-7614.8,0,0
16247.8,177.226,-7497.24,0,0
16508.125,171.292,-7374.31,0,0
16768.45,171.091,-7256.38,0,0
17028.775,170.338,-7146.12,0,0
17289.1,165.952,-7037.32,0,0
17549.425,165.165,-6928.12,0,0
17809.75,170.991,-6819.81,0,0
18070.075,169.409,-6722.16,0,0
18330.4,180.714,-6616.63,0,0
18590.725,201.369,-6534.95,0,0
18851.05,192.296,-6460.63,0,0
19111.375,180.886,-6377.62,0,0
19371.7,202.254,-6312.29,0,0
19632.025,167.302,-6235.43,0,0
19892.35,158.624,-6135.2,0,0
20152.675,168.447,-6056.7,0,0
20413.0,168.381,-5983.76,0,0
20673.3,170.906,-5903.29,0,0
20933.65,178.972,-5847.18,0,0
21193.975,160.284,-5781.71,0,0
21454.3,152.568,-5707.35,0,0
21714.625,155.65,-5641.7,0,0
21974.9,145.942,-5577.84,0,0
22235.275,140.988,-5509.07,0,0
22495.6,139.458,-5446.39,0,0
22755.925,133.767,-5382.37,0,0
23016.25,130.297,-5318.8,0,0
23276.6,128.524,-5255.91,0,0
23536.9,129.868,-5195.59,0,0
23797.225,127.821,-5140.78,0,0
24057.55,124.482,-5083.35,0,0
24317.875,122.805,-5025.65,0,0
24578.2,123.546,-4971.69,0,0
24838.525,121.986,-4917.49,0,0
25098.85,121.421,-4865.78,0,0
25359.175,120.096,-4814.41,0,0
25619.5,118.642,-4762.14,0,0
25879.8,118.763,-4712.53,0,0
26140.1,119.992,-4660.54,0,0
26400.5,124.658,-4613.35,0,0
26660.8,121.998,-4567.03,0,0
26921.1,123.597,-4516.76,0,0
27181.4,129.464,-4469.1,0,0
27441.8,132.361,-4422.82,0,0
27702.1,144.781,-4376.86,0,0
27962.4,161.177,-4335.01,0,0
28222.7,181.031,-4313.63,0,0
28483.1,179.636,-4293.05,0,0
28743.4,175.418,-4276.7,0,0
29003.7,159.68,-4247.14,0,0
29264,143.846,-4211,0,0
29524.4,136.687,-4170.04,0,0
29784.7,130.333,-4132.67,0,0
30045,128.99,-4089.28,0,0
30305.3,131.323,-4053.01,0,0
30565.7,132.876,-4019.96,0,0
30826,134.05,-3988.34,0,0
31086.3,135.651,-3958.97,0,0
31346.6,132.853,-3930.85,0,0
31607,129.48,-3905.95,0,0
31867.3,121.332,-3874.2,0,0
32127.6,117.677,-3842.57,0,0
32387.9,114.555,-3811.65,0,0
32648.3,110.811,-3781.86,0,0
32908.6,107.99,-3751.23,0,0
33168.9,104.52,-3721.14,0,0
33429.2,101.972,-3691.44,0,0
33689.6,99.352,-3661.45,0,0
33949.9,97.7126,-3632.22,0,0
34210.2,95.4262,-3603.74,0,0
34470.5,94.0057,-3574.8,0,0
34730.9,92.6717,-3546.56,0,0
34991.2,91.495,-3519.11,0,0
35251.5,90.3677,-3492.29,0,0
35511.8,89.6417,-3465.1,0,0
35772.2,89.1198,-3438.78,0,0
36032.5,88.6723,-3412.98,0,0
36292.8,88.1472,-3388.09,0,0
36553.1,86.9866,-3362.98,0,0
36813.5,86.5437,-3337.67,0,0
37073.8,86.3214,-3313.29,0,0
37334.1,86.1985,-3289.52,0,0
37594.4,86.1357,-3265.89,0,0
37854.8,85.3484,-3242.29,0,0
38115.1,85.4565,-3218.33,0,0
38375.4,86.0161,-3195.25,0,0
38635.7,86.672,-3172.19,0,0
38896.1,88.261,-3149.51,0,0
39156.4,90.0385,-3128.42,0,0
39416.7,92.652,-3107.27,0,0
39677,96.2371,-3088.54,0,0
39937.4,97.2777,-3072.06,0,0
40197.7,97.7065,-3056.06,0,0
40458,95.0269,-3040.51,0,0
40718.3,92.2969,-3022.2,0,0
40978.7,89.2459,-3003.8,0,0
41239,86.7143,-2984.38,0,0
41499.3,84.8625,-2964.67,0,0
41759.6,84.0718,-2946.01,0,0
42020,82.4366,-2927.41,0,0
42280.275,80.6376,-2907.77,0,0
42540.6,80.438,-2888.32,0,0
42800.925,80.8255,-2870.27,0,0
43061.25,80.7184,-2852.16,0,0
43321.575,81.0145,-2835.66,0,0
43581.9,79.5793,-2818.14,0,0
43842.225,79.4912,-2799.72,0,0
44102.55,80.4972,-2782.13,0,0
44362.875,82.4002,-2766.67,0,0
44623.2,82.1767,-2751.77,0,0
44883.525,81.4527,-2737.27,0,0
45143.85,80.9708,-2721.97,0,0
45404.175,79.2051,-2706.21,0,0
45664.5,79.9277,-2689.6,0,0
45924.825,81.2201,-2676.57,0,0
46185.15,79.9846,-2663.5,0,0
46445.475,77.5054,-2649.57,0,0
46705.8,74.7498,-2635.01,0,0
46966.125,72.8549,-2619.26,0,0
47226.45,71.7273,-2603.45,0,0
47486.775,71.4294,-2588.18,0,0
47747.1,71.2211,-2573.47,0,0
48007.425,70.6122,-2559.23,0,0
48267.75,70.2887,-2544.98,0,0
48528.075,69.5363,-2531.04,0,0
48788.4,68.8518,-2517.12,0,0
49048.725,68.195,-2503,0,0
49309.05,67.7586,-2489.43,0,0
49569.375,67.445,-2475.76,0,0
49829.7,67.0625,-2462.34,0,0
50090.025,66.6671,-2449.07,0,0
50350.35,66.327,-2435.9,0,0
50610.675,65.8864,-2423.01,0,0
50871.0,65.7489,-2410.19,0,0
51131.325,65.4129,-2397.52,0,0
51391.65,64.8757,-2384.81,0,0
51651.975,64.6992,-2372.37,0,0
51912.3,64.3584,-2359.93,0,0
52172.625,64.1789,-2347.67,0,0
52432.95,63.9681,-2335.69,0,0
52693.275,63.7663,-2323.58,0,0
52953.6,63.8055,-2311.79,0,0
53213.925,63.8529,-2300.28,0,0
53474.25,63.497,-2288.89,0,0
53734.575,63.141,-2277.53,0,0
53994.9,62.845,-2266.2,0,0
54255.225,62.519,-2254.99,0,0
54515.55,62.3344,-2243.85,0,0
54775.875,61.9973,-2232.81,0,0
55036.2,61.8453,-2221.77,0,0
55296.525,61.521,-2210.92,0,0
55556.85,61.2939,-2200.05,0,0
55817.175,61.0474,-2189.53,0,0
56077.5,60.7575,-2178.73,0,0
56337.825,61.0141,-2168.34,0,0
56598.15,60.7266,-2158.21,0,0
56858.475,60.5107,-2147.82,0,0
57118.8,60.3176,-2137.84,0,0
57379.125,60.0723,-2127.57,0,0
57639.45,59.8241,-2117.51,0,0
57899.775,59.6967,-2107.33,0,0
58160.1,59.8012,-2097.36,0,0
58420.4,60.1102,-2087.51,0,0
58680.7,60.2827,-2078.31,0,0
58941.1,60.0176,-2069,0,0
59201.4,59.7887,-2059.44,0,0
59461.7,60.1945,-2049.89,0,0
59722,60.1544,-2041.26,0,0
59982.4,60.0636,-2032.13,0,0
60242.7,60.189,-2023.27,0,0
60503,59.9944,-2014.77,0,0
60763.3,59.4362,-2006.19,0,0
61023.7,59.1774,-1997.42,0,0
61284,58.6769,-1988.83,0,0
61544.3,58.403,-1980.23,0,0
61804.6,57.7628,-1971.68,0,0
62065,57.2821,-1962.84,0,0
62325.3,56.9773,-1954.17,0,0
62585.6,56.6295,-1945.55,0,0
62845.9,56.4247,-1936.94,0,0
63106.3,56.2093,-1928.52,0,0
63366.6,56.2022,-1919.99,0,0
63626.9,56.2818,-1911.94,0,0
63887.2,55.8625,-1903.84,0,0
64147.6,55.7341,-1895.76,0,0
64407.9,55.5075,-1887.55,0,0
64668.2,55.2544,-1879.38,0,0
64928.5,55.3418,-1871.4,0,0
65188.9,55.5063,-1863.49,0,0
65449.2,55.5792,-1855.9,0,0
65709.5,55.4616,-1848.31,0,0
65969.8,55.3655,-1840.87,0,0
66230.2,55.1526,-1833.5,0,0
66490.5,54.9255,-1826.2,0,0
66750.8,54.5605,-1818.91,0,0
67011.1,53.9357,-1811.65,0,0
67271.5,53.636,-1804.03,0,0
67531.8,53.4297,-1796.59,0,0
67792.1,53.102,-1789.24,0,0
68052.4,52.8341,-1781.92,0,0
68312.8,52.6348,-1774.47,0,0
68573.1,52.5156,-1767.26,0,0
68833.4,52.4447,-1760.19,0,0
69093.7,52.1229,-1753.03,0,0
69354.1,52.1982,-1745.84,0,0
69614.4,52.0254,-1738.84,0,0
69874.7,52.0121,-1731.95,0,0
70135,52.0169,-1725.11,0,0
70395.4,51.851,-1718.36,0,0
70655.7,51.8585,-1711.49,0,0
70916,51.9214,-1704.99,0,0
71176.3,51.8046,-1698.55,0,0
71436.7,51.6056,-1692.05,0,0
71697,51.3456,-1685.64,0,0
71957.3,51.0503,-1679.15,0,0
72217.6,50.8288,-1672.66,0,0
72478,50.5817,-1666.18,0,0
72738.3,50.4123,-1659.75,0,0
72998.6,50.2143,-1653.34,0,0
73258.9,50.101,-1646.89,0,0
73519.3,49.9007,-1640.66,0,0
73779.6,49.7773,-1634.38,0,0
74039.9,49.7037,-1628.06,0,0
74300.225,49.4791,-1621.78,0,0
74560.55,49.4268,-1615.68,0,0
74820.875,49.3492,-1609.58,0,0
75081.2,49.3006,-1603.48,0,0
75341.525,49.1593,-1597.5,0,0
75601.85,49.1215,-1591.47,0,0
75862.175,48.9792,-1585.51,0,0
76122.5,48.8494,-1579.62,0,0
76382.825,48.7745,-1573.71,0,0
76643.15,48.7259,-1567.8,0,0
76903.475,48.6456,-1561.92,0,0
77163.8,48.6188,-1556.23,0,0
77424.125,48.59,-1550.48,0,0
77684.45,48.486,-1544.83,0,0
77944.775,48.425,-1539.22,0,0
78205.1,48.3367,-1533.63,0,0
78465.425,48.2612,-1527.97,0,0
78725.75,48.2008,-1522.39,0,0
78986.075,48.184,-1516.86,0,0
79246.4,48.1211,-1511.34,0,0
79506.725,48.0803,-1505.89,0,0
79767.05,48.0584,-1500.43,0,0
80027.375,48.0722,-1495.11,0,0
80287.7,48.0141,-1489.8,0,0
80548.025,47.9469,-1484.57,0,0
80808.35,47.9225,-1479.26,0,0
81068.675,47.7132,-1473.9,0,0
81329.0,47.7297,-1468.63,0,0
81589.325,47.7147,-1463.41,0,0
81849.65,47.6152,-1458.23,0,0
82109.975,47.5825,-1453.12,0,0
82370.3,47.5433,-1447.88,0,0
82630.625,47.5743,-1442.85,0,0
82890.95,47.4596,-1437.83,0,0
83151.275,47.4252,-1432.69,0,0
83411.6,47.3377,-1427.66,0,0
83671.925,47.3799,-1422.59,0,0
83932.25,47.42,-1417.55,0,0
84192.575,47.5454,-1412.68,0,0
84452.9,47.6011,-1407.7,0,0
84713.225,47.622,-1402.92,0,0
84973.55,47.6369,-1398.17,0,0
85233.875,47.6573,-1393.32,0,0
85494.2,47.7075,-1388.57,0,0
85754.525,47.6102,-1383.79,0,0
86014.85,47.6816,-1379.04,0,0
86275.175,47.8004,-1374.29,0,0
86535.5,47.8256,-1369.76,0,0
86795.825,47.6979,-1365.18,0,0
87056.15,47.7469,-1360.41,0,0
87316.475,47.9109,-1355.86,0,0
87576.8,47.9269,-1351.31,0,0
87837.125,47.8652,-1346.85,0,0
88097.45,47.8657,-1342.4,0,0
88357.775,47.8507,-1337.93,0,0
88618.1,47.8053,-1333.52,0,0
88878.425,47.7193,-1329.06,0,0
89138.75,47.7541,-1324.58,0,0
89399.075,47.5796,-1320.08,0,0
89659.4,47.6271,-1315.59,0,0
89919.725,47.5796,-1311.17,0,0
90180,47.7076,-1306.65,0,0
90440.4,47.7643,-1302.17,0,0
90700.7,47.9613,-1297.9,0,0
90961,47.875,-1293.57,0,0
91221.3,47.9556,-1289.2,0,0
91481.7,48.1471,-1284.84,0,0
91742,48.2476,-1280.57,0,0
92002.3,48.3977,-1276.27,0,0
92262.6,48.5994,-1272.17,0,0
92523,48.7429,-1268.07,0,0
92783.3,48.6853,-1263.97,0,0
93043.6,48.8404,-1259.72,0,0
93303.9,49.0052,-1255.51,0,0
93564.3,49.1788,-1251.31,0,0
93824.6,49.5415,-1247.05,0,0
94084.9,50.0482,-1243.17,0,0
94345.2,50.3166,-1239.42,0,0
94605.6,50.3813,-1235.64,0,0
94865.9,50.6456,-1231.75,0,0
95126.2,51.1083,-1228.14,0,0
95386.5,50.9589,-1224.74,0,0
95646.9,50.7414,-1221.16,0,0
95907.2,50.4641,-1217.3,0,0
96167.5,50.3686,-1213.43,0,0
96427.8,50.2717,-1209.52,0,0
96688.2,50.1545,-1205.6,0,0
96948.5,50.1405,-1201.78,0,0
97208.8,50.0561,-1197.91,0,0
97469.1,49.944,-1193.88,0,0
97729.5,50.0852,-1189.8,0,0
97989.8,50.3677,-1185.93,0,0
98250.1,50.5599,-1182.08,0,0
98510.4,50.9367,-1178.46,0,0
98770.8,50.9879,-1175,0,0
99031.1,50.8106,-1171.44,0,0
99291.4,50.6327,-1167.71,0,0
99551.7,50.4547,-1163.78,0,0
99812.1,50.4775,-1159.79,0,0
100072,50.6603,-1155.74,0,0
100333,51.1214,-1151.82,0,0
100593,51.4475,-1148.23,0,0
100853,51.6668,-1144.46,0,0
101114,52.0811,-1140.82,0,0
101374,52.3187,-1137.25,0,0
101634,52.5125,-1133.61,0,0
101895,52.7649,-1129.9,0,0
102155,53.1578,-1126.23,0,0
102415,53.6802,-1122.57,0,0
102676,54.1818,-1119.21,0,0
102936,54.5672,-1115.63,0,0
103196,55.2475,-1112.28,0,0
103457,55.7729,-1109.06,0,0
103717,56.4424,-1105.98,0,0
103977,56.6858,-1103.24,0,0
104238,56.5897,-1100.11,0,0
104498,56.7894,-1096.88,0,0
104758,57.199,-1093.75,0,0
105019,57.329,-1090.87,0,0
105279,57.2418,-1087.9,0,0
105539,57.0431,-1084.71,0,0
105800,57.068,-1081.44,0,0
106060,56.9641,-1078.16,0,0
106320.175,56.9551,-1074.65,0,0
106580.5,57.1373,-1071.2,0,0
106840.825,57.5025,-1067.77,0,0
107101.15,57.9148,-1064.71,0,0
107361.475,58.0325,-1061.64,0,0
107621.8,58.0092,-1058.45,0,0
107882.125,58.2626,-1055.07,0,0
108142.45,58.5249,-1051.95,0,0
108402.775,58.6198,-1048.7,0,0
108663.1,58.8503,-1045.48,0,0
108923.425,59.0841,-1042.35,0,0
109183.75,59.2838,-1039.26,0,0
109444.075,59.3321,-1036.13,0,0
109704.4,59.2899,-1032.72,0,0
109964.725,59.39,-1029.32,0,0
110225.05,59.4699,-1025.74,0,0
110485.375,59.8986,-1021.94,0,0
110745.7,60.7176,-1018.46,0,0
111006.025,61.4745,-1015.1,0,0
111266.35,62.2122,-1012.09,0,0
111526.675,62.6057,-1008.92,0,0
111787.0,63.2506,-1005.51,0,0
112047.325,64.1345,-1002.19,0,0
112307.65,64.9291,-999.061,0,0
112567.975,65.8747,-995.926,0,0
112828.3,66.8806,-992.794,0,0
113088.625,67.9582,-989.875,0,0
113348.95,69.0102,-987.258,0,0
113609.275,69.813,-984.518,0,0
113869.6,70.7668,-981.575,0,0
114129.925,71.8557,-978.804,0,0
114390.25,72.9516,-976.23,0,0
114650.575,74.1211,-973.725,0,0
114910.9,75.0865,-971.095,0,0
115171.225,76.2874,-968.449,0,0
115431.55,77.5852,-965.969,0,0
115691.875,79.0406,-963.477,0,0
115952.2,80.7445,-961.346,0,0
116212.525,82.4499,-959.554,0,0
116472.85,84.1097,-958.165,0,0
116733.175,85.4366,-957.17,0,0
116993.5,86.1385,-956.105,0,0
117253.825,86.9852,-954.768,0,0
117514.15,87.8067,-953.684,0,0
117774.475,88.3441,-952.621,0,0
118034.8,88.7209,-951.29,0,0
118295.125,89.5686,-949.843,0,0
118555.45,90.7012,-949.018,0,0
118815.775,91.4897,-948.728,0,0
119076.1,91.6832,-948.683,0,0
119336.425,91.4591,-948.504,0,0
119596.75,91.1125,-948.354,0,0
119857.075,90.492,-948.296,0,0
120117.4,89.2979,-948.184,0,0
120377.725,87.7435,-948.114,0,0
120638.05,85.4194,-947.45,0,0
120898.375,83.2728,-946.163,0,0
121158.7,80.7922,-944.593,0,0
121419.025,78.4559,-942.106,0,0
121679.35,76.9637,-939.419,0,0
121939.675,75.6556,-937.047,0,0
122200.0,74.2897,-934.693,0,0
122460,72.896,-932.334,0,0
122721,71.4417,-929.835,0,0
122981,70.0835,-927.148,0,0
123241,68.7416,-924.446,0,0
123502,67.4483,-921.502,0,0
123762,66.4696,-918.334,0,0
124022,65.808,-915.389,0,0
124283,65.0765,-912.597,0,0
124543,64.386,-909.729,0,0
124803,63.875,-906.981,0,0
125064,63.2472,-904.533,0,0
125324,62.2716,-902.007,0,0
125584,61.2848,-899.066,0,0
125845,60.6035,-896.114,0,0
126105,59.8662,-893.287,0,0
126365,59.1229,-890.375,0,0
126626,58.4312,-887.28,0,0
126886,57.8768,-884.243,0,0
127146,57.3915,-881.24,0,0
127406,56.9082,-877.899,0,0
127667,56.6541,-874.93,0,0
127927,56.5405,-872.034,0,0
128187,56.2595,-869.278,0,0
128448,55.8873,-866.426,0,0
128708,55.5651,-863.496,0,0
128968,55.2374,-860.593,0,0
129229,54.9904,-857.621,0,0
129489,54.8658,-854.836,0,0
129749,54.4956,-852.007,0,0
130010,54.2025,-849.003,0,0
130270,54.0656,-846.015,0,0
130530,53.9082,-843.192,0,0
130791,53.6702,-840.377,0,0
131051,53.4099,-837.439,0,0
131311,53.1008,-834.481,0,0
131572,52.8996,-831.32,0,0
131832,52.9347,-828.259,0,0
132092,52.8852,-825.286,0,0
132353,52.7402,-822.213,0,0
132613,52.765,-819.079,0,0
132873,52.8893,-815.989,0,0
133134,53.0192,-812.907,0,0
133394,53.1561,-809.814,0,0
133654,53.3539,-806.644,0,0
133915,53.6675,-803.409,0,0
134175,54.2138,-800.145,0,0
134435,55.0284,-797.082,0,0
134696,55.8004,-794.362,0,0
134956,56.3085,-791.785,0,0
135216,56.7527,-788.854,0,0
135477,57.5166,-785.816,0,0
135737,58.6011,-782.925,0,0
135997,60.0434,-780.428,0,0
136258,61.3004,-778.556,0,0
136518,62.2757,-776.864,0,0
136778,63.0669,-775.44,0,0
137039,63.3077,-774.332,0,0
137299,62.9043,-772.923,0,0
137559,62.338,-770.978,0,0
137819,61.9229,-768.704,0,0
138080,61.7161,-766.462,0,0
138340.125,61.3643,-764.261,0,0
138600.45,60.8432,-761.794,0,0
138860.775,60.4583,-759.073,0,0
139121.1,60.2385,-756.207,0,0
139381.425,60.3669,-753.291,0,0
139641.75,60.6166,-750.601,0,0
139902.075,60.8009,-748.08,0,0
140162.4,60.9282,-745.573,0,0
140422.725,60.9734,-743.149,0,0
140683.05,60.8872,-740.53,0,0
140943.375,60.9064,-737.849,0,0
141203.7,60.9757,-735.182,0,0
141464.025,60.9805,-732.468,0,0
141724.35,61.0243,-729.623,0,0
141984.675,61.2656,-726.757,0,0
142245.0,61.5603,-723.953,0,0
142505.325,61.9036,-721.14,0,0
142765.65,62.2928,-718.43,0,0
143025.975,62.6403,-715.681,0,0
143286.3,63.16,-712.911,0,0
143546.625,63.789,-710.315,0,0
143806.95,64.3572,-707.876,0,0
144067.275,64.821,-705.566,0,0
144327.6,65.1002,-703.195,0,0
144587.925,65.3043,-700.763,0,0
144848.25,65.4856,-698.208,0,0
145108.575,65.8233,-695.594,0,0
145368.9,66.2054,-693.109,0,0
145629.225,66.464,-690.73,0,0
145889.55,66.4966,-688.236,0,0
146149.875,66.5923,-685.502,0,0
146410.2,66.9124,-682.675,0,0
146670.525,67.3197,-679.981,0,0
146930.85,67.6838,-677.378,0,0
147191.175,68.024,-674.788,0,0
147451.5,68.3036,-672.177,0,0
147711.825,68.5845,-669.459,0,0
147972.15,69.02,-666.795,0,0
148232.475,69.3732,-664.294,0,0
148492.8,69.609,-661.752,0,0
148753.125,69.7051,-659.201,0,0
149013.45,69.6838,-656.538,0,0
149273.775,69.6039,-653.655,0,0
149534.1,69.6315,-650.619,0,0
149794.425,69.7682,-647.499,0,0
150054.75,69.9281,-644.318,0,0
150315.075,70.1633,-641.096,0,0
150575.4,70.4275,-637.791,0,0
150835.725,70.7959,-634.428,0,0
151096.05,71.222,-630.987,0,0
151356.375,71.7651,-627.511,0,0
151616.7,72.3482,-623.963,0,0
151877.025,73.092,-620.437,0,0
152137.35,73.8586,-616.891,0,0
152397.675,74.7338,-613.257,0,0
152658.0,75.7645,-609.605,0,0
152918.325,76.9061,-606.068,0,0
153178.65,78.0707,-602.543,0,0
153438.975,79.2996,-599.04,0,0
153699.3,80.5218,-595.535,0,0
153959.625,81.8018,-591.919,0,0
154219.95,83.246,-588.226,0,0
154480,84.8698,-584.586,0,0
154741,86.6111,-581.025,0,0
155001,88.4309,-577.542,0,0
155261,90.3046,-574.044,0,0
155522,92.304,-570.599,0,0
155782,94.375,-567.216,0,0
156042,96.5907,-563.858,0,0
156303,98.918,-560.622,0,0
156563,101.339,-557.49,0,0
156823,103.784,-554.481,0,0
157084,106.301,-551.536,0,0
157344,108.967,-548.738,0,0
157604,111.619,-546.174,0,0
157864,114.236,-543.781,0,0
158125,116.792,-541.469,0,0
158385,119.451,-539.334,0,0
158645,122.034,-537.66,0,0
158906,124.123,-536.253,0,0
159166,125.714,-534.752,0,0
159426,127.012,-533.003,0,0
159687,128.167,-531.097,0,0
159947,129.015,-529.041,0,0
160207,129.656,-526.537,0,0
160468,130.193,-523.642,0,0
160728,130.772,-520.299,0,0
160988,131.348,-516.527,0,0
161249,132.213,-512.032,0,0
161509,133.726,-507.117,0,0
161769,135.846,-502.119,0,0
162030,138.497,-497.205,0,0
162290,141.589,-492.369,0,0
162550,144.898,-487.828,0,0
162811,148.246,-483.21,0,0
163071,151.964,-478.435,0,0
163331,156.141,-473.6,0,0
163592,160.97,-468.92,0,0
163852,166.21,-464.744,0,0
164112,171.48,-461.112,0,0
164373,176.639,-457.662,0,0
164633,181.977,-454.157,0,0
164893,187.465,-450.89,0,0
165154,192.673,-447.807,0,0
165414,197.862,-444.351,0,0
165674,203.421,-440.451,0,0
165935,209.682,-436.153,0,0
166195,216.853,-432.038,0,0
166455,224.913,-428.221,0,0
166716,233.663,-425.197,0,0
166976,242.635,-422.712,0,0
167236,252.245,-420.589,0,0
167497,262.346,-419.459,0,0
167757,272.501,-419.074,0,0
168017,282.98,-418.923,0,0
168277,294.136,-419.657,0,0
168538,305.975,-421.709,0,0
168798,317.37,-425.573,0,0
169058,328.326,-430.308,0,0
169319,338.67,-436.304,0,0
169579,347.731,-443.134,0,0
169839,356.022,-449.704,0,0
170100,364.749,-456.338,0,0
170360.075,373.551,-464.315,0,0
170620.4,381.448,-473.853,0,0
170880.725,387.631,-483.989,0,0
171141.05,392.692,-493.713,0,0
171401.375,397.702,-503.288,0,0
171661.7,402.451,-513.557,0,0
171922.025,406.703,-524.419,0,0
172182.35,410.477,-536.459,0,0
172442.675,412.618,-550.119,0,0
172703.0,411.907,-563.916,0,0
172963.325,409.598,-576.902,0,0
173223.65,405.651,-589.345,0,0
173483.975,400.199,-601.078,0,0
173744.3,392.936,-611.633,0,0
174004.625,384.394,-620.24,0,0
174264.95,375.326,-626.917,0,0
174525.275,366.059,-631.957,0,0
174785.6,356.455,-635.074,0,0
175045.925,347.635,-635.513,0,0
175306.25,341.206,-634.957,0,0
175566.575,335.32,-634.931,0,0
175826.9,329.26,-633.567,0,0
176087.225,324.846,-630.692,0,0
176347.55,322.457,-627.676,0,0
176607.875,321.507,-624.969,0,0
176868.2,322.143,-622.837,0,0
177128.525,323.944,-621.973,0,0
177388.85,326.167,-622.523,0,0
177649.175,328.59,-623.91,0,0
177909.5,331.721,-626.457,0,0
178169.825,335.17,-631.017,0,0
178430.15,337.699,-638.119,0,0
178690.475,337.806,-646.923,0,0
178950.8,335.264,-656.017,0,0
179211.125,330.215,-664.27,0,0
179471.45,323.673,-670.493,0,0
179731.775,317.339,-675.281,0,0
179992.1,310.93,-679.352,0,0
180252.425,304.763,-682.428,0,0
180512.75,299.409,-685.571,0,0
180773.075,293.804,-689.46,0,0
181033.4,287.138,-693.929,0,0
181293.725,278.625,-697.987,0,0
181554.05,269.023,-700.062,0,0
181814.375,259.742,-700.722,0,0
182074.7,250.623,-700.625,0,0
182335.025,241.453,-699.638,0,0
182595.35,232.259,-697.551,0,0
182855.675,223.702,-694.116,0,0
183116.0,216.376,-689.842,0,0
183376.325,210.09,-685.729,0,0
183636.65,204.09,-681.834,0,0
183896.975,197.992,-677.715,0,0
184157.3,192.238,-672.831,0,0
184417.625,187.336,-667.599,0,0
184677.95,183.326,-662.405,0,0
184938.275,179.775,-657.85,0,0
185198.6,176.026,-653.541,0,0
185458.925,172.228,-649.115,0,0
185719.25,168.406,-644.463,0,0
185979.575,164.767,-639.363,0,0
186239.9,161.545,-633.941,0,0
186500,158.831,-628.36,0,0
186761,156.655,-622.796,0,0
187021,154.834,-617.389,0,0
187281,153.289,-611.988,0,0
187542,152.176,-606.629,0,0
187802,151.577,-601.447,0,0
188062,151.41,-596.707,0,0
188322,151.478,-592.559,0,0
188583,151.441,-589.188,0,0
188843,150.713,-586.283,0,0
189103,149.269,-583.174,0,0
189364,147.515,-579.493,0,0
189624,146.092,-575.379,0,0
189884,144.728,-571.274,0,0
190145,143.407,-566.926,0,0
190405,142.317,-562.574,0,0
190665,141.053,-558.212,0,0
190926,139.744,-553.265,0,0
191186,138.983,-547.91,0,0
191446,138.916,-542.665,0,0
191707,139.061,-537.855,0,0
191967,139.094,-533.237,0,0
192227,139.043,-528.499,0,0
192488,139.117,-523.604,0,0
192748,139.32,-518.544,0,0
193008,139.799,-513.466,0,0
193269,140.559,-508.35,0,0
193529,141.607,-503.374,0,0
193789,142.767,-498.584,0,0
194050,143.871,-493.872,0,0
194310,145.028,-488.992,0,0
194570,146.412,-483.974,0,0
194831,148.17,-478.908,0,0
195091,150.345,-474.058,0,0
195351,152.682,-469.519,0,0
195612,155.03,-465.182,0,0
195872,157.442,-461.04,0,0
196132,159.917,-457.092,0,0
196393,162.144,-453.159,0,0
196653,164.595,-449.176,0,0
196913,167.198,-445.311,0,0
197174,169.976,-441.593,0,0
197434,172.676,-438.097,0,0
197694,175.254,-434.883,0,0
197955,177.553,-431.696,0,0
198215,179.522,-428.183,0,0
198475,181.818,-424.404,0,0
198735,184.264,-420.627,0,0
198996,186.816,-416.815,0,0
199256,189.279,-413.104,0,0
199516,191.817,-409.132,0,0
199777,194.595,-404.901,0,0
200037,197.625,-400.642,0,0
200297,200.854,-396.368,0,0
200558,204.442,-392.169,0,0
200818,208.124,-388.181,0,0
201078,211.8,-384.244,0,0
201339,215.561,-379.953,0,0
201599,219.762,-375.528,0,0
201859,224.424,-371.276,0,0
202120,229.31,-367.084,0,0
202380.025,234.587,-363.009,0,0
202640.35,240.157,-359.316,0,0
202900.675,245.866,-355.883,0,0
203161.0,251.658,-352.58,0,0
203421.325,257.688,-349.276,0,0
203681.65,263.893,-346.198,0,0
203941.975,270.485,-343.235,0,0
204202.3,277.305,-340.614,0,0
204462.625,284.344,-338.283,0,0
204722.95,291.595,-336.273,0,0
204983.275,298.888,-334.414,0,0
205243.6,306.692,-332.629,0,0
205503.925,315.137,-331.438,0,0
205764.25,323.779,-331.334,0,0
206024.575,332.228,-332.074,0,0
206284.9,340.18,-333.476,0,0
206545.225,347.662,-335.375,0,0
206805.55,354.768,-337.652,0,0
207065.875,361.095,-340.323,0,0
207326.2,366.483,-342.716,0,0
207586.525,371.375,-344.619,0,0
207846.85,376.158,-345.664,0,0
208107.175,381.323,-346.045,0,0
208367.5,387.016,-346.108,0,0
208627.825,393.271,-345.861,0,0
208888.15,400.667,-345.271,0,0
209148.475,409.371,-345.419,0,0
209408.8,418.844,-346.651,0,0
209669.125,428.451,-349.023,0,0
209929.45,438.476,-351.896,0,0
210189.775,449.084,-355.851,0,0
210450.1,460.258,-361.707,0,0
210710.425,470.538,-370.012,0,0
210970.75,478.706,-379.551,0,0
211231.075,485.338,-388.988,0,0
211491.4,491.241,-398.426,0,0
211751.725,496.366,-408.172,0,0
212012.05,500.542,-418.107,0,0
212272.375,503.646,-427.915,0,0
212532.7,506.231,-437.212,0,0
212793.025,508.744,-446.695,0,0
213053.35,510.385,-456.778,0,0
213313.675,510.374,-466.661,0,0
213574.0,509.655,-475.231,0,0
213834.325,509.228,-483.112,0,0
214094.65,508.912,-491.15,0,0
214354.975,507.988,-499.525,0,0
214615.3,506.163,-507.38,0,0
214875.625,503.975,-514.594,0,0
215135.95,501.603,-521.334,0,0
215396.275,499.109,-527.475,0,0
215656.6,496.831,-533.058,0,0
215916.925,494.916,-538.421,0,0
216177.25,493.559,-543.826,0,0
216437.575,492.463,-550.094,0,0
216697.9,490.814,-557.263,0,0
216958.225,487.899,-564.937,0,0
217218.55,483.407,-572.217,0,0
217478.875,478.116,-578.181,0,0
217739.2,472.93,-583.084,0,0
217999.525,468.063,-587.597,0,0
218259.85,463.135,-592.144,0,0
218520,457.756,-596.486,0,0
218780,451.915,-600.438,0,0
219041,445.605,-603.901,0,0
219301,438.786,-606.478,0,0
219561,431.893,-608.022,0,0
219822,425.281,-608.618,0,0
220082,418.98,-608.568,0,0
220342,412.996,-607.764,0,0
220603,407.551,-606.35,0,0
220863,402.675,-604.485,0,0
221123,398.265,-602.186,0,0
221384,394.458,-599.548,0,0
221644,391.306,-596.648,0,0
221904,388.867,-593.672,0,0
222165,386.983,-590.68,0,0
222425,385.785,-587.811,0,0
222685,384.996,-585.253,0,0
222946,384.467,-582.966,0,0
223206,384.106,-580.686,0,0
223466,384.188,-578.541,0,0
223727,384.502,-576.581,0,0
223987,385.047,-574.917,0,0
224247,385.654,-573.45,0,0
224508,386.134,-572.167,0,0
224768,386.574,-570.615,0,0
225028,387.322,-568.594,0,0
225289,388.765,-566.308,0,0
225549,391.056,-564.237,0,0
225809,394.087,-562.644,0,0
226070,397.599,-561.694,0,0
226330,401.453,-561.482,0,0
226590,405.246,-562.086,0,0
226851,408.848,-563.254,0,0
227111,412.206,-564.581,0,0
227371,415.668,-566.075,0,0
227632,419.54,-567.916,0,0
227892,423.541,-570.442,0,0
228152,427.383,-573.836,0,0
228413,430.883,-577.748,0,0
228673,434.053,-582.199,0,0
228933,436.87,-587.102,0,0
229193,439.027,-592.48,0,0
229454,440.618,-597.935,0,0
229714,441.878,-603.224,0,0
229974,443.293,-608.623,0,0
230235,444.607,-614.685,0,0
230495,445.36,-621.441,0,0
230755,445.201,-628.614,0,0
231016,444.053,-635.836,0,0
231276,442.049,-642.716,0,0
231536,439.533,-649.044,0,0
231797,436.995,-654.922,0,0
232057,434.555,-660.76,0,0
232317,432.051,-666.992,0,0
232578,428.913,-673.755,0,0
232838,424.834,-680.437,0,0
233098,420.097,-686.792,0,0
233359,414.998,-693.072,0,0
233619,409.014,-699.475,0,0
233879,401.788,-705.379,0,0
234140,393.688,-710.241,0,0
234400,385.191,-714.047,0,0
234660.3,376.439,-716.856,0,0
234920.625,367.482,-718.758,0,0
235180.95,358.504,-719.43,0,0
235441.275,349.961,-718.975,0,0
235701.6,341.994,-717.611,0,0
235961.925,334.88,-715.465,0,0
236222.25,328.784,-713.18,0,0
236482.575,323.497,-711.005,0,0
236742.9,318.604,-709.31,0,0
237003.225,313.659,-708.068,0,0
237263.55,308.265,-706.774,0,0
237523.875,302.698,-705.072,0,0
237784.2,297.141,-703.028,0,0
238044.525,291.477,-700.509,0,0
238304.85,285.911,-697.366,0,0
238565.175,280.559,-693.375,0,0
238825.5,275.908,-688.587,0,0
239085.825,272.454,-683.336,0,0
239346.15,269.99,-677.915,0,0
239606.475,268.845,-672.885,0,0
239866.8,268.543,-668.646,0,0
240127.125,268.703,-665.48,0,0
240387.45,268.957,-663.153,0,0
240647.775,268.896,-661.718,0,0
240908.1,268.289,-660.841,0,0
241168.425,267.091,-660.128,0,0
241428.75,265.302,-659.487,0,0
241689.075,263.153,-658.559,0,0
241949.4,260.702,-657.421,0,0
242209.725,257.862,-655.998,0,0
242470.05,254.832,-653.934,0,0
242730.375,251.931,-651.298,0,0
242990.7,249.479,-648.206,0,0
243251.025,247.48,-644.946,0,0
243511.35,245.559,-641.688,0,0
243771.675,243.715,-638.041,0,0
244032.0,242.349,-633.756,0,0
244292.325,241.89,-629.32,0,0
244552.65,242.364,-625.063,0,0
244812.975,243.546,-621.379,0,0
245073.3,245.142,-618.429,0,0
245333.625,246.625,-616.215,0,0
245593.95,248.102,-614.363,0,0
245854.275,249.548,-612.989,0,0
246114.6,250.673,-612.012,0,0
246374.925,251.412,-611.25,0,0
246635.25,251.894,-610.486,0,0
246895.575,252.205,-609.704,0,0
247155.9,252.388,-608.83,0,0
247416.225,252.471,-607.894,0,0
247676.55,252.573,-606.813,0,0
247936.875,252.698,-605.694,0,0
248197.2,252.884,-604.531,0,0
248457.525,253.171,-603.409,0,0
248717.85,253.523,-602.198,0,0
248978.175,254.012,-601.014,0,0
249238.5,254.736,-599.898,0,0
249498.825,255.456,-599.018,0,0
249759.15,256.2,-598.216,0,0
250019.475,256.993,-597.562,0,0
250279.8,257.802,-597.001,0,0
250540,258.483,-596.526,0,0
250800,259.266,-596.082,0,0
251061,260.109,-595.759,0,0
251321,260.969,-595.525,0,0
251581,261.817,-595.382,0,0
251842,262.808,-595.314,0,0
252102,263.92,-595.556,0,0
252362,264.933,-596.16,0,0
252623,265.68,-596.981,0,0
252883,266.281,-597.956,0,0
253143,266.715,-598.973,0,0
253404,267.029,-600.137,0,0
253664,267.119,-601.495,0,0
253924,266.976,-602.998,0,0
254185,266.374,-604.575,0,0
254445,265.416,-606.033,0,0
254705,264.192,-607.27,0,0
254966,262.864,-608.253,0,0
255226,261.428,-609.083,0,0
255486,259.819,-609.79,0,0
255747,258.086,-610.375,0,0
256007,256.3,-610.733,0,0
256267,254.503,-610.89,0,0
256528,252.61,-610.927,0,0
256788,250.681,-610.82,0,0
257048,248.667,-610.497,0,0
257309,246.607,-609.906,0,0
257569,244.634,-609.041,0,0
257829,242.777,-607.924,0,0
258090,241.095,-606.609,0,0
258350,239.598,-605.127,0,0
258610,238.38,-603.522,0,0
258871,237.407,-601.97,0,0
259131,236.579,-600.527,0,0
259391,235.787,-599.203,0,0
259651,234.896,-597.871,0,0
259912,233.901,-596.442,0,0
260172,232.89,-594.773,0,0
260432,232.044,-592.717,0,0
260693,231.465,-590.563,0,0
260953,231.211,-588.329,0,0
261213,231.171,-586.031,0,0
261474,231.423,-583.693,0,0
261734,231.964,-581.336,0,0
261994,232.851,-579.005,0,0
262255,234.153,-576.752,0,0
262515,235.874,-574.726,0,0
262775,237.956,-573.039,0,0
263036,240.288,-571.767,0,0
263296,242.765,-571.049,0,0
263556,245.233,-570.833,0,0
263817,247.543,-571.033,0,0
264077,249.666,-571.576,0,0
264337,251.523,-572.448,0,0
264598,253.049,-573.479,0,0
264858,254.314,-574.678,0,0
265118,255.304,-575.985,0,0
265379,255.856,-577.133,0,0
265639,256.243,-577.992,0,0
265899,256.733,-578.666,0,0
266160,257.313,-579.263,0,0
266420,258.083,-579.842,0,0
266680.25,259.087,-580.579,0,0
266940.575,260.073,-581.646,0,0
267200.9,260.931,-582.914,0,0
267461.225,261.651,-584.38,0,0
267721.55,262.227,-585.937,0,0
267981.875,262.562,-587.619,0,0
268242.2,262.625,-589.322,0,0
268502.525,262.482,-590.91,0,0
268762.85,262.148,-592.367,0,0
269023.175,261.714,-593.641,0,0
269283.5,261.298,-594.596,0,0
269543.825,261.075,-595.379,0,0
269804.15,261.044,-596.037,0,0
270064.475,261.372,-596.729,0,0
270324.8,261.985,-597.665,0,0
270585.125,262.76,-598.783,0,0
270845.45,263.629,-600.207,0,0
271105.775,264.593,-601.827,0,0
271366.1,265.687,-603.716,0,0
271626.425,267.031,-606.02,0,0
271886.75,268.516,-608.979,0,0
272147.075,269.954,-612.731,0,0
272407.4,270.987,-617.428,0,0
272667.725,271.177,-622.958,0,0
272928.05,270.317,-628.859,0,0
273188.375,268.515,-634.894,0,0
273448.7,265.724,-640.974,0,0
273709.025,261.953,-646.972,0,0
273969.35,257.098,-652.559,0,0
274229.675,251.348,-657.487,0,0
274490.0,244.991,-661.64,0,0
274750.325,238.154,-665.113,0,0
275010.65,230.906,-667.915,0,0
275270.975,223.175,-669.825,0,0
275531.3,215.141,-670.785,0,0
275791.625,207.21,-670.616,0,0
276051.95,199.533,-669.593,0,0
276312.275,192.166,-667.925,0,0
276572.6,185.116,-665.571,0,0
276832.925,178.438,-662.672,0,0
277093.25,172.146,-659.222,0,0
277353.575,166.329,-655.214,0,0
277613.9,161.05,-650.734,0,0
277874.225,156.444,-645.938,0,0
278134.55,152.508,-640.925,0,0
278394.875,149.199,-635.871,0,0
278655.2,146.478,-630.893,0,0
278915.525,144.3,-626.053,0,0
279175.85,142.453,-621.425,0,0
279436.175,140.884,-616.94,0,0
279696.5,139.601,-612.589,0,0
279956.825,138.569,-608.242,0,0
280217.15,137.921,-604.1,0,0
280477.475,137.571,-600.141,0,0
280737.8,137.534,-596.463,0,0
280998.125,137.63,-593.217,0,0
281258.45,137.746,-590.355,0,0
281518.775,137.746,-587.794,0,0
281779.1,137.518,-585.417,0,0
282039.425,137.088,-583.1,0,0
282299.75,136.472,-580.737,0,0
282560,135.724,-578.25,0,0
282820,134.897,-575.546,0,0
283081,134.129,-572.603,0,0
283341,133.57,-569.466,0,0
283601,133.238,-566.222,0,0
283862,133.148,-562.92,0,0
284122,133.31,-559.619,0,0
284382,133.746,-556.388,0,0
284643,134.385,-553.321,0,0
284903,135.219,-550.343,0,0
285163,136.172,-547.568,0,0
285424,137.24,-544.94,0,0
285684,138.429,-542.476,0,0
285944,139.656,-540.159,0,0
286205,140.962,-538.051,0,0
286465,142.309,-536.13,0,0
286725,143.626,-534.448,0,0
286986,144.844,-532.942,0,0
287246,145.936,-531.559,0,0
287506,146.852,-530.271,0,0
287767,147.632,-528.984,0,0
288027,148.306,-527.665,0,0
288287,148.87,-526.253,0,0
288548,149.4,-524.738,0,0
288808,149.954,-523.088,0,0
289068,150.586,-521.358,0,0
289329,151.314,-519.562,0,0
289589,152.133,-517.787,0,0
289849,153.029,-516.013,0,0
290109,153.988,-514.214,0,0
290370,155.063,-512.311,0,0
290630,156.325,-510.423,0,0
290890,157.8,-508.65,0,0
291151,159.379,-507.029,0,0
291411,161.042,-505.598,0,0
291671,162.685,-504.329,0,0
291932,164.271,-503.175,0,0
292192,165.784,-502.102,0,0
292452,167.281,-500.966,0,0
292713,168.805,-499.844,0,0
292973,170.396,-498.766,0,0
293233,172.012,-497.764,0,0
293494,173.618,-496.776,0,0
293754,175.245,-495.818,0,0
294014,176.909,-494.906,0,0
294275,178.54,-494.019,0,0
294535,180.23,-493.076,0,0
294795,182.001,-492.109,0,0
295056,183.939,-491.158,0,0
295316,185.978,-490.277,0,0
295576,188.104,-489.497,0,0
295837,190.289,-488.831,0,0
296097,192.557,-488.189,0,0
296357,194.909,-487.64,0,0
296618,197.382,-487.161,0,0
296878,199.977,-486.797,0,0
297138,202.729,-486.591,0,0
297399,205.577,-486.603,0,0
297659,208.482,-486.867,0,0
297919,211.376,-487.382,0,0
298180,214.183,-488.12,0,0
298440,216.869,-488.979,0,0
298700.2,219.511,-489.94,0,0
298960.525,222.122,-490.853,0,0
299220.85,224.826,-491.997,0,0
299481.175,227.55,-493.213,0,0
299741.5,230.317,-494.57,0,0
300001.825,233.141,-496.101,0,0
300262.15,235.932,-497.877,0,0
300522.475,238.859,-499.763,0,0
300782.8,241.706,-501.912,0,0
301043.125,244.729,-504.347,0,0
301303.45,247.716,-507.001,0,0
301563.775,250.789,-509.957,0,0
301824.1,253.874,-513.468,0,0
302084.425,256.859,-517.618,0,0
302344.75,259.632,-522.363,0,0
302605.075,261.886,-527.777,0,0
302865.4,263.414,-533.64,0,0
303125.725,264.176,-539.828,0,0
303386.05,264.056,-546.124,0,0
303646.375,263.137,-552.309,0,0
303906.7,261.487,-558.18,0,0
304167.025,259.32,-563.644,0,0
304427.35,256.725,-568.722,0,0
304687.675,253.8,-573.428,0,0
304948.0,250.635,-577.759,0,0
305208.325,247.299,-581.773,0,0
305468.65,243.793,-585.502,0,0
305728.975,240.086,-589.008,0,0
305989.3,236.134,-592.225,0,0
306249.625,231.954,-595.117,0,0
306509.95,227.607,-597.595,0,0
306770.275,223.201,-599.639,0,0
307030.6,218.801,-601.329,0,0
307290.925,214.419,-602.681,0,0
307551.25,210.112,-603.749,0,0
307811.575,205.869,-604.552,0,0
308071.9,201.676,-605.132,0,0
308332.225,197.537,-605.461,0,0
308592.55,193.457,-605.543,0,0
308852.875,189.474,-605.372,0,0
309113.2,185.588,-604.972,0,0
309373.525,181.855,-604.347,0,0
309633.85,178.29,-603.547,0,0
309894.175,174.937,-602.561,0,0
310154.5,171.75,-601.443,0,0
310414.825,168.757,-600.247,0,0
310675.15,165.958,-599,0,0
310935.475,163.343,-597.721,0,0
311195.8,160.873,-596.461,0,0
311456.125,158.493,-595.219,0,0
311716.45,156.219,-594.004,0,0
311976.775,153.976,-592.771,0,0
312237.1,151.791,-591.511,0,0
312497.425,149.648,-590.225,0,0
312757.75,147.563,-588.925,0,0
313018.075,145.543,-587.565,0,0
313278.4,143.6,-586.195,0,0
313538.725,141.682,-584.786,0,0
313799.05,139.796,-583.344,0,0
314059.375,137.972,-581.841,0,0
314319.7,136.198,-580.259,0,0
314580,134.527,-578.599,0,0
314840,132.964,-576.852,0,0
315101,131.569,-575.07,0,0
315361,130.303,-573.302,0,0
315621,129.156,-571.543,0,0
315882,128.167,-569.823,0,0
316142,127.286,-568.151,0,0
316402,126.487,-566.569,0,0
316663,125.77,-565.078,0,0
316923,125.086,-563.677,0,0
317183,124.398,-562.339,0,0
317444,123.709,-561.04,0,0
317704,123.022,-559.761,0,0
317964,122.352,-558.497,0,0
318225,121.732,-557.228,0,0
318485,121.118,-555.999,0,0
318745,120.526,-554.759,0,0
319006,119.984,-553.507,0,0
319266,119.51,-552.292,0,0
319526,119.073,-551.098,0,0
319787,118.729,-549.942,0,0
320047,118.422,-548.888,0,0
320307,118.092,-547.866,0,0
320567,117.815,-546.929,0,0
320828,117.526,-546.022,0,0
321088,117.234,-545.192,0,0
321348,116.926,-544.405,0,0
321609,116.6,-543.692,0,0
321869,116.265,-542.959,0,0
322129,115.891,-542.293,0,0
322390,115.51,-541.654,0,0
322650,115.08,-541.048,0,0
322910,114.631,-540.47,0,0
323171,114.108,-539.899,0,0
323431,113.555,-539.31,0,0
323691,112.947,-538.698,0,0
323952,112.334,-538.046,0,0
324212,111.725,-537.345,0,0
324472,111.103,-536.619,0,0
324733,110.523,-535.846,0,0
324993,109.983,-535.07,0,0
325253,109.492,-534.269,0,0
325514,109.059,-533.501,0,0
325774,108.675,-532.776,0,0
326034,108.288,-532.124,0,0
326295,107.891,-531.506,0,0
326555,107.473,-530.926,0,0
326815,107.042,-530.363,0,0
327076,106.581,-529.839,0,0
327336,106.075,-529.337,0,0
327596,105.562,-528.823,0,0
327857,105.017,-528.311,0,0
328117,104.437,-527.801,0,0
328377,103.848,-527.294,0,0
328638,103.223,-526.768,0,0
328898,102.608,-526.212,0,0
329158,101.959,-525.666,0,0
329419,101.349,-525.098,0,0
329679,100.735,-524.536,0,0
329939,100.096,-523.969,0,0
330200,99.4746,-523.437,0,0
330460,98.8088,-522.875,0,0
330720.15,98.1711,-522.339,0,0
330980.475,97.5121,-521.788,0,0
331240.8,96.8112,-521.261,0,0
331501.125,96.0934,-520.736,0,0
331761.45,95.4214,-520.241,0,0
332021.775,94.5517,-519.72,0,0
332282.1,93.7732,-519.179,0,0
332542.425,92.9473,-518.593,0,0
332802.75,92.0132,-518.039,0,0
333063.075,91.108,-517.473,0,0
333323.4,90.1702,-516.794,0,0
333583.725,89.1902,-516.084,0,0
333844.05,88.1218,-515.282,0,0
334104.375,87.1779,-514.459,0,0
334364.7,86.1441,-513.588,0,0
334625.025,85.1921,-512.631,0,0
334885.35,84.3438,-511.763,0,0
335145.675,83.3871,-510.8,0,0
335406.0,82.506,-509.757,0,0
335666.325,81.6569,-508.708,0,0
335926.65,80.6703,-507.712,0,0
336186.975,79.7932,-506.523,0,0
336447.3,78.9311,-505.4,0,0
336707.625,78.121,-504.16,0,0
336967.95,77.3603,-502.974,0,0
337228.275,76.5573,-501.686,0,0
337488.6,75.8798,-500.411,0,0
337748.925,75.2142,-499.124,0,0
338009.25,74.6242,-497.846,0,0
338269.575,74.0059,-496.545,0,0
338529.9,73.4737,-495.245,0,0
338790.225,73.0409,-493.915,0,0
339050.55,72.4881,-492.61,0,0
339310.875,72.0044,-491.301,0,0
339571.2,71.5482,-490.01,0,0
339831.525,71.1515,-488.706,0,0
340091.85,70.7698,-487.363,0,0
340352.175,70.4336,-486.072,0,0
340612.5,70.1218,-484.743,0,0
340872.825,69.7932,-483.351,0,0
341133.15,69.5372,-482.092,0,0
341393.475,69.2652,-480.76,0,0
341653.8,69.0203,-479.414,0,0
341914.125,68.8017,-478.059,0,0
342174.45,68.6354,-476.788,0,0
342434.775,68.5727,-475.477,0,0
342695.1,68.4453,-474.122,0,0
342955.425,68.3998,-472.845,0,0
343215.75,68.4134,-471.529,0,0
343476.075,68.4113,-470.295,0,0
343736.4,68.4391,-469.075,0,0
343996.725,68.5977,-467.822,0,0
344257.05,68.642,-466.635,0,0
344517.375,68.7958,-465.541,0,0
344777.7,68.9573,-464.442,0,0
345038.025,69.0785,-463.362,0,0
345298.35,69.2706,-462.352,0,0
345558.675,69.4815,-461.353,0,0
345819.0,69.6265,-460.395,0,0
346079.325,69.7859,-459.484,0,0
346339.65,69.9009,-458.59,0,0
346599.975,70.0526,-457.74,0,0
346860,70.1777,-456.941,0,0
347121,70.2391,-456.173,0,0
347381,70.2941,-455.332,0,0
347641,70.3061,-454.59,0,0
347902,70.3237,-453.777,0,0
348162,70.2681,-453.015,0,0
348422,70.1843,-452.189,0,0
348683,70.0645,-451.348,0,0
348943,69.9366,-450.458,0,0
349203,69.7654,-449.55,0,0
349464,69.669,-448.623,0,0
349724,69.6468,-447.687,0,0
349984,69.5456,-446.679,0,0
350245,69.519,-445.677,0,0
350505,69.4662,-444.753,0,0
350765,69.3173,-443.687,0,0
351025,69.3016,-442.629,0,0
351286,69.2884,-441.45,0,0
351546,69.3067,-440.311,0,0
351806,69.4755,-439.202,0,0
352067,69.6423,-438.036,0,0
352327,69.9252,-436.932,0,0
352587,70.1809,-435.87,0,0
352848,70.4693,-434.849,0,0
353108,70.8117,-433.816,0,0
353368,71.1801,-432.855,0,0
353629,71.5808,-431.954,0,0
353889,71.9974,-431.059,0,0
354149,72.4015,-430.218,0,0
354410,72.8142,-429.429,0,0
354670,73.2061,-428.65,0,0
354930,73.6173,-427.916,0,0
355191,74.0315,-427.218,0,0
355451,74.5094,-426.601,0,0
355711,74.9138,-426.076,0,0
355972,75.3443,-425.62,0,0
356232,75.5735,-425.191,0,0
356492,75.7776,-424.802,0,0
356753,75.8574,-424.409,0,0
357013,75.9177,-423.968,0,0
357273,75.8961,-423.52,0,0
357534,75.8547,-423.017,0,0
357794,75.7184,-422.423,0,0
358054,75.6068,-421.804,0,0
358315,75.4782,-421.128,0,0
358575,75.3396,-420.364,0,0
358835,75.192,-419.572,0,0
359096,75.1005,-418.659,0,0
359356,75.0333,-417.763,0,0
359616,74.9807,-416.795,0,0
359877,75.0347,-415.771,0,0
360137,75.1164,-414.759,0,0
360397,75.2761,-413.79,0,0
360658,75.4531,-412.738,0,0
360918,75.6593,-411.714,0,0
361178,76.0082,-410.693,0,0
361438,76.3265,-409.684,0,0
361699,76.7494,-408.755,0,0
361959,77.1437,-407.748,0,0
362219,77.6128,-406.92,0,0
362480,78.0614,-406.047,0,0
362740.1,78.589,-405.266,0,0
363000.425,79.0697,-404.434,0,0
363260.75,79.4876,-403.667,0,0
363521.075,79.9915,-402.944,0,0
363781.4,80.4855,-402.177,0,0
364041.725,80.9627,-401.474,0,0
364302.05,81.5245,-400.76,0,0
364562.375,82.0777,-400.054,0,0
364822.7,82.6835,-399.444,0,0
365083.025,83.3021,-398.781,0,0
365343.35,83.9408,-398.255,0,0
365603.675,84.5182,-397.77,0,0
365864.0,85.1223,-397.333,0,0
366124.325,85.6721,-396.93,0,0
366384.65,86.1906,-396.602,0,0
366644.975,86.6397,-396.238,0,0
366905.3,87.1373,-395.881,0,0
367165.625,87.5441,-395.499,0,0
367425.95,87.9946,-395.183,0,0
367686.275,88.4266,-394.802,0,0
367946.6,88.836,-394.498,0,0
368206.925,89.2498,-394.15,0,0
368467.25,89.6899,-393.863,0,0
368727.575,90.0907,-393.606,0,0
368987.9,90.4995,-393.374,0,0
369248.225,90.8815,-393.196,0,0
369508.55,91.2456,-393.025,0,0
369768.875,91.5864,-392.978,0,0
370029.2,91.8419,-392.929,0,0
370289.525,91.9949,-392.976,0,0
370549.85,91.9724,-392.948,0,0
370810.175,91.9072,-392.908,0,0
371070.5,91.7391,-392.769,0,0
371330.825,91.5296,-392.55,0,0
371591.15,91.2622,-392.303,0,0
371851.475,90.9664,-391.853,0,0
372111.8,90.669,-391.32,0,0
372372.125,90.4076,-390.722,0,0
372632.45,90.2737,-390.01,0,0
372892.775,90.1627,-389.285,0,0
373153.1,90.1131,-388.523,0,0
373413.425,90.1309,-387.71,0,0
373673.75,90.2087,-386.916,0,0
373934.075,90.2959,-386.142,0,0
374194.4,90.4633,-385.361,0,0
374454.725,90.6167,-384.651,0,0
374715.05,90.8142,-383.87,0,0
374975.375,91.106,-383.108,0,0
375235.7,91.3479,-382.35,0,0
375496.025,91.6626,-381.631,0,0
375756.35,92.0065,-380.943,0,0
376016.675,92.3185,-380.289,0,0
376277.0,92.6526,-379.67,0,0
376537.325,92.951,-379.054,0,0
376797.65,93.2385,-378.443,0,0
377057.975,93.4763,-377.82,0,0
377318.3,93.722,-377.137,0,0
377578.625,93.9991,-376.444,0,0
377838.95,94.3272,-375.695,0,0
378099.275,94.6438,-374.962,0,0
378359.6,95.0281,-374.228,0,0
378619.925,95.4862,-373.461,0,0
378880,95.9311,-372.726,0,0
379141,96.4331,-372.085,0,0
379401,96.9363,-371.416,0,0
379661,97.4928,-370.77,0,0
379922,98.0025,-370.198,0,0
380182,98.5592,-369.63,0,0
380442,99.0945,-369.075,0,0
380703,99.6449,-368.537,0,0
380963,100.136,-368.023,0,0
381223,100.61,-367.518,0,0
381483,101.09,-367,0,0
381744,101.621,-366.501,0,0
382004,102.088,-365.9,0,0
382264,102.623,-365.31,0,0
382525,103.148,-364.77,0,0
382785,103.785,-364.195,0,0
383045,104.402,-363.666,0,0
383306,105.023,-363.191,0,0
383566,105.673,-362.727,0,0
383826,106.279,-362.277,0,0
384087,106.921,-361.846,0,0
384347,107.572,-361.439,0,0
384607,108.21,-361.071,0,0
384868,108.875,-360.691,0,0
385128,109.468,-360.367,0,0
385388,110.061,-360.089,0,0
385649,110.569,-359.766,0,0
385909,111.139,-359.391,0,0
386169,111.661,-358.996,0,0
386430,112.208,-358.602,0,0
386690,112.798,-358.201,0,0
386950,113.38,-357.836,0,0
387211,113.962,-357.453,0,0
387471,114.53,-357.085,0,0
387731,115.057,-356.675,0,0
387992,115.637,-356.254,0,0
388252,116.21,-355.764,0,0
388512,116.859,-355.215,0,0
388773,117.55,-354.691,0,0
389033,118.292,-354.162,0,0
389293,119.178,-353.634,0,0
389554,120.12,-353.189,0,0
389814,121.085,-352.761,0,0
390074,122.092,-352.498,0,0
390335,123.104,-352.334,0,0
390595,124.088,-352.156,0,0
390855,125.02,-352.037,0,0
391116,125.917,-351.985,0,0
391376,126.775,-351.918,0,0
391636,127.611,-351.87,0,0
391896,128.414,-351.789,0,0
392157,129.209,-351.685,0,0
392417,130.034,-351.589,0,0
392677,130.866,-351.468,0,0
392938,131.73,-351.413,0,0
393198,132.601,-351.333,0,0
393458,133.451,-351.263,0,0
393719,134.322,-351.149,0,0
393979,135.189,-351.046,0,0
394239,136.058,-350.96,0,0
394500,137.057,-350.861,0,0
394760.05,138.06,-350.75,0,0
395020.375,139.154,-350.66,0,0
395280.7,140.29,-350.569,0,0
395541.025,141.458,-350.533,0,0
395801.35,142.683,-350.565,0,0
396061.675,144.008,-350.614,0,0
396322.0,145.461,-350.752,0,0
396582.325,146.933,-350.973,0,0
396842.65,148.429,-351.353,0,0
397102.975,149.984,-351.865,0,0
397363.3,151.56,-352.493,0,0
397623.625,153.082,-353.293,0,0
397883.95,154.595,-354.178,0,0
398144.275,156.074,-355.225,0,0
398404.6,157.47,-356.399,0,0
398664.925,158.85,-357.734,0,0
398925.25,160.08,-359.127,0,0
399185.575,161.281,-360.727,0,0
399445.9,162.392,-362.436,0,0
399706.225,163.302,-364.285,0,0
399966.55,163.984,-366.203,0,0
400006.6,164.115,-366.535,0,0