File: Accelerated corrosion test data/2025-10-12_06-00-03/sample_1.csv
Frequency (Hz),Impedance (ohms),Phase (Radians),Temperature (C),Humidity (%)
10000.0,239.404,-12194,0,0
10260.325,237.48,-11879.8,0,0
10520.65,229.143,-11600.9,0,0
10780.975,224.543,-11316.9,0,0
11041.3,218.337,-11056.7,0,0
11301.625,212.673,-10800.5,0,0
11561.95,209.305,-10556.3,0,0
11822.275,206.216,-10318.5,0,0
12082.6,223.558,-10089.1,0,0
12342.925,210.921,-9912.7,0,0
12603.25,193.955,-9701.51,0,0
12863.575,189.906,-9499.36,0,0
13123.9,197.932,-9305.6,0,0
13384.225,184.687,-9137.28,0,0
13644.55,179.926,-8956.68,0,0
13904.875,180.659,-8778.61,0,0
14165.2,196.952,-8645.43,0,0
14425.525,208.488,-8467.86,0,0
14685.8,197.567,-8309.08,0,0
14946.175,178.337,-8211.95,0,0
15206.5,181.452,-8045.17,0,0
15466.825,173.315,-7933.7,0,0
15727.15,171.529,-7796.51,0,0
15987.5,160.241,-7671.73,0,0
16247.8,156.473,-7545.25,0,0
16508.125,154.615,-7422.42,0,0
16768.45,158.403,-7304.79,0,0
17028.775,161.972,-7197.08,0,0
17289.1,153.658,-7094.66,0,0
17549.425,152.646,-6991.49,0,0
17809.75,146.698,-6887.68,0,0
18070.075,147.219,-6787.53,0,0
18330.4,141.04,-6691.96,0,0
18590.725,137.087,-6597.67,0,0
18851.05,137.64,-6499.57,0,0
19111.375,135.556,-6418.75,0,0
19371.7,132.504,-6326.54,0,0
19632.025,131.417,-6238.06,0,0
19892.35,135.907,-6151.26,0,0
20152.675,134.644,-6065.55,0,0
20413.0,153.43,-5976.66,0,0
20673.3,167.021,-5934.84,0,0
20933.65,150.277,-5866.24,0,0
21193.975,161.022,-5802.53,0,0
21454.3,140.967,-5731.04,0,0
21714.625,137.014,-5659.8,0,0
21974.9,137.41,-5578.52,0,0
22235.275,172.082,-5532.13,0,0
22495.6,142.267,-5492.55,0,0
22755.925,126.856,-5424.02,0,0
23016.25,121.743,-5357.36,0,0
23276.6,119.078,-5296.24,0,0
23536.9,115.771,-5234.62,0,0
23797.225,112.281,-5173.93,0,0
24057.55,114.043,-5113.26,0,0
24317.875,112.441,-5064.95,0,0
24578.2,110.384,-5005.36,0,0
24838.525,110.457,-4955.21,0,0
25098.85,110.306,-4901.04,0,0
25359.175,106.192,-4852.52,0,0
25619.5,105.044,-4800.74,0,0
25879.8,102.761,-4749.52,0,0
26140.1,102.955,-4700.85,0,0
26400.5,102.711,-4650.64,0,0
26660.8,104.208,-4600.75,0,0
26921.1,113.063,-4552.14,0,0
27181.4,120.497,-4519.26,0,0
27441.8,111.437,-4485.74,0,0
27702.1,103.494,-4437.36,0,0
27962.4,109.829,-4387.11,0,0
28222.7,109.767,-4348.78,0,0
28483.1,120.413,-4305.83,0,0
28743.4,130.122,-4286.28,0,0
29003.7,117.082,-4250.32,0,0
29264,117.889,-4214.95,0,0
29524.4,107.08,-4182.92,0,0
29784.7,105.187,-4140.66,0,0
30045,101.071,-4108.73,0,0
30305.3,98.862,-4070.37,0,0
30565.7,96.6602,-4031.38,0,0
30826,100.537,-3995.96,0,0
31086.3,103.136,-3967.46,0,0
31346.6,100.333,-3938.21,0,0
31607,93.3107,-3901.68,0,0
31867.3,97.435,-3868.08,0,0
32127.6,97.7164,-3837.35,0,0
32387.9,97.9147,-3811.22,0,0
32648.3,93.2772,-3779.82,0,0
32908.6,95.7545,-3751.01,0,0
33168.9,90.9254,-3723.53,0,0
33429.2,88.7642,-3694.65,0,0
33689.6,85.8041,-3664.91,0,0
33949.9,84.8063,-3633.81,0,0
34210.2,86.3673,-3607.56,0,0
34470.5,83.553,-3580.63,0,0
34730.9,81.5626,-3552.56,0,0
34991.2,81.0865,-3525.87,0,0
35251.5,80.0941,-3498.85,0,0
35511.8,79.2982,-3472.29,0,0
35772.2,79.0287,-3447.03,0,0
36032.5,77.7845,-3421.65,0,0
36292.8,77.0512,-3396.29,0,0
36553.1,76.5551,-3371.45,0,0
36813.5,75.9511,-3346.99,0,0
37073.8,75.7039,-3323.2,0,0
37334.1,75.0437,-3299.35,0,0
37594.4,74.7519,-3275.93,0,0
37854.8,73.851,-3253.5,0,0
38115.1,73.4083,-3230.39,0,0
38375.4,73.2023,-3207.76,0,0
38635.7,72.7511,-3185.91,0,0
38896.1,72.2484,-3163.86,0,0
39156.4,72.0254,-3141.84,0,0
39416.7,72.211,-3121.54,0,0
39677,71.116,-3100.49,0,0
39937.4,71.108,-3079.41,0,0
40197.7,70.8763,-3058.84,0,0
40458,70.6148,-3038.6,0,0
40718.3,70.4952,-3018.08,0,0
40978.7,72.3848,-2998.73,0,0
41239,71.9302,-2980.54,0,0
41499.3,71.312,-2962.04,0,0
41759.6,70.9151,-2943.94,0,0
42020,69.8878,-2924.8,0,0
42280.275,69.9621,-2906.16,0,0
42540.6,70.3491,-2888.45,0,0
42800.925,69.9375,-2871.56,0,0
43061.25,69.1929,-2853.5,0,0
43321.575,68.9691,-2836.45,0,0
43581.9,68.6022,-2819.1,0,0
43842.225,67.8199,-2801.78,0,0
44102.55,67.6745,-2783.76,0,0
44362.875,68.6638,-2767.18,0,0
44623.2,69.0992,-2751.6,0,0
44883.525,68.0947,-2736,0,0
45143.85,68.3527,-2720.34,0,0
45404.175,68.4198,-2704.46,0,0
45664.5,67.422,-2689.98,0,0
45924.825,66.5055,-2674.25,0,0
46185.15,66.4637,-2658.98,0,0
46445.475,65.3789,-2643.74,0,0
46705.8,65.0495,-2628.52,0,0
46966.125,64.8231,-2613.98,0,0
47226.45,64.2824,-2598.83,0,0
47486.775,64.4098,-2584.35,0,0
47747.1,63.7269,-2570.33,0,0
48007.425,63.3408,-2555.9,0,0
48267.75,63.4362,-2541.71,0,0
48528.075,62.6436,-2528.82,0,0
48788.4,61.7779,-2514.3,0,0
49048.725,61.1904,-2500.18,0,0
49309.05,61.3296,-2486.29,0,0
49569.375,61.1104,-2473.16,0,0
49829.7,60.9359,-2460.24,0,0
50090.025,59.986,-2447.02,0,0
50350.35,59.4534,-2433.73,0,0
50610.675,59.3176,-2420.51,0,0
50871.0,59.1415,-2407.53,0,0
51131.325,59.1711,-2394.66,0,0
51391.65,59.1181,-2382.27,0,0
51651.975,58.6796,-2370.12,0,0
51912.3,58.3458,-2357.68,0,0
52172.625,58.181,-2345.32,0,0
52432.95,57.8912,-2333.24,0,0
52693.275,57.6796,-2321.2,0,0
52953.6,57.5459,-2309.22,0,0
53213.925,57.5739,-2297.53,0,0
53474.25,57.3992,-2286.13,0,0
53734.575,57.3606,-2274.53,0,0
53994.9,57.2313,-2263.41,0,0
54255.225,56.6954,-2252.32,0,0
54515.55,56.2018,-2240.93,0,0
54775.875,55.9142,-2229.68,0,0
55036.2,55.7834,-2218.48,0,0
55296.525,55.9153,-2207.58,0,0
55556.85,55.8431,-2196.87,0,0
55817.175,55.471,-2186.46,0,0
56077.5,54.9807,-2175.68,0,0
56337.825,54.8071,-2164.82,0,0
56598.15,54.7741,-2154.28,0,0
56858.475,54.7717,-2143.92,0,0
57118.8,54.5935,-2133.69,0,0
57379.125,54.4515,-2123.34,0,0
57639.45,54.6259,-2113.23,0,0
57899.775,54.5935,-2103.32,0,0
58160.1,54.4976,-2093.39,0,0
58420.4,54.477,-2083.79,0,0
58680.7,54.1594,-2074.01,0,0
58941.1,54.2267,-2064.27,0,0
59201.4,54.316,-2054.59,0,0
59461.7,54.3872,-2045.59,0,0
59722,54.1512,-2036.01,0,0
59982.4,54.128,-2026.62,0,0
60242.7,54.1442,-2017.39,0,0
60503,54.2061,-2008.23,0,0
60763.3,54.4096,-1999.53,0,0
61023.7,54.0883,-1991.03,0,0
61284,53.6104,-1982.12,0,0
61544.3,53.2705,-1972.93,0,0
61804.6,53.3383,-1964.1,0,0
62065,53.1531,-1955.74,0,0
62325.3,52.6738,-1946.8,0,0
62585.6,52.6273,-1938.14,0,0
62845.9,52.4474,-1929.24,0,0
63106.3,52.5166,-1920.58,0,0
63366.6,52.4639,-1912.28,0,0
63626.9,52.4611,-1903.66,0,0
63887.2,52.4424,-1895.15,0,0
64147.6,52.6189,-1886.77,0,0
64407.9,52.7957,-1878.53,0,0
64668.2,52.8835,-1870.21,0,0
64928.5,53.4024,-1861.9,0,0
65188.9,54.0647,-1854.12,0,0
65449.2,54.7633,-1846.48,0,0
65709.5,55.2526,-1839.42,0,0
65969.8,54.9312,-1832.24,0,0
66230.2,55.0177,-1825.11,0,0
66490.5,54.7624,-1817.85,0,0
66750.8,54.6628,-1810.58,0,0
67011.1,54.3672,-1803.5,0,0
67271.5,53.6842,-1796.07,0,0
67531.8,54.102,-1788.19,0,0
67792.1,54.3536,-1781.07,0,0
68052.4,54.3197,-1774.76,0,0
68312.8,53.6063,-1767.8,0,0
68573.1,53.1839,-1760.4,0,0
68833.4,53.4509,-1753.14,0,0
69093.7,53.418,-1746.59,0,0
69354.1,52.9668,-1739.86,0,0
69614.4,52.729,-1733.12,0,0
69874.7,52.112,-1726.52,0,0
70135,51.7674,-1719.57,0,0
70395.4,51.1274,-1712.75,0,0
70655.7,50.6598,-1705.6,0,0
70916,50.456,-1698.62,0,0
71176.3,50.3485,-1691.76,0,0
71436.7,50.2677,-1685.17,0,0
71697,49.813,-1678.69,0,0
71957.3,49.3109,-1672,0,0
72217.6,48.8492,-1665.26,0,0
72478,48.438,-1658.23,0,0
72738.3,48.3456,-1651.35,0,0
72998.6,48.2835,-1644.49,0,0
73258.9,48.3415,-1637.83,0,0
73519.3,48.2217,-1631.43,0,0
73779.6,48.071,-1624.76,0,0
74039.9,48.0711,-1618.12,0,0
74300.225,48.2278,-1611.69,0,0
74560.55,48.2695,-1605.29,0,0
74820.875,48.3006,-1598.88,0,0
75081.2,48.5598,-1592.61,0,0
75341.525,48.5959,-1586.37,0,0
75601.85,48.5478,-1580.17,0,0
75862.175,48.6464,-1573.86,0,0
76122.5,48.9111,-1567.62,0,0
76382.825,49.2604,-1561.52,0,0
76643.15,49.3818,-1555.66,0,0
76903.475,49.608,-1549.6,0,0
77163.8,49.8498,-1543.77,0,0
77424.125,50.0739,-1538,0,0
77684.45,50.2229,-1532.22,0,0
77944.775,50.4148,-1526.44,0,0
78205.1,50.7274,-1520.62,0,0
78465.425,51.3014,-1514.87,0,0
78725.75,51.7858,-1509.73,0,0
78986.075,51.8612,-1504.62,0,0
79246.4,51.8709,-1499.53,0,0
79506.725,51.7549,-1494.27,0,0
79767.05,51.3452,-1489,0,0
80027.375,51.2413,-1483.49,0,0
80287.7,51.1981,-1478.2,0,0
80548.025,50.8033,-1472.87,0,0
80808.35,50.58,-1467.13,0,0
81068.675,50.4613,-1461.66,0,0
81329.0,50.4821,-1455.89,0,0
81589.325,50.6378,-1450.4,0,0
81849.65,50.72,-1444.92,0,0
82109.975,50.9542,-1439.63,0,0
82370.3,51.0341,-1434.25,0,0
82630.625,51.1049,-1428.9,0,0
82890.95,51.26,-1423.52,0,0
83151.275,51.5414,-1418.07,0,0
83411.6,51.8922,-1412.87,0,0
83671.925,52.2102,-1407.82,0,0
83932.25,52.4835,-1402.6,0,0
84192.575,52.8009,-1397.53,0,0
84452.9,53.0687,-1392.42,0,0
84713.225,53.3902,-1387.43,0,0
84973.55,53.7808,-1382.34,0,0
85233.875,54.361,-1377.36,0,0
85494.2,54.9299,-1372.72,0,0
85754.525,55.3045,-1368.15,0,0
86014.85,55.4489,-1363.54,0,0
86275.175,55.7543,-1358.97,0,0
86535.5,55.9216,-1354.25,0,0
86795.825,56.0834,-1349.76,0,0
87056.15,56.1189,-1345.07,0,0
87316.475,56.3958,-1340.36,0,0
87576.8,56.6536,-1335.92,0,0
87837.125,56.5277,-1331.39,0,0
88097.45,56.2969,-1326.59,0,0
88357.775,56.3155,-1321.54,0,0
88618.1,56.5726,-1316.44,0,0
88878.425,57.0928,-1311.58,0,0
89138.75,57.3833,-1306.69,0,0
89399.075,58.0968,-1301.83,0,0
89659.4,58.8302,-1296.97,0,0
89919.725,59.3556,-1292.27,0,0
90180,60.3992,-1287.85,0,0
90440.4,60.938,-1283.38,0,0
90700.7,61.4144,-1278.66,0,0
90961,62.4368,-1273.78,0,0
91221.3,63.8303,-1269.27,0,0
91481.7,65.3489,-1265.2,0,0
91742,66.6918,-1261.3,0,0
92002.3,67.8812,-1257.72,0,0
92262.6,68.772,-1253.87,0,0
92523,69.9533,-1249.91,0,0
92783.3,71.7812,-1246.19,0,0
93043.6,73.7079,-1243.29,0,0
93303.9,75.1559,-1240.8,0,0
93564.3,76.5486,-1238.45,0,0
93824.6,78.3402,-1236.8,0,0
94084.9,78.8662,-1237.12,0,0
94345.2,76.5736,-1236.82,0,0
94605.6,73.6076,-1233.73,0,0
94865.9,72.3023,-1230.05,0,0
95126.2,70.8547,-1226.89,0,0
95386.5,69.6183,-1223,0,0
95646.9,68.3186,-1219.29,0,0
95907.2,66.9662,-1214.95,0,0
96167.5,66.1629,-1210.31,0,0
96427.8,66.1742,-1205.86,0,0
96688.2,66.1117,-1202.28,0,0
96948.5,65.3749,-1198.55,0,0
97208.8,64.7079,-1194.42,0,0
97469.1,64.3502,-1190.13,0,0
97729.5,64.1027,-1185.88,0,0
97989.8,64.0156,-1181.67,0,0
98250.1,64.0824,-1177.63,0,0
98510.4,64.2065,-1173.67,0,0
98770.8,64.1313,-1170.02,0,0
99031.1,63.8047,-1166.17,0,0
99291.4,63.6298,-1162.21,0,0
99551.7,63.4353,-1158.23,0,0
99812.1,63.2135,-1154.11,0,0
100072,63.249,-1150,0,0
100333,63.3269,-1146.07,0,0
100593,63.257,-1142.08,0,0
100853,63.3326,-1138.03,0,0
101114,63.37,-1134.06,0,0
101374,63.3655,-1130.13,0,0
101634,63.2668,-1126.02,0,0
101895,63.2547,-1121.86,0,0
102155,63.1278,-1117.41,0,0
102415,63.2934,-1112.71,0,0
102676,63.9438,-1107.81,0,0
102936,65.188,-1103.35,0,0
103196,66.2729,-1099.27,0,0
103457,67.261,-1095.28,0,0
103717,68.2819,-1091.32,0,0
103977,69.3794,-1087.28,0,0
104238,70.8762,-1083.19,0,0
104498,72.7361,-1079.75,0,0
104758,74.1609,-1076.86,0,0
105019,75.1519,-1073.94,0,0
105279,75.8804,-1070.62,0,0
105539,76.9209,-1067.03,0,0
105800,78.3202,-1063.75,0,0
106060,79.7736,-1060.57,0,0
106320.175,81.3169,-1057.61,0,0
106580.5,82.7836,-1054.92,0,0
106840.825,84.1605,-1052.42,0,0
107101.15,85.3198,-1049.91,0,0
107361.475,86.5971,-1047.47,0,0
107621.8,87.8201,-1045.28,0,0
107882.125,88.8162,-1043.16,0,0
108142.45,89.6655,-1041.01,0,0
108402.775,90.4642,-1038.82,0,0
108663.1,91.4334,-1036.62,0,0
108923.425,92.3817,-1034.67,0,0
109183.75,93.1114,-1032.85,0,0
109444.075,93.9351,-1031.16,0,0
109704.4,94.3681,-1029.72,0,0
109964.725,94.3602,-1028.31,0,0
110225.05,94.0981,-1026.59,0,0
110485.375,93.6034,-1024.58,0,0
110745.7,93.1142,-1021.94,0,0
111006.025,93.1553,-1019.23,0,0
111266.35,93.5621,-1016.74,0,0
111526.675,93.9706,-1014.09,0,0
111787.0,94.6913,-1011.83,0,0
112047.325,95.096,-1009.94,0,0
112307.65,95.4092,-1007.98,0,0
112567.975,95.8591,-1006.07,0,0
112828.3,96.0659,-1004.49,0,0
113088.625,96.1226,-1002.77,0,0
113348.95,96.1172,-1001.17,0,0
113609.275,95.9844,-999.684,0,0
113869.6,95.5842,-998.172,0,0
114129.925,95.028,-996.646,0,0
114390.25,94.1962,-994.813,0,0
114650.575,93.5046,-992.702,0,0
114910.9,92.9665,-990.739,0,0
115171.225,92.1674,-988.892,0,0
115431.55,91.2315,-986.831,0,0
115691.875,90.2964,-984.789,0,0
115952.2,89.07,-982.405,0,0
116212.525,87.9949,-979.806,0,0
116472.85,87.1487,-977.01,0,0
116733.175,86.3859,-974.35,0,0
116993.5,85.554,-971.713,0,0
117253.825,84.6428,-968.975,0,0
117514.15,83.8201,-966.02,0,0
117774.475,83.1005,-962.962,0,0
118034.8,82.5129,-959.821,0,0
118295.125,82.1043,-956.658,0,0
118555.45,81.7382,-953.658,0,0
118815.775,81.3136,-950.592,0,0
119076.1,81.0884,-947.373,0,0
119336.425,81.0468,-944.208,0,0
119596.75,81.0014,-941.185,0,0
119857.075,81.0451,-938.22,0,0
120117.4,81.2773,-935.381,0,0
120377.725,81.3749,-932.685,0,0
120638.05,81.499,-930.053,0,0
120898.375,81.5525,-927.548,0,0
121158.7,81.5067,-925.198,0,0
121419.025,81.1237,-922.727,0,0
121679.35,80.8188,-920.087,0,0
121939.675,80.4587,-917.442,0,0
122200.0,80.0429,-914.591,0,0
122460,79.6708,-911.751,0,0
122721,79.4852,-908.85,0,0
122981,79.3784,-905.951,0,0
123241,79.1775,-903.105,0,0
123502,78.9588,-900.17,0,0
123762,78.8247,-897.181,0,0
124022,78.7722,-894.159,0,0
124283,78.7374,-891.127,0,0
124543,78.8196,-888.102,0,0
124803,78.9799,-885.145,0,0
125064,79.1429,-882.226,0,0
125324,79.1766,-879.297,0,0
125584,79.3635,-876.29,0,0
125845,79.6785,-873.382,0,0
126105,79.8886,-870.58,0,0
126365,80.1286,-867.631,0,0
126626,80.4365,-864.76,0,0
126886,80.7314,-861.888,0,0
127146,81.0048,-859.101,0,0
127406,81.2472,-856.24,0,0
127667,81.7233,-853.424,0,0
127927,82.0291,-850.562,0,0
128187,82.4049,-847.636,0,0
128448,82.9224,-844.665,0,0
128708,83.5674,-841.899,0,0
128968,84.0796,-839.245,0,0
129229,84.5002,-836.521,0,0
129489,84.9365,-833.627,0,0
129749,85.5398,-830.67,0,0
130010,86.2775,-827.706,0,0
130270,87.3072,-824.829,0,0
130530,88.4309,-822.2,0,0
130791,89.5049,-819.778,0,0
131051,90.5169,-817.48,0,0
131311,91.488,-815.241,0,0
131572,92.4693,-813.106,0,0
131832,93.2984,-811.118,0,0
132092,94.0247,-809.147,0,0
132353,94.6646,-807.203,0,0
132613,95.1534,-805.172,0,0
132873,95.6509,-803.027,0,0
133134,96.2137,-800.897,0,0
133394,96.7829,-798.806,0,0
133654,97.3222,-796.753,0,0
133915,97.7926,-794.57,0,0
134175,98.3723,-792.427,0,0
134435,98.9902,-790.384,0,0
134696,99.4655,-788.367,0,0
134956,99.8178,-786.261,0,0
135216,100.311,-784.04,0,0
135477,100.804,-781.875,0,0
135737,101.401,-779.641,0,0
135997,102.02,-777.406,0,0
136258,102.663,-775.135,0,0
136518,103.499,-772.898,0,0
136778,104.49,-770.743,0,0
137039,105.536,-768.825,0,0
137299,106.548,-767.078,0,0
137559,107.58,-765.474,0,0
137819,108.543,-764.159,0,0
138080,109.175,-763.08,0,0
138340.125,109.459,-761.879,0,0
138600.45,109.628,-760.55,0,0
138860.775,109.656,-759.209,0,0
139121.1,109.497,-757.689,0,0
139381.425,109.42,-755.843,0,0
139641.75,109.534,-753.969,0,0
139902.075,109.624,-752.278,0,0
140162.4,109.618,-750.5,0,0
140422.725,109.559,-748.663,0,0
140683.05,109.507,-746.739,0,0
140943.375,109.413,-744.738,0,0
141203.7,109.378,-742.612,0,0
141464.025,109.473,-740.473,0,0
141724.35,109.578,-738.442,0,0
141984.675,109.484,-736.343,0,0
142245.0,109.54,-733.965,0,0
142505.325,109.866,-731.705,0,0
142765.65,110.168,-729.655,0,0
143025.975,110.266,-727.526,0,0
143286.3,110.445,-725.308,0,0
143546.625,110.593,-722.995,0,0
143806.95,110.878,-720.615,0,0
144067.275,111.272,-718.209,0,0
144327.6,111.798,-715.985,0,0
144587.925,112.12,-713.762,0,0
144848.25,112.608,-711.28,0,0
145108.575,113.39,-708.985,0,0
145368.9,114.116,-706.904,0,0
145629.225,114.801,-704.94,0,0
145889.55,115.37,-702.989,0,0
146149.875,115.951,-701.045,0,0
146410.2,116.435,-699.205,0,0
146670.525,116.768,-697.154,0,0
146930.85,117.367,-694.985,0,0
147191.175,118.12,-693.126,0,0
147451.5,118.636,-691.505,0,0
147711.825,118.916,-689.714,0,0
147972.15,119.132,-687.839,0,0
148232.475,119.287,-685.821,0,0
148492.8,119.599,-683.56,0,0
148753.125,120.135,-681.39,0,0
149013.45,120.667,-679.312,0,0
149273.775,121.301,-677.239,0,0
149534.1,122.049,-675.334,0,0
149794.425,122.751,-673.697,0,0
150054.75,123.164,-672.312,0,0
150315.075,123.203,-670.906,0,0
150575.4,123.027,-669.244,0,0
150835.725,122.746,-667.426,0,0
151096.05,122.287,-665.356,0,0
151356.375,121.878,-662.897,0,0
151616.7,121.711,-660.262,0,0
151877.025,121.743,-657.649,0,0
152137.35,121.768,-655.056,0,0
152397.675,121.674,-652.4,0,0
152658.0,121.549,-649.527,0,0
152918.325,121.49,-646.365,0,0
153178.65,121.794,-642.955,0,0
153438.975,122.382,-639.594,0,0
153699.3,123.092,-636.326,0,0
153959.625,123.852,-633.068,0,0
154219.95,124.682,-629.676,0,0
154480,125.752,-626.219,0,0
154741,127.053,-622.798,0,0
155001,128.583,-619.437,0,0
155261,130.125,-616.277,0,0
155522,131.639,-613.052,0,0
155782,133.385,-609.662,0,0
156042,135.489,-606.317,0,0
156303,137.861,-603.205,0,0
156563,140.287,-600.418,0,0
156823,142.675,-597.669,0,0
157084,145.305,-594.906,0,0
157344,148.202,-592.478,0,0
157604,151.12,-590.56,0,0
157864,153.716,-588.909,0,0
158125,155.951,-587.324,0,0
158385,158.142,-585.499,0,0
158645,160.382,-583.815,0,0
158906,162.323,-582.161,0,0
159166,164.091,-580.035,0,0
159426,166.148,-577.705,0,0
159687,168.348,-575.085,0,0
159947,171.221,-572.262,0,0
160207,174.671,-569.808,0,0
160468,178.294,-567.769,0,0
160728,182.146,-565.986,0,0
160988,186.25,-564.574,0,0
161249,190.365,-563.748,0,0
161509,194.448,-563.365,0,0
161769,198.438,-563.385,0,0
162030,202.15,-563.996,0,0
162290,205.269,-564.966,0,0
162550,207.748,-565.812,0,0
162811,210.005,-566.373,0,0
163071,212.229,-566.732,0,0
163331,214.469,-567.105,0,0
163592,216.588,-567.36,0,0
163852,218.974,-567.532,0,0
164112,221.381,-567.944,0,0
164373,223.748,-568.434,0,0
164633,226.095,-569.139,0,0
164893,228.27,-569.813,0,0
165154,230.671,-570.397,0,0
165414,233.121,-571.417,0,0
165674,235.44,-572.56,0,0
165935,237.899,-573.935,0,0
166195,240.242,-575.837,0,0
166455,242.162,-578.155,0,0
166716,243.529,-580.628,0,0
166976,244.422,-582.945,0,0
167236,245.206,-585.092,0,0
167497,245.853,-587.417,0,0
167757,246.084,-589.726,0,0
168017,246.168,-591.96,0,0
168277,245.969,-594.32,0,0
168538,245.364,-596.654,0,0
168798,244.308,-598.827,0,0
169058,242.923,-600.728,0,0
169319,241.298,-602.313,0,0
169579,239.441,-603.696,0,0
169839,237.167,-604.563,0,0
170100,234.938,-604.845,0,0
170360.075,232.867,-604.669,0,0
170620.4,231.08,-604.103,0,0
170880.725,229.656,-603.512,0,0
171141.05,228.273,-602.932,0,0
171401.375,226.9,-602.158,0,0
171661.7,225.808,-601.24,0,0
171922.025,224.852,-600.408,0,0
172182.35,223.857,-599.522,0,0
172442.675,223.058,-598.527,0,0
172703.0,222.352,-597.64,0,0
172963.325,221.55,-596.778,0,0
173223.65,220.716,-595.793,0,0
173483.975,219.97,-594.664,0,0
173744.3,219.325,-593.462,0,0
174004.625,218.767,-592.202,0,0
174264.95,218.405,-590.869,0,0
174525.275,218.271,-589.637,0,0
174785.6,218.13,-588.514,0,0
175045.925,218.006,-587.578,0,0
175306.25,217.763,-586.532,0,0
175566.575,217.599,-585.235,0,0
175826.9,217.911,-584.157,0,0
176087.225,218.275,-583.486,0,0
176347.55,218.347,-583.015,0,0
176607.875,218.205,-582.545,0,0
176868.2,217.993,-582.034,0,0
177128.525,217.696,-581.483,0,0
177388.85,217.403,-580.812,0,0
177649.175,217.311,-580.18,0,0
177909.5,217.307,-579.809,0,0
178169.825,217.03,-579.784,0,0
178430.15,216.328,-579.746,0,0
178690.475,215.347,-579.517,0,0
178950.8,214.326,-579.167,0,0
179211.125,213.055,-578.581,0,0
179471.45,211.921,-577.75,0,0
179731.775,210.907,-576.957,0,0
179992.1,209.824,-576.33,0,0
180252.425,208.423,-575.686,0,0
180512.75,206.774,-574.75,0,0
180773.075,205.107,-573.472,0,0
181033.4,203.519,-572.026,0,0
181293.725,201.925,-570.374,0,0
181554.05,200.449,-568.511,0,0
181814.375,199.099,-566.577,0,0
182074.7,197.881,-564.602,0,0
182335.025,196.653,-562.619,0,0
182595.35,195.414,-560.568,0,0
182855.675,194.148,-558.459,0,0
183116.0,192.909,-556.221,0,0
183376.325,191.56,-553.893,0,0
183636.65,190.215,-551.257,0,0
183896.975,189.059,-548.374,0,0
184157.3,188.059,-545.388,0,0
184417.625,187.23,-542.307,0,0
184677.95,186.494,-539.214,0,0
184938.275,185.736,-535.888,0,0
185198.6,185.332,-532.256,0,0
185458.925,185.401,-528.665,0,0
185719.25,185.753,-525.388,0,0
185979.575,185.991,-522.297,0,0
186239.9,186.24,-519.114,0,0
186500,186.607,-515.901,0,0
186761,187.194,-512.813,0,0
187021,187.692,-509.773,0,0
187281,188.282,-506.683,0,0
187542,189.079,-503.523,0,0
187802,190.047,-500.599,0,0
188062,190.845,-497.914,0,0
188322,191.48,-495.204,0,0
188583,192.153,-492.486,0,0
188843,192.886,-489.596,0,0
189103,193.617,-486.755,0,0
189364,194.339,-483.917,0,0
189624,195.11,-480.958,0,0
189884,195.795,-477.941,0,0
190145,196.627,-474.846,0,0
190405,197.58,-471.747,0,0
190665,198.646,-468.494,0,0
190926,199.808,-465.455,0,0
191186,200.907,-462.476,0,0
191446,201.966,-459.364,0,0
191707,202.999,-456.018,0,0
191967,204.184,-452.603,0,0
192227,205.657,-449.068,0,0
192488,207.271,-445.656,0,0
192748,208.976,-442.301,0,0
193008,210.741,-438.961,0,0
193269,212.62,-435.568,0,0
193529,214.496,-432.141,0,0
193789,216.624,-428.86,0,0
194050,218.686,-425.686,0,0
194310,220.751,-422.358,0,0
194570,222.766,-418.994,0,0
194831,224.95,-415.476,0,0
195091,227.307,-411.957,0,0
195351,229.85,-408.378,0,0
195612,232.578,-404.861,0,0
195872,235.429,-401.452,0,0
196132,238.201,-398.129,0,0
196393,240.932,-394.637,0,0
196653,243.913,-390.955,0,0
196913,247.176,-387.217,0,0
197174,250.762,-383.708,0,0
197434,254.348,-380.273,0,0
197694,258.077,-376.924,0,0
197955,261.912,-373.343,0,0
198215,266.22,-369.98,0,0
198475,270.572,-366.797,0,0
198735,275.063,-363.881,0,0
198996,279.557,-361.111,0,0
199256,283.996,-358.548,0,0
199516,288.238,-355.987,0,0
199777,292.497,-353.183,0,0
200037,296.724,-350.316,0,0
200297,301.197,-347.141,0,0
200558,305.977,-343.839,0,0
200818,311.074,-340.536,0,0
201078,316.488,-337.164,0,0
201339,322.232,-333.794,0,0
201599,328.405,-330.501,0,0
201859,334.991,-327.189,0,0
202120,342.001,-324.171,0,0
202380.025,349.589,-321.175,0,0
202640.35,357.79,-318.754,0,0
202900.675,366.438,-316.968,0,0
203161.0,374.909,-315.83,0,0
203421.325,383.377,-315.073,0,0
203681.65,391.853,-314.233,0,0
203941.975,400.941,-313.475,0,0
204202.3,410.565,-313.14,0,0
204462.625,420.836,-313.63,0,0
204722.95,431.42,-315.078,0,0
204983.275,442.178,-317.481,0,0
205243.6,452.878,-321.141,0,0
205503.925,462.911,-325.98,0,0
205764.25,472.311,-331.4,0,0
206024.575,481.091,-337.48,0,0
206284.9,489.207,-343.911,0,0
206545.225,496.768,-350.644,0,0
206805.55,503.98,-357.693,0,0
207065.875,510.682,-365.381,0,0
207326.2,516.437,-373.53,0,0
207586.525,521.322,-381.731,0,0
207846.85,525.417,-389.809,0,0
208107.175,529.095,-397.816,0,0
208367.5,532.116,-405.804,0,0
208627.825,534.618,-413.573,0,0
208888.15,536.774,-421.263,0,0
209148.475,538.392,-429.055,0,0
209408.8,539.272,-436.636,0,0
209669.125,539.704,-443.928,0,0
209929.45,539.72,-451.172,0,0
210189.775,538.748,-458.274,0,0
210450.1,536.905,-464.582,0,0
210710.425,534.562,-469.713,0,0
210970.75,532.294,-473.896,0,0
211231.075,530.345,-477.294,0,0
211491.4,528.638,-480.107,0,0
211751.725,527.233,-482.53,0,0
212012.05,526.008,-484.622,0,0
212272.375,524.78,-486.17,0,0
212532.7,523.986,-486.962,0,0
212793.025,524.103,-487.026,0,0
213053.35,525.338,-487.151,0,0
213313.675,527.491,-487.792,0,0
213574.0,529.999,-489.018,0,0
213834.325,532.754,-490.804,0,0
214094.65,535.363,-493.176,0,0
214354.975,537.722,-495.817,0,0
214615.3,540.013,-498.459,0,0
214875.625,542.299,-501.326,0,0
215135.95,544.425,-504.301,0,0
215396.275,546.462,-507.25,0,0
215656.6,548.698,-510.145,0,0
215916.925,550.959,-513.538,0,0
216177.25,552.83,-517.198,0,0
216437.575,554.175,-520.599,0,0
216697.9,555.362,-523.606,0,0
216958.225,556.616,-526.103,0,0
217218.55,558.252,-528.217,0,0
217478.875,560.584,-530.167,0,0
217739.2,563.574,-532.438,0,0
217999.525,566.877,-535.227,0,0
218259.85,570.226,-538.523,0,0
218520,573.38,-542.165,0,0
218780,576.485,-545.895,0,0
219041,579.525,-549.722,0,0
219301,582.804,-553.531,0,0
219561,586.352,-557.489,0,0
219822,590.175,-561.845,0,0
220082,594.147,-566.885,0,0
220342,597.92,-572.314,0,0
220603,601.513,-578.029,0,0
220863,605.058,-583.857,0,0
221123,608.881,-590.094,0,0
221384,612.793,-596.894,0,0
221644,616.547,-604.543,0,0
221904,619.905,-612.756,0,0
222165,622.884,-621.547,0,0
222425,625.199,-630.923,0,0
222685,627.01,-640.701,0,0
222946,628.102,-650.867,0,0
223206,628.334,-661.173,0,0
223466,627.89,-671.447,0,0
223727,626.715,-681.68,0,0
223987,625.082,-691.721,0,0
224247,622.854,-701.529,0,0
224508,620.312,-711.031,0,0
224768,617.517,-720.789,0,0
225028,614.221,-730.184,0,0
225289,610.626,-739.872,0,0
225549,606.527,-749.173,0,0
225809,601.62,-758.329,0,0
226070,596.622,-767.344,0,0
226330,591.214,-776.21,0,0
226590,585.4,-784.908,0,0
226851,579.081,-793.388,0,0
227111,572.364,-801.717,0,0
227371,565.019,-809.826,0,0
227632,557.154,-817.502,0,0
227892,548.688,-824.78,0,0
228152,539.701,-831.274,0,0
228413,530.494,-837.131,0,0
228673,521.097,-842.325,0,0
228933,511.435,-846.913,0,0
229193,501.761,-850.756,0,0
229454,492.077,-853.828,0,0
229714,482.685,-856.369,0,0
229974,473.379,-858.324,0,0
230235,464.286,-859.904,0,0
230495,455.365,-861.126,0,0
230755,446.686,-861.653,0,0
231016,438.202,-861.902,0,0
231276,430.177,-861.771,0,0
231536,422.366,-861.332,0,0
231797,414.871,-860.677,0,0
232057,407.619,-859.687,0,0
232317,400.896,-858.56,0,0
232578,394.49,-857.322,0,0
232838,388.451,-856.089,0,0
233098,382.664,-854.806,0,0
233359,377.154,-853.527,0,0
233619,371.993,-852.415,0,0
233879,366.792,-851.408,0,0
234140,361.735,-850.575,0,0
234400,356.638,-849.695,0,0
234660.3,351.686,-848.685,0,0
234920.625,346.744,-847.944,0,0
235180.95,341.802,-846.801,0,0
235441.275,336.876,-846.025,0,0
235701.6,331.897,-844.923,0,0
235961.925,327.007,-843.859,0,0
236222.25,322.22,-842.636,0,0
236482.575,317.427,-841.413,0,0
236742.9,312.692,-840.14,0,0
237003.225,307.963,-838.786,0,0
237263.55,303.288,-837.389,0,0
237523.875,298.541,-835.782,0,0
237784.2,293.964,-833.976,0,0
238044.525,289.639,-832.055,0,0
238304.85,285.464,-830.196,0,0
238565.175,281.341,-828.354,0,0
238825.5,277.19,-826.571,0,0
239085.825,273.138,-824.65,0,0
239346.15,269.148,-822.741,0,0
239606.475,265.121,-820.831,0,0
239866.8,261.108,-818.662,0,0
240127.125,257.42,-816.268,0,0
240387.45,253.691,-813.917,0,0
240647.775,250.315,-811.539,0,0
240908.1,247.01,-809.325,0,0
241168.425,243.688,-807.179,0,0
241428.75,240.272,-804.928,0,0
241689.075,237.073,-802.626,0,0
241949.4,233.784,-800.108,0,0
242209.725,230.842,-797.587,0,0
242470.05,227.974,-795.064,0,0
242730.375,225.22,-792.693,0,0
242990.7,222.543,-790.297,0,0
243251.025,219.894,-787.927,0,0
243511.35,217.353,-785.542,0,0
243771.675,214.871,-783.284,0,0
244032.0,212.469,-780.942,0,0
244292.325,210.042,-778.683,0,0
244552.65,207.703,-776.622,0,0
244812.975,205.266,-774.476,0,0
245073.3,202.887,-772.285,0,0
245333.625,200.48,-769.976,0,0
245593.95,198.192,-767.706,0,0
245854.275,195.833,-765.477,0,0
246114.6,193.499,-763.189,0,0
246374.925,191.224,-760.9,0,0
246635.25,188.914,-758.605,0,0
246895.575,186.701,-756.192,0,0
247155.9,184.517,-753.65,0,0
247416.225,182.457,-751.16,0,0
247676.55,180.466,-748.623,0,0
247936.875,178.561,-746.054,0,0
248197.2,176.713,-743.472,0,0
248457.525,174.98,-740.985,0,0
248717.85,173.273,-738.453,0,0
248978.175,171.677,-735.983,0,0
249238.5,170.066,-733.43,0,0
249498.825,168.505,-730.953,0,0
249759.15,167.028,-728.457,0,0
250019.475,165.611,-725.946,0,0
250279.8,164.213,-723.532,0,0
250540,162.897,-721.184,0,0
250800,161.519,-718.781,0,0
251061,160.214,-716.306,0,0
251321,158.819,-713.931,0,0
251581,157.648,-711.479,0,0
251842,156.438,-709.149,0,0
252102,155.207,-706.795,0,0
252362,154.03,-704.361,0,0
252623,152.839,-701.876,0,0
252883,151.726,-699.373,0,0
253143,150.659,-696.824,0,0
253404,149.655,-694.303,0,0
253664,148.688,-691.759,0,0
253924,147.872,-689.157,0,0
254185,147.05,-686.656,0,0
254445,146.322,-684.058,0,0
254705,145.697,-681.438,0,0
254966,145.17,-678.839,0,0
255226,144.73,-676.321,0,0
255486,144.338,-673.864,0,0
255747,144.021,-671.502,0,0
256007,143.704,-669.179,0,0
256267,143.384,-666.865,0,0
256528,143.048,-664.575,0,0
256788,142.741,-662.251,0,0
257048,142.527,-659.909,0,0
257309,142.357,-657.618,0,0
257569,142.199,-655.371,0,0
257829,142.045,-653.07,0,0
258090,141.946,-650.78,0,0
258350,141.894,-648.44,0,0
258610,141.909,-646.123,0,0
258871,141.997,-643.775,0,0
259131,142.201,-641.347,0,0
259391,142.604,-638.993,0,0
259651,143.061,-636.689,0,0
259912,143.638,-634.451,0,0
260172,144.293,-632.292,0,0
260432,145.082,-630.199,0,0
260693,145.906,-628.25,0,0
260953,146.809,-626.37,0,0
261213,147.749,-624.613,0,0
261474,148.723,-622.933,0,0
261734,149.696,-621.345,0,0
261994,150.755,-619.884,0,0
262255,151.812,-618.475,0,0
262515,152.874,-617.174,0,0
262775,153.987,-615.952,0,0
263036,155.089,-614.878,0,0
263296,156.181,-613.835,0,0
263556,157.285,-612.901,0,0
263817,158.414,-612.016,0,0
264077,159.548,-611.2,0,0
264337,160.681,-610.498,0,0
264598,161.842,-609.869,0,0
264858,163.005,-609.295,0,0
265118,164.237,-608.855,0,0
265379,165.575,-608.526,0,0
265639,166.984,-608.423,0,0
265899,168.353,-608.522,0,0
266160,169.724,-608.889,0,0
266420,170.962,-609.541,0,0
266680.25,172.007,-610.467,0,0
266940.575,172.819,-611.619,0,0
267200.9,173.341,-612.937,0,0
267461.225,173.546,-614.37,0,0
267721.55,173.396,-615.815,0,0
267981.875,172.986,-617.246,0,0
268242.2,172.283,-618.626,0,0
268502.525,171.309,-619.934,0,0
268762.85,170.027,-621.141,0,0
269023.175,168.527,-622.174,0,0
269283.5,166.726,-622.943,0,0
269543.825,164.767,-623.429,0,0
269804.15,162.75,-623.697,0,0
270064.475,160.671,-623.718,0,0
270324.8,158.475,-623.435,0,0
270585.125,156.38,-622.866,0,0
270845.45,154.26,-622.075,0,0
271105.775,152.364,-621.051,0,0
271366.1,150.473,-619.839,0,0
271626.425,148.718,-618.517,0,0
271886.75,147.114,-616.979,0,0
272147.075,145.647,-615.356,0,0
272407.4,144.339,-613.619,0,0
272667.725,143.189,-611.83,0,0
272928.05,142.179,-609.956,0,0
273188.375,141.362,-608.025,0,0
273448.7,140.741,-606.066,0,0
273709.025,140.261,-604.126,0,0
273969.35,139.988,-602.279,0,0
274229.675,139.866,-600.558,0,0
274490.0,139.801,-598.916,0,0
274750.325,139.795,-597.385,0,0
275010.65,139.806,-595.913,0,0
275270.975,139.758,-594.466,0,0
275531.3,139.853,-593.08,0,0
275791.625,139.964,-591.765,0,0
276051.95,140.068,-590.451,0,0
276312.275,140.227,-589.15,0,0
276572.6,140.425,-587.89,0,0
276832.925,140.676,-586.654,0,0
277093.25,141.018,-585.454,0,0
277353.575,141.427,-584.315,0,0
277613.9,141.951,-583.311,0,0
277874.225,142.487,-582.443,0,0
278134.55,142.975,-581.719,0,0
278394.875,143.421,-581.099,0,0
278655.2,143.789,-580.51,0,0
278915.525,144.119,-579.942,0,0
279175.85,144.437,-579.454,0,0
279436.175,144.755,-579.01,0,0
279696.5,145.026,-578.625,0,0
279956.825,145.26,-578.298,0,0
280217.15,145.406,-578.051,0,0
280477.475,145.518,-577.846,0,0
280737.8,145.549,-577.653,0,0
280998.125,145.515,-577.468,0,0
281258.45,145.453,-577.318,0,0
281518.775,145.331,-577.203,0,0
281779.1,145.128,-577.171,0,0
282039.425,144.764,-577.152,0,0
282299.75,144.27,-577.091,0,0
282560,143.647,-576.878,0,0
282820,143.006,-576.594,0,0
283081,142.385,-576.245,0,0
283341,141.711,-575.878,0,0
283601,140.961,-575.429,0,0
283862,140.211,-574.916,0,0
284122,139.414,-574.307,0,0
284382,138.651,-573.613,0,0
284643,137.878,-572.799,0,0
284903,137.173,-571.976,0,0
285163,136.509,-571.079,0,0
285424,135.933,-570.164,0,0
285684,135.356,-569.266,0,0
285944,134.774,-568.411,0,0
286205,134.159,-567.514,0,0
286465,133.488,-566.591,0,0
286725,132.745,-565.558,0,0
286986,132.007,-564.409,0,0
287246,131.324,-563.105,0,0
287506,130.741,-561.731,0,0
287767,130.232,-560.291,0,0
288027,129.78,-558.71,0,0
288287,129.477,-557.074,0,0
288548,129.336,-555.386,0,0
288808,129.373,-553.644,0,0
289068,129.643,-551.966,0,0
289329,130.109,-550.408,0,0
289589,130.662,-549.032,0,0
289849,131.263,-547.796,0,0
290109,131.909,-546.664,0,0
290370,132.507,-545.744,0,0
290630,133.123,-544.893,0,0
290890,133.711,-544.143,0,0
291151,134.216,-543.473,0,0
291411,134.683,-542.872,0,0
291671,135.092,-542.301,0,0
291932,135.463,-541.796,0,0
292192,135.761,-541.35,0,0
292452,135.982,-540.983,0,0
292713,136.049,-540.677,0,0
292973,135.977,-540.294,0,0
293233,135.79,-539.843,0,0
293494,135.5,-539.297,0,0
293754,135.113,-538.63,0,0
294014,134.68,-537.796,0,0
294275,134.241,-536.767,0,0
294535,133.872,-535.525,0,0
294795,133.624,-534.132,0,0
295056,133.558,-532.598,0,0
295316,133.708,-531.025,0,0
295576,134.061,-529.392,0,0
295837,134.601,-527.841,0,0
296097,135.302,-526.368,0,0
296357,136.188,-524.983,0,0
296618,137.167,-523.737,0,0
296878,138.205,-522.669,0,0
297138,139.239,-521.729,0,0
297399,140.277,-520.927,0,0
297659,141.24,-520.213,0,0
297919,142.147,-519.488,0,0
298180,143.065,-518.784,0,0
298440,144.006,-518.069,0,0
298700.2,144.983,-517.406,0,0
298960.525,146.053,-516.755,0,0
299220.85,147.055,-516.22,0,0
299481.175,148.107,-515.657,0,0
299741.5,149.218,-515.194,0,0
300001.825,150.289,-514.854,0,0
300262.15,151.403,-514.456,0,0
300522.475,152.468,-514.135,0,0
300782.8,153.502,-513.8,0,0
301043.125,154.672,-513.524,0,0
301303.45,155.845,-513.257,0,0
301563.775,157.146,-512.898,0,0
301824.1,158.523,-512.776,0,0
302084.425,159.954,-512.84,0,0
302344.75,161.373,-512.907,0,0
302605.075,162.789,-513.183,0,0
302865.4,164.238,-513.636,0,0
303125.725,165.504,-514.263,0,0
303386.05,166.763,-514.902,0,0
303646.375,167.863,-515.692,0,0
303906.7,168.852,-516.545,0,0
304167.025,169.835,-517.312,0,0
304427.35,170.704,-518.176,0,0
304687.675,171.545,-519.035,0,0
304948.0,172.332,-519.925,0,0
305208.325,173.039,-520.836,0,0
305468.65,173.675,-521.846,0,0
305728.975,174.411,-522.777,0,0
305989.3,174.982,-523.786,0,0
306249.625,175.622,-524.86,0,0
306509.95,176.28,-525.92,0,0
306770.275,176.794,-527.147,0,0
307030.6,177.259,-528.516,0,0
307290.925,177.64,-529.953,0,0
307551.25,177.925,-531.322,0,0
307811.575,177.978,-532.836,0,0
308071.9,178.035,-534.357,0,0
308332.225,177.898,-535.814,0,0
308592.55,177.685,-537.283,0,0
308852.875,177.243,-538.659,0,0
309113.2,176.843,-539.964,0,0
309373.525,176.337,-541.263,0,0
309633.85,175.805,-542.419,0,0
309894.175,175.293,-543.542,0,0
310154.5,174.827,-544.651,0,0
310414.825,174.382,-545.702,0,0
310675.15,173.907,-546.914,0,0
310935.475,173.368,-548.234,0,0
311195.8,172.704,-549.561,0,0
311456.125,171.952,-550.916,0,0
311716.45,171.083,-552.275,0,0
311976.775,170.154,-553.584,0,0
312237.1,168.933,-554.912,0,0
312497.425,167.764,-556.148,0,0
312757.75,166.391,-557.348,0,0
313018.075,164.95,-558.539,0,0
313278.4,163.443,-559.491,0,0
313538.725,161.769,-560.396,0,0
313799.05,160.069,-561.071,0,0
314059.375,158.341,-561.711,0,0
314319.7,156.735,-562.201,0,0
314580,155.077,-562.568,0,0
314840,153.442,-562.845,0,0
315101,151.92,-563.072,0,0
315361,150.352,-563.286,0,0
315621,148.798,-563.473,0,0
315882,147.343,-563.642,0,0
316142,145.781,-563.845,0,0
316402,144.285,-563.951,0,0
316663,142.631,-564.084,0,0
316923,141.122,-564.047,0,0
317183,139.581,-564.032,0,0
317444,137.901,-563.891,0,0
317704,136.418,-563.69,0,0
317964,134.864,-563.594,0,0
318225,133.327,-563.352,0,0
318485,131.659,-563.121,0,0
318745,130.074,-562.691,0,0
319006,128.52,-562.25,0,0
319266,127.024,-561.871,0,0
319526,125.445,-561.337,0,0
319787,123.899,-560.753,0,0
320047,122.467,-560.165,0,0
320307,120.952,-559.43,0,0
320567,119.467,-558.662,0,0
320828,118.118,-557.845,0,0
321088,116.725,-556.975,0,0
321348,115.481,-556.045,0,0
321609,114.272,-555.141,0,0
321869,113.087,-554.227,0,0
322129,111.985,-553.235,0,0
322390,110.898,-552.27,0,0
322650,109.857,-551.243,0,0
322910,108.851,-550.183,0,0
323171,107.934,-549.16,0,0
323431,106.951,-548.009,0,0
323691,106.211,-546.889,0,0
323952,105.468,-545.743,0,0
324212,104.732,-544.613,0,0
324472,104.187,-543.507,0,0
324733,103.639,-542.431,0,0
324993,103.169,-541.434,0,0
325253,102.74,-540.446,0,0
325514,102.406,-539.478,0,0
325774,102.077,-538.633,0,0
326034,101.715,-537.737,0,0
326295,101.403,-536.833,0,0
326555,101.023,-536.115,0,0
326815,100.702,-535.367,0,0
327076,100.443,-534.653,0,0
327336,100.099,-533.894,0,0
327596,99.8254,-533.214,0,0
327857,99.5563,-532.589,0,0
328117,99.3176,-532.013,0,0
328377,99.1635,-531.378,0,0
328638,98.8234,-530.921,0,0
328898,98.5806,-530.401,0,0
329158,98.3239,-529.873,0,0
329419,98.0352,-529.489,0,0
329679,97.7368,-529.125,0,0
329939,97.4101,-528.698,0,0
330200,97.0049,-528.405,0,0
330460,96.641,-528.075,0,0
330720.15,96.1791,-527.842,0,0
330980.475,95.7547,-527.498,0,0
331240.8,95.2341,-527.221,0,0
331501.125,94.6791,-526.925,0,0
331761.45,94.0817,-526.687,0,0
332021.775,93.4608,-526.276,0,0
332282.1,92.8414,-525.954,0,0
332542.425,92.2116,-525.593,0,0
332802.75,91.4404,-525.237,0,0
333063.075,90.7842,-524.816,0,0
333323.4,90.0784,-524.348,0,0
333583.725,89.3591,-523.891,0,0
333844.05,88.6305,-523.489,0,0
334104.375,87.9488,-522.993,0,0
334364.7,87.2306,-522.456,0,0
334625.025,86.4978,-521.965,0,0
334885.35,85.7502,-521.367,0,0
335145.675,84.9757,-520.745,0,0
335406.0,84.1883,-520.206,0,0
335666.325,83.4383,-519.631,0,0
335926.65,82.7179,-518.922,0,0
336186.975,81.977,-518.224,0,0
336447.3,81.2328,-517.572,0,0
336707.625,80.5601,-516.853,0,0
336967.95,79.8415,-516.093,0,0
337228.275,79.1602,-515.337,0,0
337488.6,78.5088,-514.639,0,0
337748.925,77.854,-513.815,0,0
338009.25,77.1883,-513.02,0,0
338269.575,76.567,-512.208,0,0
338529.9,76.0177,-511.494,0,0
338790.225,75.3833,-510.68,0,0
339050.55,74.7867,-509.857,0,0
339310.875,74.2108,-508.966,0,0
339571.2,73.6517,-508.202,0,0
339831.525,73.1194,-507.333,0,0
340091.85,72.5222,-506.498,0,0
340352.175,72.0835,-505.659,0,0
340612.5,71.5988,-504.754,0,0
340872.825,71.1321,-503.965,0,0
341133.15,70.7342,-503.111,0,0
341393.475,70.3149,-502.331,0,0
341653.8,69.8611,-501.545,0,0
341914.125,69.3931,-500.716,0,0
342174.45,68.9421,-499.926,0,0
342434.775,68.5388,-499.079,0,0
342695.1,68.0498,-498.27,0,0
342955.425,67.6295,-497.492,0,0
343215.75,67.2049,-496.593,0,0
343476.075,66.7914,-495.831,0,0
343736.4,66.3438,-495.018,0,0
343996.725,65.9694,-494.187,0,0
344257.05,65.5275,-493.388,0,0
344517.375,65.1074,-492.516,0,0
344777.7,64.6477,-491.74,0,0
345038.025,64.2501,-490.841,0,0
345298.35,63.8558,-489.984,0,0
345558.675,63.4362,-489.118,0,0
345819.0,63.0467,-488.309,0,0
346079.325,62.6534,-487.402,0,0
346339.65,62.2776,-486.41,0,0
346599.975,61.9192,-485.506,0,0
346860,61.551,-484.658,0,0
347121,61.2686,-483.703,0,0
347381,60.8949,-482.809,0,0
347641,60.6245,-481.86,0,0
347902,60.3081,-480.955,0,0
348162,59.9981,-479.954,0,0
348422,59.7957,-479.042,0,0
348683,59.58,-478.043,0,0
348943,59.3774,-477.121,0,0
349203,59.1623,-476.141,0,0
349464,58.9874,-475.198,0,0
349724,58.8438,-474.34,0,0
349984,58.7482,-473.41,0,0
350245,58.5844,-472.509,0,0
350505,58.4613,-471.664,0,0
350765,58.2804,-470.772,0,0
351025,58.2249,-469.911,0,0
351286,58.1226,-468.98,0,0
351546,58.0336,-468.127,0,0
351806,57.9256,-467.253,0,0
352067,57.8179,-466.441,0,0
352327,57.7766,-465.615,0,0
352587,57.7078,-464.751,0,0
352848,57.6038,-463.96,0,0
353108,57.5659,-463.193,0,0
353368,57.4807,-462.358,0,0
353629,57.4339,-461.543,0,0
353889,57.3322,-460.714,0,0
354149,57.2894,-459.947,0,0
354410,57.1847,-459.148,0,0
354670,57.1871,-458.341,0,0
354930,57.1092,-457.567,0,0
355191,57.0678,-456.746,0,0
355451,56.9925,-455.904,0,0
355711,56.9769,-455.092,0,0
355972,56.9125,-454.295,0,0
356232,56.8977,-453.446,0,0
356492,56.896,-452.677,0,0
356753,56.9201,-451.879,0,0
357013,56.911,-451.103,0,0
357273,56.9831,-450.333,0,0
357534,56.9927,-449.546,0,0
357794,57.0229,-448.853,0,0
358054,57.0565,-448.094,0,0
358315,57.0883,-447.323,0,0
358575,57.0948,-446.653,0,0
358835,57.0981,-445.876,0,0
359096,57.1673,-445.175,0,0
359356,57.1728,-444.43,0,0
359616,57.1765,-443.696,0,0
359877,57.2429,-443.004,0,0
360137,57.27,-442.232,0,0
360397,57.3539,-441.502,0,0
360658,57.4248,-440.773,0,0
360918,57.4819,-440,0,0
361178,57.5506,-439.331,0,0
361438,57.6051,-438.648,0,0
361699,57.7005,-437.957,0,0
361959,57.7564,-437.299,0,0
362219,57.8245,-436.623,0,0
362480,57.8585,-435.976,0,0
362740.1,57.8384,-435.265,0,0
363000.425,57.9453,-434.553,0,0
363260.75,58.0231,-433.838,0,0
363521.075,58.0713,-433.123,0,0
363781.4,58.1866,-432.411,0,0
364041.725,58.2289,-431.725,0,0
364302.05,58.3198,-431.046,0,0
364562.375,58.4426,-430.316,0,0
364822.7,58.5175,-429.694,0,0
365083.025,58.6876,-429.014,0,0
365343.35,58.7874,-428.33,0,0
365603.675,58.8439,-427.693,0,0
365864.0,58.978,-426.99,0,0
366124.325,59.0317,-426.325,0,0
366384.65,59.139,-425.692,0,0
366644.975,59.1744,-425.017,0,0
366905.3,59.237,-424.335,0,0
367165.625,59.3389,-423.654,0,0
367425.95,59.3547,-422.941,0,0
367686.275,59.4116,-422.237,0,0
367946.6,59.4659,-421.473,0,0
368206.925,59.497,-420.717,0,0
368467.25,59.5721,-419.892,0,0
368727.575,59.6629,-419.023,0,0
368987.9,59.7823,-418.091,0,0
369248.225,59.9605,-417.227,0,0
369508.55,60.1986,-416.274,0,0
369768.875,60.5039,-415.324,0,0
370029.2,60.8466,-414.411,0,0
370289.525,61.2906,-413.474,0,0
370549.85,61.7583,-412.528,0,0
370810.175,62.2416,-411.684,0,0
371070.5,62.865,-410.863,0,0
371330.825,63.4874,-410.1,0,0
371591.15,64.1508,-409.363,0,0
371851.475,64.8066,-408.699,0,0
372111.8,65.5073,-408.05,0,0
372372.125,66.2081,-407.509,0,0
372632.45,66.9556,-406.967,0,0
372892.775,67.6322,-406.538,0,0
373153.1,68.3707,-406.135,0,0
373413.425,69.0743,-405.789,0,0
373673.75,69.8131,-405.426,0,0
373934.075,70.5127,-405.166,0,0
374194.4,71.1851,-404.978,0,0
374454.725,71.836,-404.745,0,0
374715.05,72.4871,-404.653,0,0
374975.375,73.0832,-404.535,0,0
375235.7,73.6205,-404.486,0,0
375496.025,74.1145,-404.456,0,0
375756.35,74.6401,-404.354,0,0
376016.675,75.1155,-404.373,0,0
376277.0,75.5226,-404.339,0,0
376537.325,75.9193,-404.317,0,0
376797.65,76.3156,-404.284,0,0
377057.975,76.6638,-404.289,0,0
377318.3,76.9893,-404.251,0,0
377578.625,77.3786,-404.237,0,0
377838.95,77.7443,-404.179,0,0
378099.275,78.0618,-404.197,0,0
378359.6,78.3833,-404.219,0,0
378619.925,78.7214,-404.28,0,0
378880,78.9782,-404.317,0,0
379141,79.2039,-404.363,0,0
379401,79.5029,-404.409,0,0
379661,79.7103,-404.428,0,0
379922,79.9664,-404.431,0,0
380182,80.1313,-404.473,0,0
380442,80.4424,-404.381,0,0
380703,80.7338,-404.429,0,0
380963,81.12,-404.463,0,0
381223,81.5649,-404.599,0,0
381483,81.9452,-404.768,0,0
381744,82.2877,-405.069,0,0
382004,82.6194,-405.472,0,0
382264,82.8214,-405.97,0,0
382525,82.9399,-406.451,0,0
382785,82.9317,-406.939,0,0
383045,82.8852,-407.401,0,0
383306,82.7472,-407.875,0,0
383566,82.5683,-408.302,0,0
383826,82.3388,-408.748,0,0
384087,82.0394,-409.137,0,0
384347,81.6805,-409.459,0,0
384607,81.2556,-409.796,0,0
384868,80.7974,-410.117,0,0
385128,80.2866,-410.288,0,0
385388,79.8326,-410.486,0,0
385649,79.2976,-410.649,0,0
385909,78.7344,-410.75,0,0
386169,78.1397,-410.854,0,0
386430,77.5797,-410.894,0,0
386690,76.9482,-410.86,0,0
386950,76.2849,-410.751,0,0
387211,75.6876,-410.668,0,0
387471,75.0212,-410.481,0,0
387731,74.4078,-410.193,0,0
387992,73.7953,-409.893,0,0
388252,73.2245,-409.541,0,0
388512,72.6811,-409.142,0,0
388773,72.2312,-408.734,0,0
389033,71.8014,-408.272,0,0
389293,71.4736,-407.871,0,0
389554,71.0867,-407.475,0,0
389814,70.7495,-407.033,0,0
390074,70.4486,-406.658,0,0
390335,70.1436,-406.285,0,0
390595,69.8952,-405.911,0,0
390855,69.6069,-405.558,0,0
391116,69.3332,-405.265,0,0
391376,69.0494,-404.942,0,0
391636,68.7845,-404.647,0,0
391896,68.4454,-404.33,0,0
392157,68.1401,-404.029,0,0
392417,67.7878,-403.74,0,0
392677,67.4559,-403.439,0,0
392938,67.104,-403.117,0,0
393198,66.6998,-402.856,0,0
393458,66.2898,-402.517,0,0
393719,65.86,-402.144,0,0
393979,65.4211,-401.835,0,0
394239,64.9528,-401.394,0,0
394500,64.4992,-400.998,0,0
394760.05,64.0193,-400.553,0,0
395020.375,63.5551,-400.037,0,0
395280.7,63.0968,-399.555,0,0
395541.025,62.6488,-398.965,0,0
395801.35,62.2008,-398.379,0,0
396061.675,61.7787,-397.766,0,0
396322.0,61.3935,-397.141,0,0
396582.325,61.0427,-396.481,0,0
396842.65,60.7377,-395.783,0,0
397102.975,60.4118,-395.13,0,0
397363.3,60.1265,-394.435,0,0
397623.625,59.8573,-393.775,0,0
397883.95,59.6047,-393.107,0,0
398144.275,59.381,-392.418,0,0
398404.6,59.1503,-391.8,0,0
398664.925,58.9707,-391.098,0,0
398925.25,58.733,-390.452,0,0
399185.575,58.5414,-389.782,0,0
399445.9,58.383,-389.118,0,0
399706.225,58.1798,-388.424,0,0
399966.55,58.0063,-387.671,0,0
400006.6,58.0063,-387.588,0,0