File: Accelerated corrosion test data/2025-10-12_06-00-03/sample_2.csv
Frequency (Hz),Impedance (ohms),Phase (Radians),Temperature (C),Humidity (%)
10000.0,234.256,-11403.1,0,0
10260.325,228.145,-11116.2,0,0
10520.65,222.633,-10843,0,0
10780.975,217.654,-10583.3,0,0
11041.3,212.683,-10336.7,0,0
11301.625,207.754,-10099.3,0,0
11561.95,203.957,-9873.15,0,0
11822.275,202.854,-9664.09,0,0
12082.6,196.698,-9453.95,0,0
12342.925,191.343,-9258.08,0,0
12603.25,186.61,-9067.26,0,0
12863.575,183.689,-8884.39,0,0
13123.9,180.937,-8710.87,0,0
13384.225,176.631,-8541.01,0,0
13644.55,173.833,-8375.91,0,0
13904.875,187.806,-8220.25,0,0
14165.2,168.81,-8078.35,0,0
14425.525,164.791,-7930.74,0,0
14685.8,165.982,-7785.36,0,0
14946.175,162.681,-7656.16,0,0
15206.5,167.661,-7532.9,0,0
15466.825,162.947,-7398.69,0,0
15727.15,154.462,-7287.22,0,0
15987.5,150.699,-7165.94,0,0
16247.8,150.921,-7050.93,0,0
16508.125,145.885,-6942.04,0,0
16768.45,143.146,-6833.73,0,0
17028.775,141.951,-6729.86,0,0
17289.1,140.595,-6629.57,0,0
17549.425,136.802,-6530.73,0,0
17809.75,135.53,-6435.52,0,0
18070.075,132.851,-6343.36,0,0
18330.4,131.589,-6252.67,0,0
18590.725,130.22,-6164.04,0,0
18851.05,129.069,-6078.91,0,0
19111.375,130.368,-5996.64,0,0
19371.7,130.398,-5918.88,0,0
19632.025,125.211,-5841.87,0,0
19892.35,122.682,-5764.21,0,0
20152.675,120.805,-5688.65,0,0
20413.0,119.944,-5614.71,0,0
20673.3,119.005,-5542.36,0,0
20933.65,119.705,-5471.2,0,0
21193.975,124.752,-5403.7,0,0
21454.3,131.214,-5340.64,0,0
21714.625,129.199,-5285.95,0,0
21974.9,122.336,-5221.83,0,0
22235.275,120.785,-5167.19,0,0
22495.6,116.405,-5107.03,0,0
22755.925,113.194,-5046.21,0,0
23016.25,114.041,-4990.67,0,0
23276.6,113.958,-4935.84,0,0
23536.9,109.793,-4880.81,0,0
23797.225,108.192,-4827.23,0,0
24057.55,107.983,-4776.64,0,0
24317.875,104.743,-4725.92,0,0
24578.2,102.605,-4674.85,0,0
24838.525,101.318,-4624.73,0,0
25098.85,100.219,-4575.69,0,0
25359.175,99.1773,-4529.14,0,0
25619.5,98.9566,-4482.5,0,0
25879.8,97.5854,-4436.5,0,0
26140.1,97.6575,-4392.35,0,0
26400.5,96.9504,-4348.52,0,0
26660.8,97.5541,-4306.69,0,0
26921.1,95.8065,-4264.79,0,0
27181.4,95.3624,-4224.93,0,0
27441.8,93.1503,-4185.09,0,0
27702.1,91.9416,-4144.76,0,0
27962.4,91.0083,-4104.49,0,0
28222.7,91.3832,-4066.07,0,0
28483.1,90.2995,-4028.58,0,0
28743.4,90.3088,-3991.06,0,0
29003.7,91.3081,-3953.58,0,0
29264,91.1783,-3918.39,0,0
29524.4,93.9362,-3882.6,0,0
29784.7,97.1736,-3853.22,0,0
30045,93.7079,-3822.09,0,0
30305.3,94.6978,-3788.74,0,0
30565.7,91.8432,-3761.2,0,0
30826,88.9485,-3728.51,0,0
31086.3,87.6945,-3696.58,0,0
31346.6,85.7859,-3665.63,0,0
31607,85.9402,-3634.58,0,0
31867.3,84.0185,-3605.57,0,0
32127.6,82.99,-3575.1,0,0
32387.9,82.9695,-3545.01,0,0
32648.3,84.0969,-3517.05,0,0
32908.6,83.8081,-3490.83,0,0
33168.9,82.5558,-3463.91,0,0
33429.2,80.5308,-3436.84,0,0
33689.6,80.3158,-3409.8,0,0
33949.9,79.5637,-3383.78,0,0
34210.2,77.8335,-3358.25,0,0
34470.5,77.1037,-3331.73,0,0
34730.9,76.3981,-3306.46,0,0
34991.2,75.8481,-3281.13,0,0
35251.5,75.3015,-3256.78,0,0
35511.8,74.9114,-3232.46,0,0
35772.2,74.5908,-3208.7,0,0
36032.5,73.8801,-3185.39,0,0
36292.8,73.4246,-3162.14,0,0
36553.1,72.7152,-3139.1,0,0
36813.5,72.4701,-3116.4,0,0
37073.8,72.2168,-3094.28,0,0
37334.1,71.7834,-3072.05,0,0
37594.4,71.4037,-3050.46,0,0
37854.8,70.8905,-3029.32,0,0
38115.1,70.7078,-3008.5,0,0
38375.4,69.8512,-2987.92,0,0
38635.7,69.432,-2967.28,0,0
38896.1,69.2995,-2946.88,0,0
39156.4,68.6932,-2927.05,0,0
39416.7,68.3354,-2907.37,0,0
39677,67.9902,-2887.9,0,0
39937.4,67.7365,-2868.58,0,0
40197.7,67.1052,-2849.56,0,0
40458,66.8183,-2830.73,0,0
40718.3,66.7477,-2811.82,0,0
40978.7,66.6687,-2794.25,0,0
41239,66.1202,-2775.81,0,0
41499.3,66.1364,-2758.05,0,0
41759.6,65.7835,-2740.6,0,0
42020,65.4212,-2723.4,0,0
42280.275,65.7877,-2706.15,0,0
42540.6,64.9494,-2689.49,0,0
42800.925,64.8251,-2673.05,0,0
43061.25,64.2235,-2656.35,0,0
43321.575,64.1723,-2639.91,0,0
43581.9,63.8613,-2623.56,0,0
43842.225,63.6989,-2607.77,0,0
44102.55,63.2514,-2591.67,0,0
44362.875,63.2872,-2576.3,0,0
44623.2,63.0579,-2561,0,0
44883.525,62.4391,-2545.64,0,0
45143.85,62.4088,-2530.22,0,0
45404.175,62.5663,-2515.31,0,0
45664.5,62.1999,-2500.84,0,0
45924.825,61.9994,-2486.02,0,0
46185.15,62.1267,-2471.69,0,0
46445.475,61.9618,-2457.86,0,0
46705.8,61.3206,-2443.83,0,0
46966.125,61.136,-2429.36,0,0
47226.45,61.0983,-2415.3,0,0
47486.775,61.2084,-2402.22,0,0
47747.1,60.9325,-2388.92,0,0
48007.425,60.9367,-2374.95,0,0
48267.75,61.1919,-2361.56,0,0
48528.075,62.2066,-2349.38,0,0
48788.4,61.3679,-2337.31,0,0
49048.725,60.8156,-2324.91,0,0
49309.05,60.4637,-2312.39,0,0
49569.375,59.8171,-2300.13,0,0
49829.7,59.1793,-2287.75,0,0
50090.025,58.8416,-2275.32,0,0
50350.35,58.28,-2262.99,0,0
50610.675,58.2287,-2250.53,0,0
50871.0,58.0674,-2238.63,0,0
51131.325,57.9304,-2227.01,0,0
51391.65,57.5365,-2215.45,0,0
51651.975,56.9402,-2203.93,0,0
51912.3,56.6225,-2192.39,0,0
52172.625,56.1652,-2180.87,0,0
52432.95,56.0615,-2169.39,0,0
52693.275,55.7591,-2158.18,0,0
52953.6,55.5996,-2146.89,0,0
53213.925,55.2449,-2135.7,0,0
53474.25,55.2361,-2124.66,0,0
53734.575,54.9539,-2113.85,0,0
53994.9,54.7903,-2103,0,0
54255.225,54.7571,-2092.23,0,0
54515.55,54.6285,-2081.7,0,0
54775.875,54.6249,-2071.31,0,0
55036.2,54.4452,-2060.95,0,0
55296.525,54.4084,-2050.57,0,0
55556.85,54.28,-2040.39,0,0
55817.175,54.3013,-2030.17,0,0
56077.5,54.238,-2020.26,0,0
56337.825,54.1641,-2010.45,0,0
56598.15,54.1131,-2000.5,0,0
56858.475,54.1438,-1990.72,0,0
57118.8,54.2782,-1981.04,0,0
57379.125,54.2929,-1971.57,0,0
57639.45,54.2847,-1962.14,0,0
57899.775,54.365,-1952.69,0,0
58160.1,54.4793,-1943.5,0,0
58420.4,54.3084,-1934.29,0,0
58680.7,54.1922,-1925,0,0
58941.1,54.4305,-1915.68,0,0
59201.4,54.6319,-1906.73,0,0
59461.7,54.8345,-1897.55,0,0
59722,55.1744,-1888.7,0,0
59982.4,55.6669,-1879.72,0,0
60242.7,56.5454,-1871.63,0,0
60503,56.7531,-1863.61,0,0
60763.3,56.5293,-1855.24,0,0
61023.7,56.851,-1846.68,0,0
61284,57.5568,-1838.33,0,0
61544.3,58.3647,-1830.76,0,0
61804.6,58.8874,-1823.44,0,0
62065,59.1915,-1816.73,0,0
62325.3,58.366,-1809.73,0,0
62585.6,58.0068,-1802.03,0,0
62845.9,57.8741,-1794.74,0,0
63106.3,57.3153,-1787.95,0,0
63366.6,56.0273,-1780.51,0,0
63626.9,55.1894,-1772.7,0,0
63887.2,54.7727,-1765.01,0,0
64147.6,54.1917,-1757.4,0,0
64407.9,53.4585,-1749.76,0,0
64668.2,53.1173,-1741.98,0,0
64928.5,52.6869,-1734.79,0,0
65188.9,51.8101,-1727.28,0,0
65449.2,50.9799,-1719.09,0,0
65709.5,50.7834,-1711.02,0,0
65969.8,50.8519,-1702.98,0,0
66230.2,51.0613,-1695.57,0,0
66490.5,51.2884,-1688.01,0,0
66750.8,51.3433,-1680.91,0,0
67011.1,51.1911,-1673.5,0,0
67271.5,51.4185,-1665.86,0,0
67531.8,52.1052,-1658.61,0,0
67792.1,52.6262,-1651.68,0,0
68052.4,53.2976,-1644.87,0,0
68312.8,53.7822,-1638.45,0,0
68573.1,53.8777,-1632.17,0,0
68833.4,54.0783,-1625.32,0,0
69093.7,54.9402,-1618.83,0,0
69354.1,55.4079,-1613.12,0,0
69614.4,55.5808,-1607.26,0,0
69874.7,56.1354,-1601.46,0,0
70135,56.0138,-1596.52,0,0
70395.4,55.6299,-1591.08,0,0
70655.7,54.6309,-1585.89,0,0
70916,53.4165,-1579.82,0,0
71176.3,52.7862,-1573.7,0,0
71436.7,52.0911,-1567.68,0,0
71697,51.4598,-1561.58,0,0
71957.3,50.6089,-1556.02,0,0
72217.6,49.3038,-1549.91,0,0
72478,48.0667,-1543.19,0,0
72738.3,47.3951,-1536.56,0,0
72998.6,46.7888,-1529.77,0,0
73258.9,46.6643,-1523.32,0,0
73519.3,46.1078,-1517.01,0,0
73779.6,45.6024,-1510.46,0,0
74039.9,45.3006,-1503.84,0,0
74300.225,45.2817,-1497.29,0,0
74560.55,45.3487,-1490.87,0,0
74820.875,45.3491,-1484.58,0,0
75081.2,45.4829,-1478.17,0,0
75341.525,45.7063,-1472.02,0,0
75601.85,45.9603,-1465.85,0,0
75862.175,46.2187,-1459.73,0,0
76122.5,46.6709,-1453.73,0,0
76382.825,47.0796,-1447.83,0,0
76643.15,47.5847,-1442.06,0,0
76903.475,47.973,-1436.31,0,0
77163.8,48.4544,-1430.61,0,0
77424.125,49.1298,-1424.96,0,0
77684.45,49.8878,-1419.57,0,0
77944.775,50.5618,-1414.27,0,0
78205.1,51.3944,-1409.22,0,0
78465.425,52.1972,-1404.39,0,0
78725.75,52.8144,-1399.82,0,0
78986.075,53.2067,-1395.27,0,0
79246.4,53.5213,-1391.03,0,0
79506.725,53.6426,-1386.82,0,0
79767.05,53.4215,-1382.67,0,0
80027.375,52.9606,-1378.53,0,0
80287.7,52.0371,-1373.98,0,0
80548.025,51.3887,-1369.05,0,0
80808.35,50.7799,-1364.1,0,0
81068.675,50.2323,-1359,0,0
81329.0,49.7484,-1353.96,0,0
81589.325,49.4562,-1348.87,0,0
81849.65,49.0968,-1343.81,0,0
82109.975,48.8138,-1338.69,0,0
82370.3,48.636,-1333.56,0,0
82630.625,48.3745,-1328.42,0,0
82890.95,48.3552,-1323.28,0,0
83151.275,48.3603,-1318.11,0,0
83411.6,48.5012,-1313.12,0,0
83671.925,48.6274,-1308.19,0,0
83932.25,48.8005,-1303.32,0,0
84192.575,48.983,-1298.47,0,0
84452.9,49.1561,-1293.86,0,0
84713.225,49.3549,-1289.13,0,0
84973.55,49.3689,-1284.5,0,0
85233.875,49.5606,-1279.79,0,0
85494.2,49.7454,-1275.07,0,0
85754.525,50.0894,-1270.39,0,0
86014.85,50.4724,-1266,0,0
86275.175,50.6679,-1261.63,0,0
86535.5,50.9214,-1257.41,0,0
86795.825,50.8396,-1253.13,0,0
87056.15,51.0679,-1248.72,0,0
87316.475,51.2457,-1244.38,0,0
87576.8,51.5207,-1240.27,0,0
87837.125,51.4461,-1236.24,0,0
88097.45,51.3441,-1231.91,0,0
88357.775,51.4309,-1227.76,0,0
88618.1,51.6649,-1223.65,0,0
88878.425,51.301,-1219.59,0,0
89138.75,50.9813,-1214.9,0,0
89399.075,51.4444,-1210.42,0,0
89659.4,51.6781,-1206.14,0,0
89919.725,52.119,-1202.07,0,0
90180,52.3775,-1198.31,0,0
90440.4,52.1691,-1194.45,0,0
90700.7,51.8053,-1190.38,0,0
90961,51.7282,-1185.75,0,0
91221.3,52.2547,-1181.21,0,0
91481.7,52.7231,-1177.29,0,0
91742,52.8686,-1173.51,0,0
92002.3,52.9839,-1169.29,0,0
92262.6,53.4478,-1165.07,0,0
92523,54.1956,-1161.2,0,0
92783.3,54.6114,-1157.53,0,0
93043.6,54.9517,-1153.8,0,0
93303.9,55.4885,-1150.24,0,0
93564.3,55.9235,-1146.89,0,0
93824.6,56.2318,-1143.6,0,0
94084.9,56.3378,-1140.57,0,0
94345.2,56.0036,-1137.35,0,0
94605.6,55.4907,-1133.72,0,0
94865.9,55.5584,-1129.81,0,0
95126.2,55.5785,-1126.49,0,0
95386.5,55.0869,-1122.93,0,0
95646.9,54.6733,-1118.99,0,0
95907.2,54.6637,-1114.61,0,0
96167.5,55.2884,-1110.32,0,0
96427.8,56.2953,-1106.6,0,0
96688.2,57.0709,-1103.51,0,0
96948.5,57.362,-1100.31,0,0
97208.8,57.9209,-1097.09,0,0
97469.1,58.6021,-1094.3,0,0
97729.5,58.7071,-1091.9,0,0
97989.8,58.5546,-1089.19,0,0
98250.1,58.2195,-1086.49,0,0
98510.4,57.9056,-1083.48,0,0
98770.8,57.8417,-1080.71,0,0
99031.1,57.3321,-1078.24,0,0
99291.4,56.4677,-1075.68,0,0
99551.7,55.1519,-1072.8,0,0
99812.1,53.7916,-1069.3,0,0
100072,52.8339,-1065.4,0,0
100333,52.3068,-1061.5,0,0
100593,52.0989,-1057.94,0,0
100853,51.5377,-1054.75,0,0
101114,50.6879,-1051.35,0,0
101374,49.8145,-1047.74,0,0
101634,48.8493,-1044.02,0,0
101895,47.9972,-1039.89,0,0
102155,47.4716,-1035.66,0,0
102415,47.1474,-1031.46,0,0
102676,46.8487,-1027.39,0,0
102936,46.5193,-1023.25,0,0
103196,46.3228,-1018.99,0,0
103457,46.3285,-1014.77,0,0
103717,46.3389,-1010.54,0,0
103977,46.5487,-1006.1,0,0
104238,47.0364,-1001.84,0,0
104498,47.6897,-997.636,0,0
104758,48.5656,-993.668,0,0
105019,49.5089,-989.943,0,0
105279,50.3303,-986.418,0,0
105539,51.1298,-982.845,0,0
105800,52.1165,-979.269,0,0
106060,53.2719,-976.01,0,0
106320.175,54.4129,-973.104,0,0
106580.5,55.4299,-970.295,0,0
106840.825,56.3885,-967.798,0,0
107101.15,57.0232,-965.527,0,0
107361.475,57.4387,-963.174,0,0
107621.8,57.6952,-960.961,0,0
107882.125,57.8394,-958.711,0,0
108142.45,57.8005,-956.621,0,0
108402.775,57.1439,-954.357,0,0
108663.1,56.5776,-951.546,0,0
108923.425,56.2655,-948.825,0,0
109183.75,55.77,-946.186,0,0
109444.075,55.0658,-943.254,0,0
109704.4,54.4392,-940.15,0,0
109964.725,53.857,-937.093,0,0
110225.05,53.1987,-933.74,0,0
110485.375,52.716,-930.252,0,0
110745.7,52.3755,-926.757,0,0
111006.025,52.0807,-923.226,0,0
111266.35,51.8976,-919.565,0,0
111526.675,51.9259,-915.946,0,0
111787.0,51.8799,-912.571,0,0
112047.325,51.9835,-908.949,0,0
112307.65,52.1972,-905.428,0,0
112567.975,52.3141,-902.021,0,0
112828.3,52.4421,-898.529,0,0
113088.625,52.6885,-895.029,0,0
113348.95,52.9905,-891.576,0,0
113609.275,53.4333,-888.092,0,0
113869.6,53.8052,-884.831,0,0
114129.925,54.2055,-881.462,0,0
114390.25,54.6854,-878.09,0,0
114650.575,55.1881,-874.848,0,0
114910.9,55.6946,-871.524,0,0
115171.225,56.2845,-868.23,0,0
115431.55,56.9681,-865.063,0,0
115691.875,57.6306,-861.948,0,0
115952.2,58.2865,-858.845,0,0
116212.525,58.9777,-855.794,0,0
116472.85,59.6784,-852.711,0,0
116733.175,60.5312,-849.778,0,0
116993.5,61.3271,-846.991,0,0
117253.825,62.0449,-844.213,0,0
117514.15,62.7405,-841.419,0,0
117774.475,63.541,-838.598,0,0
118034.8,64.4579,-835.91,0,0
118295.125,65.3768,-833.454,0,0
118555.45,66.0746,-831.108,0,0
118815.775,66.7672,-828.671,0,0
119076.1,67.5644,-826.315,0,0
119336.425,68.1761,-824.196,0,0
119596.75,68.6649,-821.962,0,0
119857.075,69.2123,-819.811,0,0
120117.4,69.6365,-817.782,0,0
120377.725,69.9694,-815.762,0,0
120638.05,70.1558,-813.838,0,0
120898.375,70.1,-811.893,0,0
121158.7,69.8929,-809.758,0,0
121419.025,69.6606,-807.45,0,0
121679.35,69.493,-805.043,0,0
121939.675,69.3203,-802.645,0,0
122200.0,69.1336,-800.232,0,0
122460,68.8552,-797.706,0,0
122721,68.6248,-795.067,0,0
122981,68.5092,-792.346,0,0
123241,68.3727,-789.688,0,0
123502,68.2398,-786.984,0,0
123762,68.1109,-784.279,0,0
124022,67.9244,-781.538,0,0
124283,67.7813,-778.661,0,0
124543,67.6676,-775.769,0,0
124803,67.6146,-772.833,0,0
125064,67.5911,-769.818,0,0
125324,67.6124,-766.817,0,0
125584,67.7267,-763.746,0,0
125845,67.9309,-760.704,0,0
126105,68.1302,-757.679,0,0
126365,68.4244,-754.614,0,0
126626,68.741,-751.604,0,0
126886,69.0918,-748.568,0,0
127146,69.5236,-745.619,0,0
127406,70.0183,-742.567,0,0
127667,70.6095,-739.597,0,0
127927,71.2523,-736.821,0,0
128187,71.8457,-733.996,0,0
128448,72.3942,-731.297,0,0
128708,72.9834,-728.584,0,0
128968,73.5723,-725.887,0,0
129229,74.1833,-723.293,0,0
129489,74.7417,-720.811,0,0
129749,75.1439,-718.27,0,0
130010,75.5433,-715.645,0,0
130270,76.0118,-712.986,0,0
130530,76.525,-710.409,0,0
130791,77.0015,-707.868,0,0
131051,77.4704,-705.306,0,0
131311,77.9117,-702.848,0,0
131572,78.3034,-700.386,0,0
131832,78.6099,-697.907,0,0
132092,78.9118,-695.437,0,0
132353,79.0676,-692.927,0,0
132613,79.1639,-690.289,0,0
132873,79.3406,-687.523,0,0
133134,79.5499,-684.662,0,0
133394,79.8533,-681.863,0,0
133654,80.1788,-679.042,0,0
133915,80.5911,-676.213,0,0
134175,80.9604,-673.443,0,0
134435,81.2622,-670.702,0,0
134696,81.4951,-667.807,0,0
134956,81.8139,-664.821,0,0
135216,82.1992,-661.837,0,0
135477,82.6282,-658.805,0,0
135737,83.1064,-655.73,0,0
135997,83.6822,-652.675,0,0
136258,84.2621,-649.646,0,0
136518,84.9183,-646.64,0,0
136778,85.5723,-643.716,0,0
137039,86.1435,-640.735,0,0
137299,86.7384,-637.658,0,0
137559,87.4546,-634.574,0,0
137819,88.2377,-631.5,0,0
138080,89.048,-628.536,0,0
138340.125,89.7689,-625.63,0,0
138600.45,90.4439,-622.638,0,0
138860.775,91.0767,-619.554,0,0
139121.1,91.7797,-616.403,0,0
139381.425,92.5773,-613.224,0,0
139641.75,93.3663,-610.088,0,0
139902.075,94.0957,-606.941,0,0
140162.4,94.7216,-603.66,0,0
140422.725,95.4263,-600.089,0,0
140683.05,96.3338,-596.377,0,0
140943.375,97.4719,-592.643,0,0
141203.7,98.7562,-588.915,0,0
141464.025,100.199,-585.134,0,0
141724.35,101.868,-581.406,0,0
141984.675,103.667,-577.774,0,0
142245.0,105.64,-574.193,0,0
142505.325,107.696,-570.77,0,0
142765.65,109.826,-567.378,0,0
143025.975,112.11,-564.129,0,0
143286.3,114.457,-561.148,0,0
143546.625,116.636,-558.227,0,0
143806.95,118.82,-555.27,0,0
144067.275,121.081,-552.362,0,0
144327.6,123.387,-549.513,0,0
144587.925,125.617,-546.765,0,0
144848.25,127.774,-543.938,0,0
145108.575,130.077,-540.935,0,0
145368.9,132.612,-538.048,0,0
145629.225,135.144,-535.274,0,0
145889.55,137.738,-532.547,0,0
146149.875,140.321,-529.855,0,0
146410.2,142.921,-527.128,0,0
146670.525,145.66,-524.306,0,0
146930.85,148.579,-521.53,0,0
147191.175,151.634,-518.86,0,0
147451.5,154.777,-516.168,0,0
147711.825,158.204,-513.587,0,0
147972.15,161.674,-511.243,0,0
148232.475,165.119,-508.942,0,0
148492.8,168.738,-506.494,0,0
148753.125,172.699,-504.154,0,0
149013.45,176.915,-501.96,0,0
149273.775,181.456,-499.901,0,0
149534.1,186.472,-498.206,0,0
149794.425,191.778,-497.123,0,0
150054.75,197.091,-496.695,0,0
150315.075,202.321,-496.683,0,0
150575.4,207.676,-497.15,0,0
150835.725,213.041,-498.447,0,0
151096.05,217.917,-500.668,0,0
151356.375,221.861,-503.296,0,0
151616.7,225.351,-505.869,0,0
151877.025,228.643,-508.86,0,0
152137.35,231.089,-512.398,0,0
152397.675,232.516,-515.692,0,0
152658.0,233.471,-518.545,0,0
152918.325,234.167,-521.138,0,0
153178.65,234.634,-523.537,0,0
153438.975,234.912,-525.807,0,0
153699.3,234.952,-528.12,0,0
153959.625,234.434,-530.34,0,0
154219.95,233.406,-532.191,0,0
154480,232.122,-533.38,0,0
154741,230.991,-534.099,0,0
155001,230.003,-534.583,0,0
155261,228.918,-534.97,0,0
155522,228.059,-535.208,0,0
155782,227.162,-535.186,0,0
156042,226.269,-535.415,0,0
156303,225.006,-535.399,0,0
156563,223.532,-534.987,0,0
156823,222.367,-534.206,0,0
157084,221.27,-533.408,0,0
157344,220.03,-532.578,0,0
157604,218.618,-531.061,0,0
157864,217.788,-529.185,0,0
158125,217.327,-527.212,0,0
158385,217.245,-525.36,0,0
158645,217.318,-523.605,0,0
158906,217.55,-522.048,0,0
159166,217.898,-520.515,0,0
159426,218.414,-519.108,0,0
159687,218.749,-517.96,0,0
159947,219.277,-516.831,0,0
160207,219.641,-515.867,0,0
160468,219.805,-514.944,0,0
160728,219.791,-514.009,0,0
160988,219.781,-512.664,0,0
161249,219.877,-511.018,0,0
161509,220.768,-509.217,0,0
161769,222.207,-508.128,0,0
162030,223.537,-507.68,0,0
162290,224.774,-507.623,0,0
162550,225.65,-508.097,0,0
162811,225.999,-509,0,0
163071,225.833,-510.094,0,0
163331,224.749,-511.243,0,0
163592,222.95,-512.05,0,0
163852,220.854,-512.124,0,0
164112,218.668,-511.921,0,0
164373,215.895,-511.496,0,0
164633,213.112,-510.261,0,0
164893,210.539,-508.534,0,0
165154,208.017,-506.531,0,0
165414,205.637,-504.339,0,0
165674,203.144,-501.939,0,0
165935,200.578,-499.009,0,0
166195,198.396,-495.518,0,0
166455,196.492,-492.094,0,0
166716,194.54,-488.209,0,0
166976,193.016,-484.049,0,0
167236,191.959,-479.722,0,0
167497,191.146,-475.567,0,0
167757,190.375,-471.387,0,0
168017,189.696,-466.886,0,0
168277,189.228,-462.318,0,0
168538,189.211,-457.57,0,0
168798,189.591,-452.883,0,0
169058,190.25,-448.471,0,0
169319,190.83,-444.329,0,0
169579,191.396,-440.19,0,0
169839,191.909,-435.807,0,0
170100,192.741,-431.297,0,0
170360.075,193.765,-427.01,0,0
170620.4,194.795,-422.93,0,0
170880.725,195.523,-418.819,0,0
171141.05,196.114,-414.291,0,0
171401.375,197.038,-409.294,0,0
171661.7,198.432,-404.309,0,0
171922.025,200.218,-399.378,0,0
172182.35,202.148,-394.593,0,0
172442.675,204.048,-389.936,0,0
172703.0,205.984,-385.076,0,0
172963.325,208.207,-380.11,0,0
173223.65,210.659,-375.197,0,0
173483.975,213.267,-370.293,0,0
173744.3,216.018,-365.339,0,0
174004.625,219.023,-360.233,0,0
174264.95,222.453,-355.13,0,0
174525.275,226.199,-350.019,0,0
174785.6,230.371,-345.065,0,0
175045.925,234.983,-340.286,0,0
175306.25,239.922,-335.863,0,0
175566.575,245.165,-331.701,0,0
175826.9,250.678,-328.049,0,0
176087.225,256.288,-324.934,0,0
176347.55,261.939,-322.352,0,0
176607.875,267.325,-320.391,0,0
176868.2,272.063,-318.612,0,0
177128.525,276.607,-316.475,0,0
177388.85,281.465,-314.057,0,0
177649.175,286.866,-311.755,0,0
177909.5,292.832,-310.213,0,0
178169.825,298.568,-309.822,0,0
178430.15,303.513,-310.085,0,0
178690.475,307.771,-310.206,0,0
178950.8,311.819,-310.513,0,0
179211.125,315.243,-311.063,0,0
179471.45,318.111,-311.553,0,0
179731.775,320.862,-310.601,0,0
179992.1,322.9,-311.103,0,0
180252.425,323.936,-310.942,0,0
180512.75,324.705,-309.879,0,0
180773.075,325.604,-308.056,0,0
181033.4,326.489,-305.844,0,0
181293.725,327.075,-303.033,0,0
181554.05,327.944,-299.021,0,0
181814.375,329.638,-294.277,0,0
182074.7,332.276,-289.132,0,0
182335.025,336.043,-284.161,0,0
182595.35,340.259,-280.031,0,0
182855.675,344.111,-276.195,0,0
183116.0,347.876,-272.025,0,0
183376.325,351.791,-267.383,0,0
183636.65,356.519,-262.244,0,0
183896.975,362.029,-257.362,0,0
184157.3,367.915,-252.975,0,0
184417.625,373.859,-248.659,0,0
184677.95,380.097,-244.189,0,0
184938.275,387.104,-239.735,0,0
185198.6,394.685,-235.84,0,0
185458.925,402.512,-232.6,0,0
185719.25,410.302,-229.601,0,0
185979.575,418.416,-226.959,0,0
186239.9,426.598,-224.701,0,0
186500,434.769,-222.902,0,0
186761,442.985,-221.596,0,0
187021,450.598,-220.467,0,0
187281,458.058,-218.729,0,0
187542,466.137,-216.762,0,0
187802,474.935,-215.069,0,0
188062,483.899,-214.088,0,0
188322,492.677,-213.49,0,0
188583,501.626,-212.949,0,0
188843,510.76,-212.925,0,0
189103,519.483,-213.494,0,0
189364,527.706,-214.044,0,0
189624,535.656,-214.411,0,0
189884,543.514,-214.109,0,0
190145,551.925,-213.218,0,0
190405,561.371,-212.355,0,0
190665,571.228,-212.142,0,0
190926,580.99,-212.083,0,0
191186,591.165,-211.693,0,0
191446,602.262,-211.317,0,0
191707,614.204,-211.588,0,0
191967,626.47,-212.532,0,0
192227,639.231,-213.846,0,0
192488,652.575,-215.864,0,0
192748,666.355,-218.633,0,0
193008,680.549,-222.144,0,0
193269,695.345,-226.55,0,0
193529,710.64,-232.4,0,0
193789,725.748,-239.919,0,0
194050,740.311,-248.806,0,0
194310,754.036,-258.838,0,0
194570,766.768,-269.58,0,0
194831,778.963,-280.638,0,0
195091,790.694,-292.362,0,0
195351,801.813,-304.918,0,0
195612,811.971,-318.075,0,0
195872,821.225,-331.43,0,0
196132,829.778,-344.85,0,0
196393,837.937,-358.425,0,0
196653,845.494,-372.228,0,0
196913,852.372,-386.046,0,0
197174,858.962,-399.773,0,0
197434,865.432,-413.579,0,0
197694,871.857,-427.717,0,0
197955,878.284,-442.372,0,0
198215,884.661,-457.922,0,0
198475,890.309,-474.798,0,0
198735,894.439,-492.702,0,0
198996,896.812,-510.584,0,0
199256,897.895,-528.07,0,0
199516,898.162,-544.861,0,0
199777,898.222,-561.098,0,0
200037,898.089,-577.296,0,0
200297,897.961,-593.873,0,0
200558,897.252,-611.006,0,0
200818,895.369,-628.672,0,0
201078,892.463,-646.568,0,0
201339,888.414,-664.578,0,0
201599,882.653,-682.562,0,0
201859,875.262,-699.961,0,0
202120,866.709,-715.78,0,0
202380.025,858.044,-730.469,0,0
202640.35,849.302,-744.6,0,0
202900.675,839.867,-758.626,0,0
203161.0,829.302,-772.323,0,0
203421.325,817.636,-784.804,0,0
203681.65,805.448,-795.46,0,0
203941.975,793.873,-804.6,0,0
204202.3,783.066,-813.501,0,0
204462.625,772.34,-822.181,0,0
204722.95,761.22,-830.367,0,0
204983.275,750.292,-838.283,0,0
205243.6,739.293,-846.169,0,0
205503.925,727.289,-854.166,0,0
205764.25,714.111,-860.95,0,0
206024.575,700.678,-865.861,0,0
206284.9,687.908,-869.401,0,0
206545.225,675.824,-872.131,0,0
206805.55,664.172,-874.155,0,0
207065.875,653.186,-875.632,0,0
207326.2,642.796,-876.661,0,0
207586.525,632.887,-877.3,0,0
207846.85,623.801,-877.443,0,0
208107.175,615.592,-877.406,0,0
208367.5,608.226,-877.847,0,0
208627.825,601.137,-878.77,0,0
208888.15,594.235,-879.811,0,0
209148.475,587.504,-881.256,0,0
209408.8,580.814,-883.179,0,0
209669.125,573.89,-885.576,0,0
209929.45,565.997,-888.369,0,0
210189.775,557.562,-890.527,0,0
210450.1,548.79,-892.247,0,0
210710.425,539.904,-893.38,0,0
210970.75,531.051,-894.216,0,0
211231.075,521.845,-894.714,0,0
211491.4,512.398,-894.405,0,0
211751.725,503.135,-893.206,0,0
212012.05,494.337,-891.179,0,0
212272.375,486.362,-888.704,0,0
212532.7,479.147,-886.256,0,0
212793.025,472.237,-883.982,0,0
213053.35,465.431,-881.675,0,0
213313.675,458.738,-879.234,0,0
213574.0,452.21,-876.578,0,0
213834.325,445.982,-873.636,0,0
214094.65,440.097,-870.478,0,0
214354.975,434.612,-867.312,0,0
214615.3,429.367,-864.115,0,0
214875.625,424.569,-860.93,0,0
215135.95,420.045,-857.794,0,0
215396.275,415.648,-854.908,0,0
215656.6,411.127,-851.978,0,0
215916.925,406.83,-848.74,0,0
216177.25,402.827,-845.42,0,0
216437.575,399.148,-842.126,0,0
216697.9,395.701,-839.002,0,0
216958.225,392.402,-835.777,0,0
217218.55,389.245,-832.592,0,0
217478.875,386.344,-829.376,0,0
217739.2,383.701,-826.181,0,0
217999.525,381.289,-823.081,0,0
218259.85,379.028,-820.15,0,0
218520,376.851,-817.269,0,0
218780,374.849,-814.418,0,0
219041,373.145,-811.604,0,0
219301,371.486,-808.902,0,0
219561,370.081,-806.252,0,0
219822,368.844,-803.844,0,0
220082,367.662,-801.603,0,0
220342,366.533,-799.485,0,0
220603,365.466,-797.529,0,0
220863,364.353,-795.554,0,0
221123,363.367,-793.573,0,0
221384,362.495,-791.557,0,0
221644,361.828,-789.723,0,0
221904,361.322,-787.938,0,0
222165,360.973,-786.312,0,0
222425,360.849,-784.878,0,0
222685,360.763,-783.746,0,0
222946,360.746,-782.893,0,0
223206,360.696,-782.275,0,0
223466,360.592,-781.985,0,0
223727,360.175,-781.858,0,0
223987,359.645,-781.878,0,0
224247,358.952,-781.582,0,0
224508,358.424,-781.543,0,0
224768,357.815,-781.76,0,0
225028,356.924,-781.96,0,0
225289,355.791,-782.09,0,0
225549,354.619,-781.974,0,0
225809,353.583,-781.728,0,0
226070,352.675,-781.49,0,0
226330,351.91,-781.293,0,0
226590,351.238,-781.175,0,0
226851,350.699,-781.052,0,0
227111,350.332,-781.103,0,0
227371,350.095,-781.402,0,0
227632,349.831,-781.962,0,0
227892,349.573,-782.734,0,0
228152,349.303,-783.783,0,0
228413,348.931,-785.078,0,0
228673,348.425,-786.646,0,0
228933,347.595,-788.461,0,0
229193,346.531,-790.517,0,0
229454,345.129,-792.66,0,0
229714,343.41,-794.914,0,0
229974,341.319,-797.094,0,0
230235,338.914,-799.219,0,0
230495,336.213,-801.117,0,0
230755,333.296,-802.922,0,0
231016,330.172,-804.508,0,0
231276,326.933,-805.897,0,0
231536,323.588,-807.05,0,0
231797,320.185,-807.992,0,0
232057,316.891,-808.85,0,0
232317,313.486,-809.613,0,0
232578,309.958,-810.341,0,0
232838,306.35,-810.806,0,0
233098,302.721,-811.128,0,0
233359,299.111,-811.332,0,0
233619,295.528,-811.396,0,0
233879,291.914,-811.321,0,0
234140,288.411,-811.183,0,0
234400,284.813,-810.854,0,0
234660.3,281.309,-810.511,0,0
234920.625,277.803,-809.967,0,0
235180.95,274.384,-809.472,0,0
235441.275,270.952,-808.889,0,0
235701.6,267.591,-808.18,0,0
235961.925,264.227,-807.488,0,0
236222.25,260.866,-806.7,0,0
236482.575,257.552,-805.838,0,0
236742.9,254.18,-804.988,0,0
237003.225,250.768,-804.004,0,0
237263.55,247.357,-802.98,0,0
237523.875,243.975,-801.78,0,0
237784.2,240.628,-800.443,0,0
238044.525,237.313,-799.035,0,0
238304.85,234.078,-797.524,0,0
238565.175,230.937,-795.948,0,0
238825.5,227.839,-794.249,0,0
239085.825,224.855,-792.581,0,0
239346.15,221.897,-790.733,0,0
239606.475,219.048,-788.871,0,0
239866.8,216.123,-786.908,0,0
240127.125,213.4,-784.993,0,0
240387.45,210.914,-782.89,0,0
240647.775,208.395,-780.747,0,0
240908.1,206.063,-778.747,0,0
241168.425,203.753,-776.712,0,0
241428.75,201.5,-774.724,0,0
241689.075,199.353,-772.769,0,0
241949.4,197.167,-770.804,0,0
242209.725,194.956,-768.737,0,0
242470.05,192.888,-766.609,0,0
242730.375,191.04,-764.447,0,0
242990.7,189.335,-762.446,0,0
243251.025,187.684,-760.509,0,0
243511.35,186.057,-758.738,0,0
243771.675,184.371,-757.005,0,0
244032.0,182.589,-755.424,0,0
244292.325,180.838,-753.766,0,0
244552.65,179.08,-752.186,0,0
244812.975,177.248,-750.585,0,0
245073.3,175.365,-749.021,0,0
245333.625,173.543,-747.458,0,0
245593.95,171.767,-745.929,0,0
245854.275,169.825,-744.41,0,0
246114.6,167.845,-742.949,0,0
246374.925,165.697,-741.55,0,0
246635.25,163.404,-740.074,0,0
246895.575,160.967,-738.441,0,0
247155.9,158.424,-736.648,0,0
247416.225,155.831,-734.655,0,0
247676.55,153.263,-732.453,0,0
247936.875,150.77,-729.982,0,0
248197.2,148.481,-727.44,0,0
248457.525,146.284,-724.822,0,0
248717.85,144.165,-722.186,0,0
248978.175,142.115,-719.546,0,0
249238.5,140.069,-716.744,0,0
249498.825,138.101,-713.822,0,0
249759.15,136.299,-710.82,0,0
250019.475,134.546,-707.831,0,0
250279.8,132.856,-704.825,0,0
250540,131.231,-701.665,0,0
250800,129.754,-698.483,0,0
251061,128.32,-695.187,0,0
251321,127.104,-691.823,0,0
251581,126.003,-688.441,0,0
251842,125.113,-685.041,0,0
252102,124.347,-681.633,0,0
252362,123.717,-678.275,0,0
252623,123.241,-675.003,0,0
252883,122.832,-671.788,0,0
253143,122.507,-668.655,0,0
253404,122.204,-665.595,0,0
253664,121.939,-662.567,0,0
253924,121.712,-659.538,0,0
254185,121.526,-656.449,0,0
254445,121.434,-653.354,0,0
254705,121.357,-650.355,0,0
254966,121.397,-647.257,0,0
255226,121.486,-644.225,0,0
255486,121.668,-641.096,0,0
255747,121.936,-637.96,0,0
256007,122.423,-634.784,0,0
256267,123.081,-631.666,0,0
256528,123.872,-628.651,0,0
256788,124.809,-625.756,0,0
257048,125.804,-622.992,0,0
257309,126.887,-620.314,0,0
257569,127.984,-617.779,0,0
257829,129.137,-615.289,0,0
258090,130.286,-612.883,0,0
258350,131.501,-610.507,0,0
258610,132.768,-608.214,0,0
258871,134.103,-605.998,0,0
259131,135.438,-603.8,0,0
259391,136.853,-601.639,0,0
259651,138.308,-599.528,0,0
259912,139.933,-597.523,0,0
260172,141.637,-595.603,0,0
260432,143.413,-593.811,0,0
260693,145.196,-592.131,0,0
260953,147.037,-590.61,0,0
261213,148.926,-589.17,0,0
261474,150.842,-587.883,0,0
261734,152.777,-586.749,0,0
261994,154.658,-585.778,0,0
262255,156.512,-584.874,0,0
262515,158.354,-584.1,0,0
262775,160.181,-583.409,0,0
263036,161.988,-582.827,0,0
263296,163.757,-582.365,0,0
263556,165.513,-582.018,0,0
263817,167.197,-581.755,0,0
264077,168.868,-581.631,0,0
264337,170.509,-581.628,0,0
264598,171.996,-581.742,0,0
264858,173.429,-581.954,0,0
265118,174.702,-582.296,0,0
265379,175.816,-582.655,0,0
265639,176.762,-583.113,0,0
265899,177.621,-583.496,0,0
266160,178.301,-583.804,0,0
266420,178.927,-584.038,0,0
266680.25,179.549,-584.186,0,0
266940.575,180.178,-584.373,0,0
267200.9,180.8,-584.581,0,0
267461.225,181.348,-584.796,0,0
267721.55,181.88,-585.07,0,0
267981.875,182.315,-585.353,0,0
268242.2,182.669,-585.654,0,0
268502.525,182.873,-585.912,0,0
268762.85,182.958,-586.085,0,0
269023.175,183.003,-586.179,0,0
269283.5,182.946,-586.162,0,0
269543.825,182.92,-585.937,0,0
269804.15,182.907,-585.571,0,0
270064.475,182.96,-585.149,0,0
270324.8,183.186,-584.574,0,0
270585.125,183.437,-583.99,0,0
270845.45,183.805,-583.253,0,0
271105.775,184.316,-582.541,0,0
271366.1,185.088,-581.759,0,0
271626.425,185.973,-581.039,0,0
271886.75,187.014,-580.374,0,0
272147.075,188.15,-579.863,0,0
272407.4,189.397,-579.392,0,0
272667.725,190.716,-578.976,0,0
272928.05,192.219,-578.615,0,0
273188.375,193.869,-578.353,0,0
273448.7,195.686,-578.303,0,0
273709.025,197.686,-578.429,0,0
273969.35,199.762,-578.777,0,0
274229.675,201.957,-579.401,0,0
274490.0,204.296,-580.274,0,0
274750.325,206.691,-581.575,0,0
275010.65,209.043,-583.279,0,0
275270.975,211.296,-585.439,0,0
275531.3,213.397,-588.059,0,0
275791.625,215.163,-591.125,0,0
276051.95,216.508,-594.586,0,0
276312.275,217.323,-598.36,0,0
276572.6,217.549,-602.294,0,0
276832.925,217.114,-606.256,0,0
277093.25,216.068,-610.018,0,0
277353.575,214.604,-613.479,0,0
277613.9,212.765,-616.657,0,0
277874.225,210.714,-619.482,0,0
278134.55,208.442,-621.995,0,0
278394.875,206.103,-624.226,0,0
278655.2,203.7,-626.191,0,0
278915.525,201.282,-627.946,0,0
279175.85,198.815,-629.591,0,0
279436.175,196.307,-631.077,0,0
279696.5,193.746,-632.4,0,0
279956.825,191.073,-633.619,0,0
280217.15,188.351,-634.599,0,0
280477.475,185.582,-635.418,0,0
280737.8,182.755,-636.005,0,0
280998.125,180.058,-636.43,0,0
281258.45,177.456,-636.73,0,0
281518.775,174.934,-637.014,0,0
281779.1,172.359,-637.308,0,0
282039.425,169.693,-637.556,0,0
282299.75,166.891,-637.696,0,0
282560,163.955,-637.687,0,0
282820,160.917,-637.428,0,0
283081,157.841,-636.84,0,0
283341,154.852,-635.903,0,0
283601,152.107,-634.699,0,0
283862,149.669,-633.291,0,0
284122,147.57,-631.9,0,0
284382,145.709,-630.657,0,0
284643,143.985,-629.649,0,0
284903,142.135,-628.92,0,0
285163,140.03,-628.257,0,0
285424,137.604,-627.534,0,0
285684,134.962,-626.545,0,0
285944,132.212,-625.306,0,0
286205,129.397,-623.756,0,0
286465,126.598,-621.856,0,0
286725,123.875,-619.601,0,0
286986,121.325,-617,0,0
287246,119.045,-614.061,0,0
287506,117.077,-610.898,0,0
287767,115.452,-607.598,0,0
288027,114.125,-604.201,0,0
288287,113.084,-600.738,0,0
288548,112.294,-597.204,0,0
288808,111.794,-593.545,0,0
289068,111.659,-589.752,0,0
289329,111.957,-585.904,0,0
289589,112.793,-582.091,0,0
289849,114.155,-578.479,0,0
290109,115.944,-575.19,0,0
290370,118.073,-572.205,0,0
290630,120.522,-569.625,0,0
290890,123.233,-567.495,0,0
291151,126.123,-565.773,0,0
291411,129.132,-564.571,0,0
291671,132.23,-563.896,0,0
291932,135.255,-563.722,0,0
292192,138.156,-564.067,0,0
292452,140.877,-564.911,0,0
292713,143.28,-566.301,0,0
292973,145.177,-568.129,0,0
293233,146.443,-570.203,0,0
293494,147.073,-572.332,0,0
293754,147.122,-574.3,0,0
294014,146.686,-575.965,0,0
294275,145.952,-577.222,0,0
294535,145.094,-578.025,0,0
294795,144.249,-578.428,0,0
295056,143.605,-578.473,0,0
295316,143.245,-578.266,0,0
295576,143.248,-577.995,0,0
295837,143.664,-577.777,0,0
296097,144.466,-577.855,0,0
296357,145.525,-578.445,0,0
296618,146.559,-579.651,0,0
296878,147.291,-581.457,0,0
297138,147.397,-583.64,0,0
297399,146.874,-585.925,0,0
297659,145.782,-588.056,0,0
297919,144.238,-589.89,0,0
298180,142.428,-591.336,0,0
298440,140.488,-592.466,0,0
298700.2,138.509,-593.264,0,0
298960.525,136.532,-593.82,0,0
299220.85,134.629,-594.164,0,0
299481.175,132.783,-594.368,0,0
299741.5,130.989,-594.511,0,0
300001.825,129.201,-594.572,0,0
300262.15,127.36,-594.494,0,0
300522.475,125.512,-594.283,0,0
300782.8,123.686,-593.899,0,0
301043.125,121.923,-593.331,0,0
301303.45,120.28,-592.58,0,0
301563.775,118.844,-591.688,0,0
301824.1,117.623,-590.728,0,0
302084.425,116.627,-589.817,0,0
302344.75,115.819,-588.993,0,0
302605.075,115.16,-588.297,0,0
302865.4,114.587,-587.78,0,0
303125.725,114.029,-587.438,0,0
303386.05,113.443,-587.254,0,0
303646.375,112.774,-587.226,0,0
303906.7,111.995,-587.307,0,0
304167.025,111.076,-587.484,0,0
304427.35,109.983,-587.693,0,0
304687.675,108.714,-587.896,0,0
304948.0,107.288,-588.035,0,0
305208.325,105.685,-588.075,0,0
305468.65,104.014,-587.964,0,0
305728.975,102.261,-587.725,0,0
305989.3,100.495,-587.356,0,0
306249.625,98.696,-586.852,0,0
306509.95,96.916,-586.206,0,0
306770.275,95.1544,-585.46,0,0
307030.6,93.4155,-584.598,0,0
307290.925,91.748,-583.615,0,0
307551.25,90.1327,-582.547,0,0
307811.575,88.6176,-581.398,0,0
308071.9,87.1707,-580.202,0,0
308332.225,85.8108,-578.966,0,0
308592.55,84.5141,-577.71,0,0
308852.875,83.2879,-576.414,0,0
309113.2,82.14,-575.098,0,0
309373.525,81.0551,-573.784,0,0
309633.85,80.0545,-572.489,0,0
309894.175,79.0865,-571.222,0,0
310154.5,78.1585,-569.987,0,0
310414.825,77.2434,-568.77,0,0
310675.15,76.3307,-567.54,0,0
310935.475,75.443,-566.328,0,0
311195.8,74.5326,-565.096,0,0
311456.125,73.6522,-563.824,0,0
311716.45,72.7947,-562.549,0,0
311976.775,71.9839,-561.241,0,0
312237.1,71.1875,-559.934,0,0
312497.425,70.4323,-558.598,0,0
312757.75,69.7294,-557.243,0,0
313018.075,69.0756,-555.903,0,0
313278.4,68.4688,-554.573,0,0
313538.725,67.909,-553.261,0,0
313799.05,67.3761,-551.968,0,0
314059.375,66.8686,-550.697,0,0
314319.7,66.3593,-549.451,0,0
314580,65.8413,-548.27,0,0
314840,65.3524,-547.013,0,0
315101,64.821,-545.807,0,0
315361,64.3266,-544.573,0,0
315621,63.8399,-543.341,0,0
315882,63.3718,-542.121,0,0
316142,62.9465,-540.828,0,0
316402,62.5323,-539.56,0,0
316663,62.0895,-538.27,0,0
316923,61.7401,-536.995,0,0
317183,61.4479,-535.737,0,0
317444,61.131,-534.51,0,0
317704,60.9042,-533.236,0,0
317964,60.627,-531.972,0,0
318225,60.4065,-530.79,0,0
318485,60.2982,-529.601,0,0
318745,60.0821,-528.453,0,0
319006,59.9014,-527.303,0,0
319266,59.79,-526.307,0,0
319526,59.6154,-525.194,0,0
319787,59.4142,-524.109,0,0
320047,59.2574,-523.077,0,0
320307,59.0139,-522.017,0,0
320567,58.819,-520.954,0,0
320828,58.6626,-519.844,0,0
321088,58.4349,-518.815,0,0
321348,58.2623,-517.779,0,0
321609,58.1067,-516.698,0,0
321869,57.8965,-515.606,0,0
322129,57.6689,-514.521,0,0
322390,57.5964,-513.423,0,0
322650,57.3707,-512.334,0,0
322910,57.2043,-511.293,0,0
323171,56.9684,-510.135,0,0
323431,56.8284,-508.942,0,0
323691,56.6505,-507.78,0,0
323952,56.4989,-506.524,0,0
324212,56.404,-505.275,0,0
324472,56.4166,-503.93,0,0
324733,56.4539,-502.577,0,0
324993,56.5907,-501.317,0,0
325253,56.8035,-499.954,0,0
325514,57.0899,-498.586,0,0
325774,57.5191,-497.284,0,0
326034,58.0403,-496.052,0,0
326295,58.592,-494.917,0,0
326555,59.2675,-493.847,0,0
326815,59.9513,-492.922,0,0
327076,60.7047,-492.183,0,0
327336,61.3241,-491.56,0,0
327596,62.0364,-490.946,0,0
327857,62.5334,-490.501,0,0
328117,63.0117,-490.003,0,0
328377,63.4143,-489.59,0,0
328638,63.8106,-489.21,0,0
328898,64.1235,-488.785,0,0
329158,64.5191,-488.459,0,0
329419,64.8185,-488.051,0,0
329679,65.1131,-487.792,0,0
329939,65.4003,-487.491,0,0
330200,65.6789,-487.155,0,0
330460,65.907,-487.021,0,0
330720.15,66.0662,-486.761,0,0
330980.475,66.2594,-486.617,0,0
331240.8,66.4108,-486.529,0,0
331501.125,66.4134,-486.415,0,0
331761.45,66.4393,-486.37,0,0
332021.775,66.3807,-486.303,0,0
332282.1,66.2019,-486.252,0,0
332542.425,66.0236,-486.216,0,0
332802.75,65.6763,-486.15,0,0
333063.075,65.3332,-486.012,0,0
333323.4,64.833,-485.888,0,0
333583.725,64.351,-485.636,0,0
333844.05,63.803,-485.282,0,0
334104.375,63.3003,-484.911,0,0
334364.7,62.7285,-484.498,0,0
334625.025,62.1878,-483.898,0,0
334885.35,61.7453,-483.366,0,0
335145.675,61.2484,-482.764,0,0
335406.0,60.855,-482.124,0,0
335666.325,60.3862,-481.496,0,0
335926.65,60.0306,-480.815,0,0
336186.975,59.5948,-480.132,0,0
336447.3,59.2193,-479.449,0,0
336707.625,58.8609,-478.718,0,0
336967.95,58.4657,-477.997,0,0
337228.275,58.0692,-477.247,0,0
337488.6,57.7707,-476.502,0,0
337748.925,57.4646,-475.722,0,0
338009.25,57.1877,-474.922,0,0
338269.575,56.8908,-474.153,0,0
338529.9,56.6321,-473.348,0,0
338790.225,56.4161,-472.577,0,0
339050.55,56.1828,-471.802,0,0
339310.875,55.9006,-470.872,0,0
339571.2,55.6718,-470.107,0,0
339831.525,55.4562,-469.218,0,0
340091.85,55.319,-468.345,0,0
340352.175,55.0965,-467.532,0,0
340612.5,54.9446,-466.639,0,0
340872.825,54.8698,-465.775,0,0
341133.15,54.7636,-464.831,0,0
341393.475,54.6974,-463.973,0,0
341653.8,54.6154,-463.146,0,0
341914.125,54.5933,-462.284,0,0
342174.45,54.5276,-461.409,0,0
342434.775,54.5214,-460.549,0,0
342695.1,54.527,-459.705,0,0
342955.425,54.5049,-458.851,0,0
343215.75,54.5168,-458.002,0,0
343476.075,54.5506,-457.163,0,0
343736.4,54.563,-456.3,0,0
343996.725,54.641,-455.454,0,0
344257.05,54.7223,-454.662,0,0
344517.375,54.8074,-453.81,0,0
344777.7,54.9338,-452.902,0,0
345038.025,55.0603,-452.061,0,0
345298.35,55.1658,-451.219,0,0
345558.675,55.3864,-450.433,0,0
345819.0,55.5828,-449.625,0,0
346079.325,55.7953,-448.871,0,0
346339.65,56.0174,-448.056,0,0
346599.975,56.2651,-447.368,0,0
346860,56.4855,-446.62,0,0
347121,56.7521,-445.873,0,0
347381,57.0604,-445.193,0,0
347641,57.2573,-444.523,0,0
347902,57.5347,-443.848,0,0
348162,57.8285,-443.165,0,0
348422,58.1507,-442.519,0,0
348683,58.4578,-441.911,0,0
348943,58.7462,-441.252,0,0
349203,59.0749,-440.624,0,0
349464,59.4031,-440.09,0,0
349724,59.7294,-439.532,0,0
349984,60.0928,-439.017,0,0
350245,60.4373,-438.482,0,0
350505,60.7607,-438.026,0,0
350765,61.0271,-437.536,0,0
351025,61.3623,-437.149,0,0
351286,61.6803,-436.71,0,0
351546,61.9391,-436.352,0,0
351806,62.2669,-435.945,0,0
352067,62.5084,-435.523,0,0
352327,62.7102,-435.158,0,0
352587,62.925,-434.767,0,0
352848,63.1302,-434.431,0,0
353108,63.3205,-433.991,0,0
353368,63.5467,-433.594,0,0
353629,63.7223,-433.157,0,0
353889,63.9116,-432.775,0,0
354149,64.1223,-432.282,0,0
354410,64.353,-431.948,0,0
354670,64.5801,-431.533,0,0
354930,64.8711,-431.19,0,0
355191,65.0899,-430.8,0,0
355451,65.307,-430.416,0,0
355711,65.579,-430.038,0,0
355972,65.8016,-429.657,0,0
356232,66.0867,-429.303,0,0
356492,66.3727,-428.914,0,0
356753,66.6243,-428.574,0,0
357013,66.9533,-428.303,0,0
357273,67.2824,-427.938,0,0
357534,67.5902,-427.675,0,0
357794,67.9041,-427.379,0,0
358054,68.2529,-427.108,0,0
358315,68.6395,-426.95,0,0
358575,68.9475,-426.791,0,0
358835,69.3162,-426.686,0,0
359096,69.6295,-426.588,0,0
359356,69.961,-426.519,0,0
359616,70.218,-426.509,0,0
359877,70.4939,-426.514,0,0
360137,70.6979,-426.602,0,0
360397,70.843,-426.622,0,0
360658,70.9451,-426.712,0,0
360918,71.0181,-426.769,0,0
361178,71.0706,-426.844,0,0
361438,71.11,-426.87,0,0
361699,71.0925,-426.904,0,0
361959,71.0886,-426.942,0,0
362219,71.0355,-427.008,0,0
362480,70.953,-427.002,0,0
362740.1,70.8247,-427.012,0,0
363000.425,70.736,-427.105,0,0
363260.75,70.5678,-427.016,0,0
363521.075,70.3781,-427.037,0,0
363781.4,70.201,-426.987,0,0
364041.725,69.9813,-426.927,0,0
364302.05,69.7696,-426.831,0,0
364562.375,69.5755,-426.725,0,0
364822.7,69.3294,-426.61,0,0
365083.025,69.1374,-426.462,0,0
365343.35,68.8826,-426.354,0,0
365603.675,68.6454,-426.221,0,0
365864.0,68.3641,-426.035,0,0
366124.325,68.0863,-425.863,0,0
366384.65,67.7957,-425.635,0,0
366644.975,67.5678,-425.369,0,0
366905.3,67.2639,-425.051,0,0
367165.625,67.0415,-424.718,0,0
367425.95,66.84,-424.353,0,0
367686.275,66.6451,-424,0,0
367946.6,66.5398,-423.666,0,0
368206.925,66.4424,-423.315,0,0
368467.25,66.3972,-423.026,0,0
368727.575,66.3706,-422.722,0,0
368987.9,66.3316,-422.495,0,0
369248.225,66.3116,-422.26,0,0
369508.55,66.2711,-422.085,0,0
369768.875,66.227,-421.919,0,0
370029.2,66.1216,-421.748,0,0
370289.525,66.0093,-421.67,0,0
370549.85,65.851,-421.539,0,0
370810.175,65.6851,-421.47,0,0
371070.5,65.4506,-421.418,0,0
371330.825,65.2373,-421.276,0,0
371591.15,64.931,-421.169,0,0
371851.475,64.6154,-420.933,0,0
372111.8,64.3513,-420.734,0,0
372372.125,64.0961,-420.475,0,0
372632.45,63.8193,-420.286,0,0
372892.775,63.5614,-420.022,0,0
373153.1,63.3217,-419.733,0,0
373413.425,63.0779,-419.502,0,0
373673.75,62.8405,-419.251,0,0
373934.075,62.6479,-419.022,0,0
374194.4,62.4035,-418.767,0,0
374454.725,62.2052,-418.535,0,0
374715.05,61.9698,-418.31,0,0
374975.375,61.669,-418.145,0,0
375235.7,61.3668,-417.942,0,0
375496.025,61.0779,-417.767,0,0
375756.35,60.7484,-417.527,0,0
376016.675,60.3738,-417.306,0,0
376277.0,60.0634,-417.005,0,0
376537.325,59.7177,-416.664,0,0
376797.65,59.4072,-416.367,0,0
377057.975,59.1,-416.082,0,0
377318.3,58.8298,-415.793,0,0
377578.625,58.5443,-415.513,0,0
377838.95,58.2744,-415.288,0,0
378099.275,57.9556,-414.982,0,0
378359.6,57.6161,-414.838,0,0
378619.925,57.2206,-414.652,0,0
378880,56.7551,-414.444,0,0
379141,56.202,-414.2,0,0
379401,55.5841,-413.902,0,0
379661,54.9264,-413.5,0,0
379922,54.2845,-413.002,0,0
380182,53.6828,-412.292,0,0
380442,53.1962,-411.539,0,0
380703,52.8061,-410.711,0,0
380963,52.5556,-409.922,0,0
381223,52.4387,-409.143,0,0
381483,52.4376,-408.449,0,0
381744,52.4654,-407.877,0,0
382004,52.5079,-407.392,0,0
382264,52.5434,-407.056,0,0
382525,52.4581,-406.762,0,0
382785,52.3147,-406.509,0,0
383045,52.0865,-406.329,0,0
383306,51.8156,-406.018,0,0
383566,51.4807,-405.726,0,0
383826,51.1383,-405.427,0,0
384087,50.741,-405.066,0,0
384347,50.3425,-404.662,0,0
384607,49.9251,-404.26,0,0
384868,49.4935,-403.82,0,0
385128,49.1059,-403.318,0,0
385388,48.6891,-402.767,0,0
385649,48.2881,-402.242,0,0
385909,47.8964,-401.66,0,0
386169,47.5072,-401.059,0,0
386430,47.1394,-400.425,0,0
386690,46.8237,-399.772,0,0
386950,46.5003,-399.109,0,0
387211,46.2232,-398.393,0,0
387471,45.9537,-397.705,0,0
387731,45.6912,-397.032,0,0
387992,45.4265,-396.353,0,0
388252,45.2411,-395.614,0,0
388512,45.0693,-394.911,0,0
388773,44.9216,-394.189,0,0
389033,44.7949,-393.509,0,0
389293,44.6962,-392.806,0,0
389554,44.6293,-392.066,0,0
389814,44.5889,-391.35,0,0
390074,44.6061,-390.682,0,0
390335,44.6142,-390.05,0,0
390595,44.6687,-389.466,0,0
390855,44.7049,-388.919,0,0
391116,44.7607,-388.413,0,0
391376,44.8409,-387.972,0,0
391636,44.8578,-387.571,0,0
391896,44.802,-387.211,0,0
392157,44.7204,-386.885,0,0
392417,44.5383,-386.547,0,0
392677,44.3664,-386.187,0,0
392938,44.0881,-385.776,0,0
393198,43.8059,-385.379,0,0
393458,43.4864,-384.876,0,0
393719,43.139,-384.402,0,0
393979,42.8128,-383.821,0,0
394239,42.4596,-383.254,0,0
394500,42.1497,-382.574,0,0
394760.05,41.8274,-381.875,0,0
395020.375,41.5612,-381.175,0,0
395280.7,41.2975,-380.414,0,0
395541.025,41.0655,-379.62,0,0
395801.35,40.8626,-378.803,0,0
396061.675,40.7012,-378.004,0,0
396322.0,40.596,-377.198,0,0
396582.325,40.5314,-376.354,0,0
396842.65,40.4514,-375.56,0,0
397102.975,40.4221,-374.763,0,0
397363.3,40.3802,-373.971,0,0
397623.625,40.4168,-373.169,0,0
397883.95,40.4687,-372.389,0,0
398144.275,40.5641,-371.607,0,0
398404.6,40.6081,-370.862,0,0
398664.925,40.726,-370.12,0,0
398925.25,40.8298,-369.379,0,0
399185.575,40.9331,-368.651,0,0
399445.9,41.0718,-367.952,0,0
399706.225,41.195,-367.309,0,0
399966.55,41.3402,-366.598,0,0
400006.6,41.3165,-366.523,0,0