File: Accelerated corrosion test data/2025-10-21_06-00-04/sample_1.csv
Frequency (Hz),Impedance (ohms),Phase (Radians),Temperature (C),Humidity (%)
10000.0,239.847,-12236.1,0,0
10260.325,242.216,-11920,0,0
10520.65,228.742,-11640.6,0,0
10780.975,225.672,-11355.1,0,0
11041.3,218.292,-11095.2,0,0
11301.625,213.044,-10837.9,0,0
11561.95,209.954,-10592.9,0,0
11822.275,207.451,-10353,0,0
12082.6,232.056,-10123.9,0,0
12342.925,209.18,-9950.15,0,0
12603.25,194.247,-9734.18,0,0
12863.575,190.01,-9532.59,0,0
13123.9,199.817,-9339.58,0,0
13384.225,184.811,-9169.86,0,0
13644.55,181.01,-8986.96,0,0
13904.875,181.105,-8807.61,0,0
14165.2,193.536,-8676.65,0,0
14425.525,212.697,-8509.68,0,0
14685.8,203.653,-8341.89,0,0
14946.175,175.725,-8236.53,0,0
15206.5,189.955,-8074.59,0,0
15466.825,172.129,-7961.52,0,0
15727.15,169.862,-7826.05,0,0
15987.5,159.775,-7698.76,0,0
16247.8,156.33,-7571.98,0,0
16508.125,153.958,-7448.73,0,0
16768.45,157.235,-7330.35,0,0
17028.775,162.783,-7220.73,0,0
17289.1,153.902,-7119.87,0,0
17549.425,150.985,-7015.58,0,0
17809.75,145.678,-6909.8,0,0
18070.075,149.407,-6811.41,0,0
18330.4,142.152,-6714.24,0,0
18590.725,136.864,-6620.57,0,0
18851.05,137.625,-6521.79,0,0
19111.375,134.927,-6440.76,0,0
19371.7,132.086,-6348.08,0,0
19632.025,131.168,-6258.88,0,0
19892.35,135.927,-6170.85,0,0
20152.675,135.009,-6085.2,0,0
20413.0,156.417,-5994.88,0,0
20673.3,169.885,-5955.34,0,0
20933.65,148.55,-5888.5,0,0
21193.975,161.955,-5823.4,0,0
21454.3,140.579,-5751.66,0,0
21714.625,135.789,-5678.82,0,0
21974.9,139.348,-5597.22,0,0
22235.275,175.38,-5554.32,0,0
22495.6,139.949,-5513.56,0,0
22755.925,126.44,-5443.36,0,0
23016.25,121.744,-5376.68,0,0
23276.6,118.468,-5314.56,0,0
23536.9,115.195,-5253.62,0,0
23797.225,111.875,-5192.15,0,0
24057.55,114.176,-5131.33,0,0
24317.875,112.435,-5083.11,0,0
24578.2,109.747,-5023.15,0,0
24838.525,110.105,-4972.57,0,0
25098.85,109.669,-4918.28,0,0
25359.175,105.082,-4868.65,0,0
25619.5,104.15,-4817.41,0,0
25879.8,103.335,-4766.04,0,0
26140.1,102.71,-4716.19,0,0
26400.5,102.483,-4666.53,0,0
26660.8,104.142,-4616.19,0,0
26921.1,113.816,-4566.41,0,0
27181.4,122.725,-4536.28,0,0
27441.8,110.362,-4501.54,0,0
27702.1,103.301,-4452.52,0,0
27962.4,110.584,-4402.26,0,0
28222.7,110.163,-4363.68,0,0
28483.1,119.621,-4320.01,0,0
28743.4,131.422,-4301.84,0,0
29003.7,118.051,-4265.03,0,0
29264,119.574,-4231.88,0,0
29524.4,107.712,-4198.9,0,0
29784.7,105.339,-4155.26,0,0
30045,101.599,-4124.2,0,0
30305.3,99.9561,-4084.92,0,0
30565.7,96.8011,-4046.29,0,0
30826,100.537,-4009.49,0,0
31086.3,104.381,-3983.25,0,0
31346.6,99.5279,-3952.92,0,0
31607,93.5398,-3915.92,0,0
31867.3,98.4227,-3883.15,0,0
32127.6,97.2787,-3852.86,0,0
32387.9,97.3683,-3824.92,0,0
32648.3,93.1803,-3793.61,0,0
32908.6,95.0936,-3765.05,0,0
33168.9,90.1943,-3736.72,0,0
33429.2,88.8222,-3707.51,0,0
33689.6,85.5371,-3678.19,0,0
33949.9,84.6775,-3647.26,0,0
34210.2,86.411,-3619.95,0,0
34470.5,83.5636,-3594.03,0,0
34730.9,81.8173,-3565.53,0,0
34991.2,81.0639,-3538.43,0,0
35251.5,79.9389,-3511.62,0,0
35511.8,79.1279,-3485.16,0,0
35772.2,78.8271,-3459.72,0,0
36032.5,77.5164,-3434.08,0,0
36292.8,76.796,-3408.62,0,0
36553.1,76.1922,-3383.62,0,0
36813.5,75.875,-3359.07,0,0
37073.8,75.8725,-3335.05,0,0
37334.1,74.8115,-3311.4,0,0
37594.4,74.5301,-3288.06,0,0
37854.8,73.8749,-3265.3,0,0
38115.1,72.8416,-3242.28,0,0
38375.4,72.7797,-3219.45,0,0
38635.7,72.4981,-3197.63,0,0
38896.1,71.6858,-3175.4,0,0
39156.4,72.0632,-3153.25,0,0
39416.7,71.7831,-3133,0,0
39677,70.878,-3111.73,0,0
39937.4,70.5016,-3090.51,0,0
40197.7,70.8549,-3069.71,0,0
40458,70.5732,-3049.56,0,0
40718.3,70.5975,-3028.8,0,0
40978.7,72.1104,-3009.24,0,0
41239,72.1944,-2991.39,0,0
41499.3,71.5252,-2973.17,0,0
41759.6,70.7998,-2954.39,0,0
42020,70.3973,-2935.51,0,0
42280.275,69.708,-2917.39,0,0
42540.6,70.3704,-2898.58,0,0
42800.925,69.8754,-2882.22,0,0
43061.25,69.1312,-2863.96,0,0
43321.575,69.0527,-2847.16,0,0
43581.9,68.097,-2829.73,0,0
43842.225,67.196,-2812.16,0,0
44102.55,67.5082,-2794.3,0,0
44362.875,68.3594,-2777.28,0,0
44623.2,68.6735,-2761.93,0,0
44883.525,68.3282,-2746.12,0,0
45143.85,67.9257,-2730.37,0,0
45404.175,68.1091,-2714.73,0,0
45664.5,67.2517,-2699.69,0,0
45924.825,66.2369,-2684.3,0,0
46185.15,65.8035,-2668.42,0,0
46445.475,64.7219,-2653.27,0,0
46705.8,64.9697,-2637.67,0,0
46966.125,64.7709,-2623.7,0,0
47226.45,63.9529,-2608.33,0,0
47486.775,64.0907,-2593.8,0,0
47747.1,63.804,-2579.75,0,0
48007.425,63.2499,-2565.34,0,0
48267.75,63.1248,-2551.4,0,0
48528.075,62.2875,-2537.96,0,0
48788.4,61.2509,-2523.58,0,0
49048.725,61.0603,-2509.38,0,0
49309.05,61.2408,-2495.49,0,0
49569.375,61.1164,-2482.64,0,0
49829.7,60.5185,-2469.41,0,0
50090.025,59.8837,-2456.01,0,0
50350.35,59.3344,-2442.67,0,0
50610.675,59.1828,-2429.24,0,0
50871.0,58.9749,-2416.47,0,0
51131.325,58.8302,-2403.73,0,0
51391.65,58.9714,-2391.17,0,0
51651.975,58.3652,-2379.08,0,0
51912.3,57.9109,-2366.52,0,0
52172.625,57.77,-2354.16,0,0
52432.95,57.7386,-2342.01,0,0
52693.275,57.4657,-2329.84,0,0
52953.6,57.3689,-2317.95,0,0
53213.925,57.3672,-2306.25,0,0
53474.25,57.0641,-2294.7,0,0
53734.575,56.8765,-2283.19,0,0
53994.9,56.7575,-2271.85,0,0
54255.225,56.4237,-2260.91,0,0
54515.55,55.8971,-2249.28,0,0
54775.875,55.7086,-2238.16,0,0
55036.2,55.4814,-2226.87,0,0
55296.525,55.3851,-2215.86,0,0
55556.85,55.3777,-2205.13,0,0
55817.175,55.0636,-2194.39,0,0
56077.5,54.6141,-2183.83,0,0
56337.825,54.4869,-2172.96,0,0
56598.15,54.5849,-2162.23,0,0
56858.475,54.4736,-2151.83,0,0
57118.8,54.3655,-2141.75,0,0
57379.125,54.1229,-2131.33,0,0
57639.45,54.1625,-2121.28,0,0
57899.775,54.1017,-2111.2,0,0
58160.1,54.1714,-2101.19,0,0
58420.4,54.1753,-2091.59,0,0
58680.7,53.8582,-2081.81,0,0
58941.1,53.9159,-2071.93,0,0
59201.4,54.0349,-2062.16,0,0
59461.7,53.9151,-2053.21,0,0
59722,53.7159,-2043.62,0,0
59982.4,53.7807,-2034.26,0,0
60242.7,53.7372,-2025.06,0,0
60503,53.784,-2015.82,0,0
60763.3,54.0935,-2007.14,0,0
61023.7,53.6184,-1998.51,0,0
61284,53.1481,-1989.56,0,0
61544.3,52.8501,-1980.38,0,0
61804.6,52.9743,-1971.33,0,0
62065,52.6831,-1963.07,0,0
62325.3,52.2978,-1954.05,0,0
62585.6,52.1613,-1945.25,0,0
62845.9,52.128,-1936.53,0,0
63106.3,52.2557,-1927.95,0,0
63366.6,52.176,-1919.38,0,0
63626.9,52.0753,-1910.93,0,0
63887.2,51.9566,-1902.35,0,0
64147.6,52.2449,-1894.02,0,0
64407.9,52.2781,-1885.5,0,0
64668.2,52.62,-1877.05,0,0
64928.5,53.1558,-1868.93,0,0
65188.9,53.7555,-1861,0,0
65449.2,54.3511,-1853.57,0,0
65709.5,54.8405,-1846.36,0,0
65969.8,54.7245,-1839.34,0,0
66230.2,54.6097,-1831.93,0,0
66490.5,54.5508,-1824.76,0,0
66750.8,54.3417,-1817.86,0,0
67011.1,53.7253,-1810.32,0,0
67271.5,53.2271,-1802.9,0,0
67531.8,53.51,-1795.1,0,0
67792.1,53.9978,-1787.93,0,0
68052.4,53.8717,-1781.61,0,0
68312.8,52.834,-1774.6,0,0
68573.1,52.7424,-1766.98,0,0
68833.4,52.8881,-1760.03,0,0
69093.7,52.7355,-1752.91,0,0
69354.1,52.3571,-1746.15,0,0
69614.4,52.3221,-1739.42,0,0
69874.7,51.8418,-1732.71,0,0
70135,51.4691,-1726.1,0,0
70395.4,50.58,-1719.19,0,0
70655.7,50.3463,-1712.13,0,0
70916,50.1168,-1705.01,0,0
71176.3,49.8639,-1698.28,0,0
71436.7,49.8267,-1691.51,0,0
71697,49.5805,-1685.15,0,0
71957.3,48.9217,-1678.39,0,0
72217.6,48.3832,-1671.47,0,0
72478,48.0861,-1664.47,0,0
72738.3,47.9887,-1657.55,0,0
72998.6,47.9413,-1650.74,0,0
73258.9,48.0256,-1644.12,0,0
73519.3,47.8745,-1637.62,0,0
73779.6,47.731,-1631,0,0
74039.9,47.6732,-1624.42,0,0
74300.225,47.7265,-1617.92,0,0
74560.55,47.7786,-1611.35,0,0
74820.875,47.9072,-1604.93,0,0
75081.2,48.0771,-1598.63,0,0
75341.525,48.1766,-1592.39,0,0
75601.85,48.2258,-1586.19,0,0
75862.175,48.2579,-1579.9,0,0
76122.5,48.5166,-1573.68,0,0
76382.825,48.7618,-1567.63,0,0
76643.15,49.0008,-1561.6,0,0
76903.475,49.1415,-1555.63,0,0
77163.8,49.4092,-1549.72,0,0
77424.125,49.6673,-1543.89,0,0
77684.45,49.9195,-1538.17,0,0
77944.775,50.0228,-1532.35,0,0
78205.1,50.3617,-1526.52,0,0
78465.425,50.9189,-1520.8,0,0
78725.75,51.3649,-1515.71,0,0
78986.075,51.4664,-1510.49,0,0
79246.4,51.5786,-1505.43,0,0
79506.725,51.2783,-1500.33,0,0
79767.05,50.9642,-1494.92,0,0
80027.375,50.8738,-1489.41,0,0
80287.7,50.632,-1484.09,0,0
80548.025,50.3176,-1478.62,0,0
80808.35,50.2007,-1473.06,0,0
81068.675,49.95,-1467.48,0,0
81329.0,49.9579,-1461.71,0,0
81589.325,50.0452,-1456.2,0,0
81849.65,50.2367,-1450.64,0,0
82109.975,50.4025,-1445.31,0,0
82370.3,50.5429,-1439.94,0,0
82630.625,50.5867,-1434.75,0,0
82890.95,50.6462,-1429.27,0,0
83151.275,50.9826,-1423.79,0,0
83411.6,51.3054,-1418.63,0,0
83671.925,51.4279,-1413.51,0,0
83932.25,51.7002,-1408.26,0,0
84192.575,51.9976,-1403.06,0,0
84452.9,52.3945,-1398.06,0,0
84713.225,52.6996,-1392.96,0,0
84973.55,53.0063,-1387.84,0,0
85233.875,53.6361,-1382.84,0,0
85494.2,54.2072,-1378.08,0,0
85754.525,54.4841,-1373.6,0,0
86014.85,54.6817,-1368.96,0,0
86275.175,54.8818,-1364.27,0,0
86535.5,55.0537,-1359.56,0,0
86795.825,55.1939,-1354.99,0,0
87056.15,55.2858,-1350.09,0,0
87316.475,55.6009,-1345.46,0,0
87576.8,55.7723,-1341.02,0,0
87837.125,55.5968,-1336.38,0,0
88097.45,55.6152,-1331.51,0,0
88357.775,55.6544,-1326.51,0,0
88618.1,55.941,-1321.32,0,0
88878.425,56.5454,-1316.54,0,0
89138.75,56.9219,-1311.86,0,0
89399.075,57.4298,-1306.92,0,0
89659.4,58.1082,-1302.1,0,0
89919.725,58.8588,-1297.53,0,0
90180,59.3676,-1292.97,0,0
90440.4,59.9328,-1288.28,0,0
90700.7,60.6414,-1283.57,0,0
90961,61.4982,-1278.8,0,0
91221.3,62.6861,-1274.07,0,0
91481.7,64.3502,-1269.79,0,0
91742,65.6797,-1265.79,0,0
92002.3,66.6432,-1262.17,0,0
92262.6,67.8012,-1257.97,0,0
92523,69.2367,-1254.06,0,0
92783.3,71.1067,-1250.49,0,0
93043.6,72.8558,-1247.48,0,0
93303.9,74.3649,-1244.81,0,0
93564.3,75.9537,-1241.85,0,0
93824.6,78.5622,-1240.5,0,0
94084.9,79.1102,-1241.48,0,0
94345.2,76.2993,-1241.33,0,0
94605.6,73.373,-1237.85,0,0
94865.9,72.2322,-1234.38,0,0
95126.2,70.6259,-1231.09,0,0
95386.5,69.3121,-1227.22,0,0
95646.9,68.001,-1223.29,0,0
95907.2,66.9569,-1219.11,0,0
96167.5,66.3553,-1214.42,0,0
96427.8,66.345,-1210.12,0,0
96688.2,66.2295,-1206.56,0,0
96948.5,65.5854,-1202.83,0,0
97208.8,65.0472,-1198.74,0,0
97469.1,64.6565,-1194.65,0,0
97729.5,64.3539,-1190.5,0,0
97989.8,64.2058,-1186.33,0,0
98250.1,64.137,-1182.22,0,0
98510.4,64.3007,-1178.36,0,0
98770.8,64.2368,-1174.63,0,0
99031.1,63.9554,-1170.93,0,0
99291.4,63.7111,-1167,0,0
99551.7,63.4678,-1163.07,0,0
99812.1,63.3126,-1159.04,0,0
100072,63.1431,-1154.96,0,0
100333,63.0264,-1150.98,0,0
100593,62.9489,-1146.9,0,0
100853,62.8959,-1142.84,0,0
101114,62.8596,-1138.79,0,0
101374,62.8466,-1134.66,0,0
101634,62.8276,-1130.54,0,0
101895,62.7532,-1126.21,0,0
102155,62.8145,-1121.64,0,0
102415,63.2872,-1116.99,0,0
102676,63.9634,-1112.38,0,0
102936,65.0498,-1108.1,0,0
103196,65.9095,-1104.01,0,0
103457,66.9086,-1099.92,0,0
103717,67.8749,-1095.93,0,0
103977,68.9847,-1091.79,0,0
104238,70.6963,-1087.68,0,0
104498,72.4697,-1084.53,0,0
104758,73.6196,-1081.63,0,0
105019,74.5683,-1078.68,0,0
105279,75.2202,-1075.38,0,0
105539,76.224,-1071.84,0,0
105800,77.5119,-1068.39,0,0
106060,78.8261,-1065.21,0,0
106320.175,80.2024,-1062.25,0,0
106580.5,81.5025,-1059.38,0,0
106840.825,82.6921,-1056.73,0,0
107101.15,83.8521,-1053.93,0,0
107361.475,85.1708,-1051.21,0,0
107621.8,86.5442,-1048.95,0,0
107882.125,87.464,-1046.87,0,0
108142.45,88.2707,-1044.52,0,0
108402.775,89.1394,-1042.14,0,0
108663.1,90.0423,-1039.81,0,0
108923.425,90.8623,-1037.65,0,0
109183.75,91.8093,-1035.38,0,0
109444.075,92.8622,-1033.61,0,0
109704.4,93.5792,-1032.09,0,0
109964.725,93.7442,-1030.42,0,0
110225.05,93.7987,-1028.76,0,0
110485.375,93.4468,-1026.93,0,0
110745.7,93.0812,-1024.29,0,0
111006.025,93.1708,-1021.6,0,0
111266.35,93.4462,-1018.84,0,0
111526.675,94.1098,-1016.09,0,0
111787.0,94.7811,-1013.8,0,0
112047.325,95.818,-1011.69,0,0
112307.65,96.3675,-1009.74,0,0
112567.975,96.9473,-1007.95,0,0
112828.3,97.5834,-1006.49,0,0
113088.625,97.8853,-1005.11,0,0
113348.95,97.961,-1003.65,0,0
113609.275,97.8964,-1002.34,0,0
113869.6,97.4566,-1000.97,0,0
114129.925,96.8991,-999.328,0,0
114390.25,96.3439,-997.48,0,0
114650.575,95.9464,-995.715,0,0
114910.9,95.5813,-994.072,0,0
115171.225,94.7944,-992.439,0,0
115431.55,93.8476,-990.635,0,0
115691.875,92.8355,-988.74,0,0
115952.2,91.8052,-986.513,0,0
116212.525,90.8109,-984.154,0,0
116472.85,89.9418,-981.752,0,0
116733.175,89.1219,-979.438,0,0
116993.5,88.085,-977.116,0,0
117253.825,86.9426,-974.539,0,0
117514.15,85.8231,-971.67,0,0
117774.475,84.9315,-968.741,0,0
118034.8,84.0368,-965.734,0,0
118295.125,83.4372,-962.553,0,0
118555.45,82.9544,-959.418,0,0
118815.775,82.4802,-956.433,0,0
119076.1,82.0398,-953.289,0,0
119336.425,81.7754,-950.191,0,0
119596.75,81.5929,-947.066,0,0
119857.075,81.5474,-944.002,0,0
120117.4,81.7546,-941.081,0,0
120377.725,81.8109,-938.355,0,0
120638.05,81.8812,-935.755,0,0
120898.375,81.8442,-933.342,0,0
121158.7,81.5446,-930.988,0,0
121419.025,81.0612,-928.474,0,0
121679.35,80.597,-925.782,0,0
121939.675,80.0477,-923.019,0,0
122200.0,79.6141,-920.034,0,0
122460,79.2936,-917.069,0,0
122721,79.0179,-914.033,0,0
122981,78.8586,-911.014,0,0
123241,78.6813,-908.058,0,0
123502,78.563,-905.004,0,0
123762,78.517,-901.979,0,0
124022,78.5304,-898.966,0,0
124283,78.5713,-896.028,0,0
124543,78.6168,-893.126,0,0
124803,78.6451,-890.195,0,0
125064,78.7254,-887.313,0,0
125324,78.7205,-884.337,0,0
125584,78.8502,-881.31,0,0
125845,79.1187,-878.389,0,0
126105,79.2427,-875.561,0,0
126365,79.4193,-872.636,0,0
126626,79.5983,-869.689,0,0
126886,79.7905,-866.813,0,0
127146,80.043,-863.842,0,0
127406,80.2863,-860.956,0,0
127667,80.6993,-857.953,0,0
127927,80.9054,-854.916,0,0
128187,81.445,-851.839,0,0
128448,82.033,-848.92,0,0
128708,82.6509,-846.125,0,0
128968,83.157,-843.42,0,0
129229,83.5581,-840.673,0,0
129489,84.0926,-837.764,0,0
129749,84.6422,-834.747,0,0
130010,85.4887,-831.844,0,0
130270,86.4375,-829.033,0,0
130530,87.362,-826.426,0,0
130791,88.279,-823.874,0,0
131051,89.1843,-821.401,0,0
131311,90.1564,-818.904,0,0
131572,91.1749,-816.618,0,0
131832,92.0316,-814.481,0,0
132092,92.8451,-812.35,0,0
132353,93.535,-810.274,0,0
132613,94.1233,-808.132,0,0
132873,94.7105,-805.841,0,0
133134,95.4981,-803.661,0,0
133394,96.1907,-801.582,0,0
133654,96.7487,-799.434,0,0
133915,97.2873,-797.202,0,0
134175,97.9724,-794.872,0,0
134435,98.7978,-792.713,0,0
134696,99.5221,-790.616,0,0
134956,100.269,-788.554,0,0
135216,101.03,-786.538,0,0
135477,101.588,-784.534,0,0
135737,102.176,-782.537,0,0
135997,102.781,-780.332,0,0
136258,103.489,-778.17,0,0
136518,104.365,-775.927,0,0
136778,105.451,-773.82,0,0
137039,106.456,-771.994,0,0
137299,107.541,-770.178,0,0
137559,108.757,-768.585,0,0
137819,109.856,-767.442,0,0
138080,110.501,-766.415,0,0
138340.125,110.896,-765.258,0,0
138600.45,111.292,-763.989,0,0
138860.775,111.555,-762.882,0,0
139121.1,111.51,-761.662,0,0
139381.425,111.4,-760.268,0,0
139641.75,111.233,-758.733,0,0
139902.075,111.1,-757.12,0,0
140162.4,110.982,-755.46,0,0
140422.725,110.792,-753.671,0,0
140683.05,110.547,-751.854,0,0
140943.375,110.258,-749.848,0,0
141203.7,110.095,-747.724,0,0
141464.025,110.089,-745.54,0,0
141724.35,110.121,-743.48,0,0
141984.675,109.992,-741.435,0,0
142245.0,109.853,-739.093,0,0
142505.325,109.994,-736.703,0,0
142765.65,110.212,-734.478,0,0
143025.975,110.283,-732.229,0,0
143286.3,110.527,-729.842,0,0
143546.625,110.758,-727.395,0,0
143806.95,111.295,-724.991,0,0
144067.275,111.895,-722.806,0,0
144327.6,112.322,-720.764,0,0
144587.925,112.614,-718.662,0,0
144848.25,112.87,-716.289,0,0
145108.575,113.493,-713.897,0,0
145368.9,114.196,-711.695,0,0
145629.225,114.877,-709.686,0,0
145889.55,115.44,-707.598,0,0
146149.875,116.114,-705.459,0,0
146410.2,116.874,-703.5,0,0
146670.525,117.53,-701.645,0,0
146930.85,118.251,-699.81,0,0
147191.175,118.874,-698.221,0,0
147451.5,119.181,-696.631,0,0
147711.825,119.47,-694.851,0,0
147972.15,119.773,-693.089,0,0
148232.475,119.898,-691.232,0,0
148492.8,120.128,-689.185,0,0
148753.125,120.399,-687.174,0,0
149013.45,120.711,-685.108,0,0
149273.775,121.202,-682.88,0,0
149534.1,121.966,-680.932,0,0
149794.425,122.624,-679.409,0,0
150054.75,122.795,-677.955,0,0
150315.075,122.853,-676.302,0,0
150575.4,122.862,-674.602,0,0
150835.725,122.716,-672.946,0,0
151096.05,122.292,-671.07,0,0
151356.375,121.834,-668.787,0,0
151616.7,121.575,-666.361,0,0
151877.025,121.381,-663.945,0,0
152137.35,121.086,-661.436,0,0
152397.675,120.748,-658.734,0,0
152658.0,120.471,-655.63,0,0
152918.325,120.467,-652.353,0,0
153178.65,120.802,-649.012,0,0
153438.975,121.297,-645.76,0,0
153699.3,121.893,-642.483,0,0
153959.625,122.591,-639.306,0,0
154219.95,123.333,-636.014,0,0
154480,124.172,-632.717,0,0
154741,125.253,-629.301,0,0
155001,126.452,-626.01,0,0
155261,127.75,-622.721,0,0
155522,129.042,-619.283,0,0
155782,130.631,-615.758,0,0
156042,132.562,-612.233,0,0
156303,134.819,-608.932,0,0
156563,137.247,-605.893,0,0
156823,139.745,-603.073,0,0
157084,142.324,-600.404,0,0
157344,145.095,-597.973,0,0
157604,147.881,-595.962,0,0
157864,150.402,-594.377,0,0
158125,152.477,-592.777,0,0
158385,154.526,-590.925,0,0
158645,156.593,-589.264,0,0
158906,158.196,-587.724,0,0
159166,159.345,-585.542,0,0
159426,160.767,-582.628,0,0
159687,162.968,-579.402,0,0
159947,165.759,-576.183,0,0
160207,169.109,-573.283,0,0
160468,172.98,-570.922,0,0
160728,176.813,-568.894,0,0
160988,180.966,-567.273,0,0
161249,185.148,-566.157,0,0
161509,189.236,-565.743,0,0
161769,192.928,-565.595,0,0
162030,196.491,-565.653,0,0
162290,199.757,-566.12,0,0
162550,202.481,-566.654,0,0
162811,204.924,-567.159,0,0
163071,206.977,-567.521,0,0
163331,208.825,-567.484,0,0
163592,210.822,-567.129,0,0
163852,213.063,-566.589,0,0
164112,215.641,-566.05,0,0
164373,218.632,-565.663,0,0
164633,221.778,-565.848,0,0
164893,224.593,-566.222,0,0
165154,227.575,-566.552,0,0
165414,230.757,-567.457,0,0
165674,233.598,-568.677,0,0
165935,236.436,-570.048,0,0
166195,239.166,-571.882,0,0
166455,241.365,-574.068,0,0
166716,243.066,-576.142,0,0
166976,244.667,-578.068,0,0
167236,246.295,-580.022,0,0
167497,247.967,-582.354,0,0
167757,249.175,-585.126,0,0
168017,249.784,-587.994,0,0
168277,249.886,-590.721,0,0
168538,249.663,-593.307,0,0
168798,249.122,-595.686,0,0
169058,248.353,-597.901,0,0
169319,247.328,-600.13,0,0
169579,245.795,-602.257,0,0
169839,243.726,-603.805,0,0
170100,241.419,-604.8,0,0
170360.075,239.195,-605.055,0,0
170620.4,237.424,-604.914,0,0
170880.725,235.863,-604.759,0,0
171141.05,234.205,-604.483,0,0
171401.375,232.657,-603.702,0,0
171661.7,231.592,-602.69,0,0
171922.025,230.84,-601.901,0,0
172182.35,230.027,-601.052,0,0
172442.675,229.475,-600.022,0,0
172703.0,229.43,-599.264,0,0
172963.325,229.221,-599,0,0
173223.65,228.612,-598.775,0,0
173483.975,227.837,-598.308,0,0
173744.3,227.153,-597.58,0,0
174004.625,226.704,-596.698,0,0
174264.95,226.438,-595.961,0,0
174525.275,226.204,-595.421,0,0
174785.6,225.899,-594.932,0,0
175045.925,225.504,-594.396,0,0
175306.25,225.116,-593.705,0,0
175566.575,224.979,-593.116,0,0
175826.9,224.811,-592.872,0,0
176087.225,224.469,-592.758,0,0
176347.55,223.811,-592.668,0,0
176607.875,222.906,-592.399,0,0
176868.2,221.946,-591.772,0,0
177128.525,221.208,-590.948,0,0
177388.85,220.602,-590.162,0,0
177649.175,220.204,-589.377,0,0
177909.5,219.957,-588.83,0,0
178169.825,219.57,-588.635,0,0
178430.15,218.789,-588.601,0,0
178690.475,217.737,-588.353,0,0
178950.8,216.604,-587.963,0,0
179211.125,215.321,-587.473,0,0
179471.45,214.068,-586.848,0,0
179731.775,212.852,-586.292,0,0
179992.1,211.341,-585.789,0,0
180252.425,209.324,-584.937,0,0
180512.75,207.416,-583.566,0,0
180773.075,205.751,-582.066,0,0
181033.4,204.252,-580.463,0,0
181293.725,202.718,-578.813,0,0
181554.05,201.325,-576.991,0,0
181814.375,199.91,-575.258,0,0
182074.7,198.323,-573.443,0,0
182335.025,196.691,-571.229,0,0
182595.35,195.34,-568.723,0,0
182855.675,194.293,-566.292,0,0
183116.0,193.282,-563.876,0,0
183376.325,192.233,-561.436,0,0
183636.65,191.319,-558.903,0,0
183896.975,190.397,-556.343,0,0
184157.3,189.488,-553.699,0,0
184417.625,188.625,-550.89,0,0
184677.95,187.921,-547.989,0,0
184938.275,187.298,-545.003,0,0
185198.6,186.895,-541.906,0,0
185458.925,186.664,-538.868,0,0
185719.25,186.467,-535.917,0,0
185979.575,186.278,-532.907,0,0
186239.9,186.244,-529.827,0,0
186500,186.326,-526.737,0,0
186761,186.356,-523.773,0,0
187021,186.336,-520.625,0,0
187281,186.448,-517.283,0,0
187542,186.933,-513.713,0,0
187802,187.892,-510.457,0,0
188062,188.886,-507.475,0,0
188322,189.739,-504.777,0,0
188583,190.427,-502.113,0,0
188843,191.059,-499.25,0,0
189103,191.834,-496.443,0,0
189364,192.687,-493.769,0,0
189624,193.259,-491.208,0,0
189884,193.767,-488.39,0,0
190145,194.288,-485.33,0,0
190405,194.987,-482.334,0,0
190665,195.675,-479.211,0,0
190926,196.336,-476.092,0,0
191186,197.134,-472.853,0,0
191446,198.087,-469.477,0,0
191707,198.969,-465.998,0,0
191967,200.072,-462.397,0,0
192227,201.426,-458.775,0,0
192488,203.044,-455.148,0,0
192748,204.602,-451.738,0,0
193008,206.302,-448.074,0,0
193269,208.185,-444.534,0,0
193529,210.22,-441.03,0,0
193789,212.365,-437.629,0,0
194050,214.647,-434.292,0,0
194310,216.896,-431.082,0,0
194570,219.175,-427.868,0,0
194831,221.392,-424.606,0,0
195091,223.687,-421.224,0,0
195351,226.198,-417.844,0,0
195612,228.936,-414.463,0,0
195872,231.686,-411.092,0,0
196132,234.574,-407.867,0,0
196393,237.662,-404.564,0,0
196653,240.833,-401.44,0,0
196913,244.052,-398.571,0,0
197174,247.21,-395.638,0,0
197434,250.429,-392.768,0,0
197694,253.673,-389.825,0,0
197955,257.113,-387.069,0,0
198215,260.395,-384.308,0,0
198475,263.637,-381.411,0,0
198735,267.029,-378.547,0,0
198996,270.541,-375.525,0,0
199256,273.961,-372.532,0,0
199516,277.425,-369.286,0,0
199777,281.146,-365.886,0,0
200037,285.23,-362.308,0,0
200297,289.737,-358.807,0,0
200558,294.472,-355.588,0,0
200818,299.159,-352.406,0,0
201078,303.931,-349.227,0,0
201339,308.905,-345.797,0,0
201599,314.16,-342.169,0,0
201859,319.94,-338.556,0,0
202120,326.143,-334.961,0,0
202380.025,332.86,-331.42,0,0
202640.35,340.094,-328.244,0,0
202900.675,347.904,-325.223,0,0
203161.0,356.069,-322.822,0,0
203421.325,364.531,-320.685,0,0
203681.65,373.27,-318.832,0,0
203941.975,382.633,-317.394,0,0
204202.3,392.52,-316.762,0,0
204462.625,402.602,-316.797,0,0
204722.95,412.857,-317.549,0,0
204983.275,423.234,-319.328,0,0
205243.6,433.485,-321.878,0,0
205503.925,443.38,-325.249,0,0
205764.25,453.052,-329.295,0,0
206024.575,462.389,-333.971,0,0
206284.9,471.448,-339.127,0,0
206545.225,480.072,-345.189,0,0
206805.55,487.898,-351.952,0,0
207065.875,494.919,-358.818,0,0
207326.2,501.293,-365.909,0,0
207586.525,507.198,-372.961,0,0
207846.85,512.752,-380.206,0,0
208107.175,518.059,-387.678,0,0
208367.5,522.809,-395.51,0,0
208627.825,526.891,-403.509,0,0
208888.15,530.452,-411.664,0,0
209148.475,533.573,-419.942,0,0
209408.8,536.016,-428.638,0,0
209669.125,537.487,-437.4,0,0
209929.45,537.978,-446.23,0,0
210189.775,537.059,-454.761,0,0
210450.1,534.993,-462.318,0,0
210710.425,532.091,-468.616,0,0
210970.75,529.25,-473.52,0,0
211231.075,526.602,-477.643,0,0
211491.4,524.001,-481.124,0,0
211751.725,521.348,-483.682,0,0
212012.05,519.044,-485.22,0,0
212272.375,517.352,-485.828,0,0
212532.7,516.679,-485.869,0,0
212793.025,516.977,-485.634,0,0
213053.35,518.28,-485.729,0,0
213313.675,520.259,-485.932,0,0
213574.0,522.96,-486.597,0,0
213834.325,526.311,-487.971,0,0
214094.65,529.688,-490.492,0,0
214354.975,532.725,-493.535,0,0
214615.3,534.962,-497.24,0,0
214875.625,536.986,-500.532,0,0
215135.95,538.848,-503.594,0,0
215396.275,540.692,-506.615,0,0
215656.6,542.791,-509.553,0,0
215916.925,544.916,-512.803,0,0
216177.25,546.896,-516.154,0,0
216437.575,548.797,-519.519,0,0
216697.9,550.613,-522.963,0,0
216958.225,552.242,-526.392,0,0
217218.55,553.821,-529.577,0,0
217478.875,555.577,-532.798,0,0
217739.2,557.337,-536.032,0,0
217999.525,559.003,-539.25,0,0
218259.85,560.705,-542.273,0,0
218520,562.577,-545.091,0,0
218780,564.766,-547.788,0,0
219041,567.478,-550.653,0,0
219301,570.494,-553.727,0,0
219561,573.777,-557.081,0,0
219822,577.199,-560.813,0,0
220082,580.946,-564.872,0,0
220342,584.809,-569.441,0,0
220603,588.712,-574.638,0,0
220863,592.2,-580.209,0,0
221123,595.819,-586.003,0,0
221384,599.412,-592.346,0,0
221644,602.854,-599.123,0,0
221904,606.166,-606.448,0,0
222165,609.233,-614.355,0,0
222425,611.799,-622.795,0,0
222685,613.806,-631.735,0,0
222946,615.002,-640.929,0,0
223206,616.109,-650.106,0,0
223466,616.379,-659.61,0,0
223727,615.995,-669.259,0,0
223987,615.133,-678.753,0,0
224247,613.864,-688.301,0,0
224508,612.013,-697.802,0,0
224768,609.627,-707.335,0,0
225028,606.738,-716.541,0,0
225289,603.98,-725.748,0,0
225549,600.411,-734.935,0,0
225809,596.319,-743.985,0,0
226070,592.062,-752.81,0,0
226330,587.22,-761.677,0,0
226590,581.782,-770.485,0,0
226851,575.768,-778.822,0,0
227111,569.441,-786.641,0,0
227371,562.894,-794.107,0,0
227632,556.084,-801.413,0,0
227892,548.901,-808.567,0,0
228152,541.126,-815.207,0,0
228413,533.084,-821.566,0,0
228673,524.672,-827.295,0,0
228933,515.706,-832.509,0,0
229193,506.84,-836.979,0,0
229454,498.006,-840.854,0,0
229714,488.965,-844.269,0,0
229974,479.793,-847.424,0,0
230235,470.668,-849.53,0,0
230495,462.172,-851.374,0,0
230755,453.427,-852.616,0,0
231016,445.061,-853.404,0,0
231276,436.848,-853.838,0,0
231536,428.933,-854.033,0,0
231797,421.241,-853.672,0,0
232057,413.881,-853.241,0,0
232317,406.765,-852.418,0,0
232578,400.019,-851.319,0,0
232838,393.649,-849.99,0,0
233098,387.696,-848.518,0,0
233359,382.17,-847.05,0,0
233619,377.084,-845.686,0,0
233879,372.271,-844.476,0,0
234140,367.652,-843.335,0,0
234400,363.329,-842.269,0,0
234660.3,359.049,-841.83,0,0
234920.625,354.515,-841.286,0,0
235180.95,350.051,-841.057,0,0
235441.275,345.187,-840.808,0,0
235701.6,340.349,-840.339,0,0
235961.925,335.523,-839.743,0,0
236222.25,330.63,-839.009,0,0
236482.575,325.921,-838.117,0,0
236742.9,321.228,-837.246,0,0
237003.225,316.6,-836.358,0,0
237263.55,311.949,-835.456,0,0
237523.875,307.222,-834.545,0,0
237784.2,302.478,-833.393,0,0
238044.525,297.628,-832.17,0,0
238304.85,292.806,-830.699,0,0
238565.175,287.955,-829.084,0,0
238825.5,283.432,-827.112,0,0
239085.825,279.075,-825.095,0,0
239346.15,274.863,-822.998,0,0
239606.475,270.815,-820.811,0,0
239866.8,266.876,-818.794,0,0
240127.125,262.991,-816.581,0,0
240387.45,259.302,-814.357,0,0
240647.775,255.687,-812.091,0,0
240908.1,252.226,-809.832,0,0
241168.425,248.839,-807.619,0,0
241428.75,245.459,-805.499,0,0
241689.075,242.083,-803.221,0,0
241949.4,238.867,-801.012,0,0
242209.725,235.756,-798.613,0,0
242470.05,232.606,-796.07,0,0
242730.375,229.664,-793.573,0,0
242990.7,226.915,-791.05,0,0
243251.025,224.347,-788.548,0,0
243511.35,221.888,-786.138,0,0
243771.675,219.511,-783.9,0,0
244032.0,217.153,-781.671,0,0
244292.325,214.995,-779.459,0,0
244552.65,212.751,-777.514,0,0
244812.975,210.435,-775.667,0,0
245073.3,207.979,-773.637,0,0
245333.625,205.444,-771.78,0,0
245593.95,203.083,-769.76,0,0
245854.275,200.528,-767.653,0,0
246114.6,198.108,-765.5,0,0
246374.925,195.635,-763.344,0,0
246635.25,193.143,-761.11,0,0
246895.575,190.753,-758.766,0,0
247155.9,188.401,-756.307,0,0
247416.225,186.274,-753.865,0,0
247676.55,184.118,-751.3,0,0
247936.875,182.111,-748.768,0,0
248197.2,180.168,-746.348,0,0
248457.525,178.267,-743.804,0,0
248717.85,176.401,-741.38,0,0
248978.175,174.571,-738.863,0,0
249238.5,172.801,-736.285,0,0
249498.825,171.252,-733.752,0,0
249759.15,169.616,-731.198,0,0
250019.475,168.163,-728.728,0,0
250279.8,166.782,-726.083,0,0
250540,165.404,-723.57,0,0
250800,164.116,-721.151,0,0
251061,162.831,-718.687,0,0
251321,161.601,-716.314,0,0
251581,160.422,-713.963,0,0
251842,159.24,-711.753,0,0
252102,157.952,-709.409,0,0
252362,156.764,-707.099,0,0
252623,155.486,-704.747,0,0
252883,154.292,-702.339,0,0
253143,153.074,-699.863,0,0
253404,151.991,-697.323,0,0
253664,150.896,-694.695,0,0
253924,150.052,-692.091,0,0
254185,149.271,-689.484,0,0
254445,148.619,-686.903,0,0
254705,148.007,-684.402,0,0
254966,147.484,-681.818,0,0
255226,146.908,-679.604,0,0
255486,146.669,-677.17,0,0
255747,146.101,-674.892,0,0
256007,145.721,-672.726,0,0
256267,145.241,-670.454,0,0
256528,144.767,-668.18,0,0
256788,144.358,-665.857,0,0
257048,143.988,-663.57,0,0
257309,143.69,-661.313,0,0
257569,143.374,-659.024,0,0
257829,143.088,-656.761,0,0
258090,142.893,-654.386,0,0
258350,142.736,-652.02,0,0
258610,142.711,-649.56,0,0
258871,142.741,-647.185,0,0
259131,142.951,-644.779,0,0
259391,143.221,-642.342,0,0
259651,143.642,-640.022,0,0
259912,144.193,-637.725,0,0
260172,144.814,-635.648,0,0
260432,145.54,-633.606,0,0
260693,146.306,-631.666,0,0
260953,147.127,-629.823,0,0
261213,147.968,-628.052,0,0
261474,148.833,-626.411,0,0
261734,149.694,-624.851,0,0
261994,150.582,-623.372,0,0
262255,151.465,-621.909,0,0
262515,152.39,-620.563,0,0
262775,153.295,-619.197,0,0
263036,154.262,-617.961,0,0
263296,155.237,-616.773,0,0
263556,156.23,-615.645,0,0
263817,157.276,-614.595,0,0
264077,158.3,-613.552,0,0
264337,159.472,-612.621,0,0
264598,160.567,-611.766,0,0
264858,161.888,-611.049,0,0
265118,163.247,-610.397,0,0
265379,164.45,-609.965,0,0
265639,165.897,-609.679,0,0
265899,167.26,-609.587,0,0
266160,168.584,-609.672,0,0
266420,169.954,-609.948,0,0
266680.25,171.172,-610.489,0,0
266940.575,172.353,-611.262,0,0
267200.9,173.384,-612.347,0,0
267461.225,174.12,-613.629,0,0
267721.55,174.521,-615.122,0,0
267981.875,174.641,-616.683,0,0
268242.2,174.397,-618.304,0,0
268502.525,173.867,-619.921,0,0
268762.85,172.971,-621.48,0,0
269023.175,171.628,-622.929,0,0
269283.5,170.099,-624.191,0,0
269543.825,168.332,-625.18,0,0
269804.15,166.385,-625.905,0,0
270064.475,164.208,-626.375,0,0
270324.8,161.958,-626.567,0,0
270585.125,159.615,-626.497,0,0
270845.45,157.366,-626.095,0,0
271105.775,155.033,-625.391,0,0
271366.1,152.929,-624.512,0,0
271626.425,150.759,-623.344,0,0
271886.75,148.819,-621.96,0,0
272147.075,147.014,-620.392,0,0
272407.4,145.43,-618.729,0,0
272667.725,144.053,-616.889,0,0
272928.05,142.896,-615.074,0,0
273188.375,141.902,-613.231,0,0
273448.7,141.046,-611.426,0,0
273709.025,140.308,-609.605,0,0
273969.35,139.662,-607.884,0,0
274229.675,139.12,-606.206,0,0
274490.0,138.685,-604.409,0,0
274750.325,138.375,-602.753,0,0
275010.65,138.047,-601.14,0,0
275270.975,137.828,-599.478,0,0
275531.3,137.686,-597.91,0,0
275791.625,137.662,-596.329,0,0
276051.95,137.636,-594.8,0,0
276312.275,137.775,-593.34,0,0
276572.6,137.922,-591.957,0,0
276832.925,138.162,-590.626,0,0
277093.25,138.476,-589.384,0,0
277353.575,138.796,-588.242,0,0
277613.9,139.146,-587.206,0,0
277874.225,139.481,-586.307,0,0
278134.55,139.773,-585.498,0,0
278394.875,140.053,-584.777,0,0
278655.2,140.265,-584.111,0,0
278915.525,140.384,-583.547,0,0
279175.85,140.374,-582.942,0,0
279436.175,140.313,-582.324,0,0
279696.5,140.213,-581.659,0,0
279956.825,140.129,-581.007,0,0
280217.15,139.98,-580.177,0,0
280477.475,139.881,-579.459,0,0
280737.8,139.869,-578.614,0,0
280998.125,139.915,-577.851,0,0
281258.45,140.033,-577.167,0,0
281518.775,140.14,-576.57,0,0
281779.1,140.224,-576.08,0,0
282039.425,140.236,-575.715,0,0
282299.75,140.058,-575.362,0,0
282560,139.702,-574.978,0,0
282820,139.287,-574.561,0,0
283081,138.883,-573.887,0,0
283341,138.486,-573.104,0,0
283601,138.307,-572.368,0,0
283862,138.106,-571.65,0,0
284122,137.923,-570.92,0,0
284382,137.73,-570.347,0,0
284643,137.401,-569.676,0,0
284903,137.161,-569.114,0,0
285163,136.928,-568.489,0,0
285424,136.609,-567.943,0,0
285684,136.213,-567.482,0,0
285944,135.702,-566.905,0,0
286205,135.046,-566.202,0,0
286465,134.34,-565.536,0,0
286725,133.669,-564.691,0,0
286986,132.84,-563.65,0,0
287246,132.132,-562.467,0,0
287506,131.545,-561.183,0,0
287767,130.993,-559.788,0,0
288027,130.683,-558.301,0,0
288287,130.339,-556.616,0,0
288548,130.249,-555.058,0,0
288808,130.346,-553.411,0,0
289068,130.653,-551.776,0,0
289329,131.104,-550.273,0,0
289589,131.724,-548.826,0,0
289849,132.502,-547.671,0,0
290109,133.378,-546.766,0,0
290370,134.092,-546.006,0,0
290630,134.796,-545.515,0,0
290890,135.282,-545.035,0,0
291151,135.709,-544.641,0,0
291411,135.989,-544.226,0,0
291671,136.202,-543.865,0,0
291932,136.308,-543.406,0,0
292192,136.292,-542.948,0,0
292452,136.245,-542.492,0,0
292713,136.155,-541.922,0,0
292973,135.935,-541.349,0,0
293233,135.734,-540.668,0,0
293494,135.493,-539.854,0,0
293754,135.346,-538.955,0,0
294014,135.19,-537.968,0,0
294275,135.052,-536.985,0,0
294535,135.093,-535.918,0,0
294795,135.144,-534.772,0,0
295056,135.135,-533.664,0,0
295316,135.32,-532.377,0,0
295576,135.572,-531.16,0,0
295837,135.867,-529.932,0,0
296097,136.342,-528.751,0,0
296357,136.889,-527.529,0,0
296618,137.428,-526.338,0,0
296878,138.067,-525.244,0,0
297138,138.762,-524.156,0,0
297399,139.583,-523.042,0,0
297659,140.359,-522.062,0,0
297919,141.28,-521.06,0,0
298180,142.252,-520.184,0,0
298440,143.314,-519.291,0,0
298700.2,144.32,-518.604,0,0
298960.525,145.338,-517.917,0,0
299220.85,146.52,-517.247,0,0
299481.175,147.569,-516.648,0,0
299741.5,148.717,-516.213,0,0
300001.825,149.811,-515.696,0,0
300262.15,151.008,-515.371,0,0
300522.475,152.261,-515.025,0,0
300782.8,153.373,-514.766,0,0
301043.125,154.482,-514.569,0,0
301303.45,155.783,-514.423,0,0
301563.775,156.973,-514.323,0,0
301824.1,158.253,-514.293,0,0
302084.425,159.608,-514.428,0,0
302344.75,160.828,-514.676,0,0
302605.075,162.077,-515.003,0,0
302865.4,163.21,-515.467,0,0
303125.725,164.217,-516.013,0,0
303386.05,165.225,-516.607,0,0
303646.375,166.114,-517.144,0,0
303906.7,166.885,-517.67,0,0
304167.025,167.773,-518.207,0,0
304427.35,168.575,-518.766,0,0
304687.675,169.464,-519.378,0,0
304948.0,170.323,-520.124,0,0
305208.325,171.074,-520.81,0,0
305468.65,171.74,-521.527,0,0
305728.975,172.499,-522.278,0,0
305989.3,173.301,-523.033,0,0
306249.625,174.085,-523.933,0,0
306509.95,174.856,-524.824,0,0
306770.275,175.685,-525.989,0,0
307030.6,176.391,-527.271,0,0
307290.925,176.95,-528.752,0,0
307551.25,177.372,-530.287,0,0
307811.575,177.555,-531.779,0,0
308071.9,177.482,-533.238,0,0
308332.225,177.439,-534.743,0,0
308592.55,177.269,-536.026,0,0
308852.875,176.982,-537.34,0,0
309113.2,176.716,-538.692,0,0
309373.525,176.333,-539.867,0,0
309633.85,175.92,-541.074,0,0
309894.175,175.556,-542.226,0,0
310154.5,175.16,-543.485,0,0
310414.825,174.709,-544.688,0,0
310675.15,174.174,-545.93,0,0
310935.475,173.521,-547.288,0,0
311195.8,172.741,-548.514,0,0
311456.125,171.89,-549.774,0,0
311716.45,171.074,-550.986,0,0
311976.775,170.05,-552.201,0,0
312237.1,168.909,-553.243,0,0
312497.425,167.698,-554.272,0,0
312757.75,166.362,-555.133,0,0
313018.075,165.096,-555.89,0,0
313278.4,163.891,-556.531,0,0
313538.725,162.689,-557.146,0,0
313799.05,161.486,-557.691,0,0
314059.375,160.335,-558.185,0,0
314319.7,159.179,-558.705,0,0
314580,158.017,-559.222,0,0
314840,156.967,-559.77,0,0
315101,155.952,-560.346,0,0
315361,154.71,-560.978,0,0
315621,153.508,-561.589,0,0
315882,152.087,-562.272,0,0
316142,150.686,-562.744,0,0
316402,149.188,-563.251,0,0
316663,147.659,-563.775,0,0
316923,146.077,-564.107,0,0
317183,144.436,-564.398,0,0
317444,142.79,-564.523,0,0
317704,141.154,-564.702,0,0
317964,139.469,-564.747,0,0
318225,137.815,-564.791,0,0
318485,136.119,-564.721,0,0
318745,134.407,-564.536,0,0
319006,132.768,-564.361,0,0
319266,131.032,-563.995,0,0
319526,129.42,-563.686,0,0
319787,127.702,-563.276,0,0
320047,126.134,-562.81,0,0
320307,124.571,-562.227,0,0
320567,122.811,-561.699,0,0
320828,121.296,-561.035,0,0
321088,119.705,-560.259,0,0
321348,118.166,-559.493,0,0
321609,116.647,-558.663,0,0
321869,115.161,-557.621,0,0
322129,113.779,-556.647,0,0
322390,112.43,-555.498,0,0
322650,111.178,-554.327,0,0
322910,110.028,-553.023,0,0
323171,109.062,-551.77,0,0
323431,108.12,-550.495,0,0
323691,107.412,-549.256,0,0
323952,106.678,-547.891,0,0
324212,106.099,-546.737,0,0
324472,105.517,-545.634,0,0
324733,105.01,-544.54,0,0
324993,104.622,-543.458,0,0
325253,104.192,-542.426,0,0
325514,103.787,-541.437,0,0
325774,103.516,-540.47,0,0
326034,103.162,-539.563,0,0
326295,102.991,-538.752,0,0
326555,102.778,-537.889,0,0
326815,102.596,-537.196,0,0
327076,102.469,-536.562,0,0
327336,102.267,-535.972,0,0
327596,101.988,-535.432,0,0
327857,101.76,-534.994,0,0
328117,101.491,-534.447,0,0
328377,101.189,-534.074,0,0
328638,100.879,-533.573,0,0
328898,100.523,-533.178,0,0
329158,100.216,-532.856,0,0
329419,99.7974,-532.527,0,0
329679,99.396,-532.189,0,0
329939,98.9268,-531.885,0,0
330200,98.4375,-531.58,0,0
330460,97.9892,-531.226,0,0
330720.15,97.3445,-530.928,0,0
330980.475,96.8011,-530.631,0,0
331240.8,96.2316,-530.285,0,0
331501.125,95.5522,-529.934,0,0
331761.45,94.9278,-529.601,0,0
332021.775,94.2965,-529.245,0,0
332282.1,93.6582,-528.846,0,0
332542.425,93.0477,-528.484,0,0
332802.75,92.3048,-528.121,0,0
333063.075,91.5959,-527.659,0,0
333323.4,90.8831,-527.312,0,0
333583.725,90.107,-526.94,0,0
333844.05,89.3201,-526.477,0,0
334104.375,88.5042,-525.963,0,0
334364.7,87.6364,-525.419,0,0
334625.025,86.8038,-524.851,0,0
334885.35,85.9966,-524.259,0,0
335145.675,85.1696,-523.531,0,0
335406.0,84.3965,-522.887,0,0
335666.325,83.6458,-522.213,0,0
335926.65,82.9231,-521.435,0,0
336186.975,82.2031,-520.766,0,0
336447.3,81.485,-519.922,0,0
336707.625,80.7364,-519.23,0,0
336967.95,80.0609,-518.451,0,0
337228.275,79.4091,-517.666,0,0
337488.6,78.7035,-516.876,0,0
337748.925,78.0738,-516.044,0,0
338009.25,77.4823,-515.19,0,0
338269.575,76.9115,-514.341,0,0
338529.9,76.317,-513.559,0,0
338790.225,75.7409,-512.716,0,0
339050.55,75.2102,-511.898,0,0
339310.875,74.7112,-511.051,0,0
339571.2,74.2306,-510.186,0,0
339831.525,73.703,-509.378,0,0
340091.85,73.2618,-508.535,0,0
340352.175,72.838,-507.773,0,0
340612.5,72.3582,-506.927,0,0
340872.825,71.921,-506.158,0,0
341133.15,71.5012,-505.399,0,0
341393.475,71.0558,-504.62,0,0
341653.8,70.6468,-503.834,0,0
341914.125,70.1777,-503.031,0,0
342174.45,69.6883,-502.264,0,0
342434.775,69.2608,-501.5,0,0
342695.1,68.7729,-500.695,0,0
342955.425,68.3931,-499.911,0,0
343215.75,67.8643,-499.126,0,0
343476.075,67.4469,-498.368,0,0
343736.4,67.0505,-497.522,0,0
343996.725,66.6459,-496.737,0,0
344257.05,66.1768,-495.965,0,0
344517.375,65.7671,-495.107,0,0
344777.7,65.3512,-494.316,0,0
345038.025,64.8919,-493.492,0,0
345298.35,64.453,-492.659,0,0
345558.675,64.0667,-491.829,0,0
345819.0,63.6282,-491.007,0,0
346079.325,63.1896,-490.095,0,0
346339.65,62.7625,-489.234,0,0
346599.975,62.3659,-488.347,0,0
346860,61.9432,-487.408,0,0
347121,61.6016,-486.519,0,0
347381,61.2578,-485.578,0,0
347641,60.8792,-484.547,0,0
347902,60.6383,-483.627,0,0
348162,60.3359,-482.717,0,0
348422,60.1183,-481.67,0,0
348683,59.943,-480.768,0,0
348943,59.7449,-479.869,0,0
349203,59.5578,-478.966,0,0
349464,59.3473,-478.087,0,0
349724,59.1525,-477.227,0,0
349984,58.963,-476.346,0,0
350245,58.8027,-475.454,0,0
350505,58.6291,-474.611,0,0
350765,58.4479,-473.733,0,0
351025,58.2705,-472.848,0,0
351286,58.1146,-471.964,0,0
351546,57.9697,-471.032,0,0
351806,57.8756,-470.176,0,0
352067,57.7808,-469.397,0,0
352327,57.6755,-468.505,0,0
352587,57.6279,-467.673,0,0
352848,57.531,-466.854,0,0
353108,57.4292,-466.089,0,0
353368,57.3552,-465.254,0,0
353629,57.225,-464.458,0,0
353889,57.1747,-463.643,0,0
354149,57.0323,-462.859,0,0
354410,57.0066,-462.084,0,0
354670,56.9513,-461.28,0,0
354930,56.8584,-460.439,0,0
355191,56.7776,-459.685,0,0
355451,56.6912,-458.865,0,0
355711,56.625,-458.061,0,0
355972,56.6016,-457.294,0,0
356232,56.5435,-456.53,0,0
356492,56.4487,-455.776,0,0
356753,56.4076,-455,0,0
357013,56.4008,-454.258,0,0
357273,56.3781,-453.453,0,0
357534,56.2993,-452.705,0,0
357794,56.2626,-451.932,0,0
358054,56.1906,-451.106,0,0
358315,56.1041,-450.376,0,0
358575,56.0988,-449.565,0,0
358835,56.0857,-448.778,0,0
359096,56.0459,-447.965,0,0
359356,56.0253,-447.212,0,0
359616,56.0293,-446.395,0,0
359877,56.0879,-445.625,0,0
360137,56.1429,-444.846,0,0
360397,56.1467,-444.098,0,0
360658,56.2116,-443.345,0,0
360918,56.2771,-442.626,0,0
361178,56.3059,-441.91,0,0
361438,56.2844,-441.196,0,0
361699,56.3207,-440.444,0,0
361959,56.3867,-439.755,0,0
362219,56.4319,-438.996,0,0
362480,56.4532,-438.241,0,0
362740.1,56.478,-437.512,0,0
363000.425,56.5196,-436.764,0,0
363260.75,56.5413,-436.03,0,0
363521.075,56.5522,-435.286,0,0
363781.4,56.6481,-434.528,0,0
364041.725,56.7132,-433.768,0,0
364302.05,56.8341,-432.99,0,0
364562.375,56.9282,-432.223,0,0
364822.7,57.0601,-431.481,0,0
365083.025,57.2058,-430.752,0,0
365343.35,57.3342,-429.995,0,0
365603.675,57.4648,-429.336,0,0
365864.0,57.6062,-428.641,0,0
366124.325,57.7235,-427.962,0,0
366384.65,57.8345,-427.318,0,0
366644.975,57.9215,-426.683,0,0
366905.3,57.9883,-425.998,0,0
367165.625,58.0341,-425.305,0,0
367425.95,58.0193,-424.565,0,0
367686.275,58.0713,-423.782,0,0
367946.6,58.0978,-422.974,0,0
368206.925,58.2082,-422.083,0,0
368467.25,58.3612,-421.232,0,0
368727.575,58.522,-420.355,0,0
368987.9,58.7434,-419.484,0,0
369248.225,58.9872,-418.598,0,0
369508.55,59.2638,-417.726,0,0
369768.875,59.5914,-416.89,0,0
370029.2,59.9231,-416.02,0,0
370289.525,60.3142,-415.199,0,0
370549.85,60.7819,-414.325,0,0
370810.175,61.2071,-413.509,0,0
371070.5,61.677,-412.68,0,0
371330.825,62.1688,-411.9,0,0
371591.15,62.7536,-411.163,0,0
371851.475,63.3663,-410.417,0,0
372111.8,64.005,-409.817,0,0
372372.125,64.6581,-409.177,0,0
372632.45,65.31,-408.65,0,0
372892.775,65.9624,-408.122,0,0
373153.1,66.5986,-407.67,0,0
373413.425,67.2509,-407.226,0,0
373673.75,67.8742,-406.837,0,0
373934.075,68.5226,-406.492,0,0
374194.4,69.1447,-406.192,0,0
374454.725,69.717,-405.837,0,0
374715.05,70.3199,-405.601,0,0
374975.375,70.8857,-405.347,0,0
375235.7,71.425,-405.147,0,0
375496.025,71.9758,-404.951,0,0
375756.35,72.5203,-404.733,0,0
376016.675,73.0032,-404.592,0,0
376277.0,73.5309,-404.469,0,0
376537.325,74.0204,-404.374,0,0
376797.65,74.4784,-404.233,0,0
377057.975,74.9429,-404.156,0,0
377318.3,75.3757,-404.066,0,0
377578.625,75.825,-404.032,0,0
377838.95,76.2336,-404,0,0
378099.275,76.645,-403.947,0,0
378359.6,76.9482,-403.937,0,0
378619.925,77.2253,-403.975,0,0
378880,77.5457,-403.972,0,0
379141,77.8036,-403.945,0,0
379401,78.1059,-403.933,0,0
379661,78.3257,-403.832,0,0
379922,78.5963,-403.77,0,0
380182,78.848,-403.649,0,0
380442,79.245,-403.512,0,0
380703,79.6131,-403.44,0,0
380963,80.0265,-403.37,0,0
381223,80.5162,-403.367,0,0
381483,80.957,-403.511,0,0
381744,81.4055,-403.67,0,0
382004,81.7923,-403.918,0,0
382264,82.1808,-404.233,0,0
382525,82.5054,-404.53,0,0
382785,82.7242,-404.929,0,0
383045,82.943,-405.31,0,0
383306,83.1038,-405.735,0,0
383566,83.1791,-406.191,0,0
383826,83.2615,-406.626,0,0
384087,83.1615,-407.147,0,0
384347,82.9889,-407.571,0,0
384607,82.8255,-408.037,0,0
384868,82.5347,-408.421,0,0
385128,82.2232,-408.788,0,0
385388,81.8815,-409.106,0,0
385649,81.4952,-409.423,0,0
385909,81.0752,-409.684,0,0
386169,80.6077,-409.943,0,0
386430,80.0826,-410.079,0,0
386690,79.5719,-410.225,0,0
386950,79.0479,-410.278,0,0
387211,78.5135,-410.399,0,0
387471,77.9248,-410.411,0,0
387731,77.3716,-410.403,0,0
387992,76.7417,-410.269,0,0
388252,76.1883,-410.126,0,0
388512,75.628,-409.922,0,0
388773,75.1372,-409.671,0,0
389033,74.5986,-409.354,0,0
389293,74.0976,-409.056,0,0
389554,73.6689,-408.748,0,0
389814,73.2798,-408.391,0,0
390074,72.926,-408.105,0,0
390335,72.5862,-407.716,0,0
390595,72.3111,-407.452,0,0
390855,72.0209,-407.157,0,0
391116,71.7262,-406.906,0,0
391376,71.4084,-406.668,0,0
391636,71.0484,-406.477,0,0
391896,70.7495,-406.31,0,0
392157,70.3586,-406.092,0,0
392417,69.9521,-405.913,0,0
392677,69.4967,-405.671,0,0
392938,69.0167,-405.471,0,0
393198,68.5462,-405.156,0,0
393458,68.0413,-404.874,0,0
393719,67.5242,-404.555,0,0
393979,67.033,-404.186,0,0
394239,66.4852,-403.791,0,0
394500,66.01,-403.366,0,0
394760.05,65.4902,-402.924,0,0
395020.375,64.9699,-402.437,0,0
395280.7,64.4682,-401.925,0,0
395541.025,63.9998,-401.394,0,0
395801.35,63.4842,-400.876,0,0
396061.675,63.0587,-400.291,0,0
396322.0,62.5907,-399.673,0,0
396582.325,62.152,-399.034,0,0
396842.65,61.7113,-398.374,0,0
397102.975,61.3203,-397.702,0,0
397363.3,60.9623,-396.978,0,0
397623.625,60.6445,-396.25,0,0
397883.95,60.3527,-395.516,0,0
398144.275,60.0923,-394.738,0,0
398404.6,59.8722,-394.02,0,0
398664.925,59.6285,-393.278,0,0
398925.25,59.4411,-392.538,0,0
399185.575,59.3338,-391.804,0,0
399445.9,59.2237,-391.08,0,0
399706.225,59.1124,-390.355,0,0
399966.55,59.0592,-389.707,0,0
400006.6,59.0043,-389.634,0,0