File: Accelerated corrosion test data/2025-10-21_06-00-04/sample_4.csv
Frequency (Hz),Impedance (ohms),Phase (Radians),Temperature (C),Humidity (%)
10000.0,260.854,-11944.5,0,0
10260.325,257.658,-11645.5,0,0
10520.65,248.586,-11358.5,0,0
10780.975,242.794,-11085.8,0,0
11041.3,237.918,-10825.5,0,0
11301.625,232.335,-10581,0,0
11561.95,226.946,-10343.9,0,0
11822.275,222.791,-10117.1,0,0
12082.6,217.796,-9900.97,0,0
12342.925,213.728,-9692.79,0,0
12603.25,212.026,-9492.48,0,0
12863.575,206.566,-9304.35,0,0
13123.9,205.31,-9125.35,0,0
13384.225,197.857,-8944.89,0,0
13644.55,193.94,-8772.69,0,0
13904.875,191.76,-8605.34,0,0
14165.2,195.475,-8439.88,0,0
14425.525,198.837,-8292.48,0,0
14685.8,193.332,-8180.4,0,0
14946.175,180.183,-8022.3,0,0
15206.5,178.824,-7875.48,0,0
15466.825,202.872,-7734.58,0,0
15727.15,187.658,-7631.78,0,0
15987.5,183.583,-7518.38,0,0
16247.8,169.462,-7386.24,0,0
16508.125,194.341,-7264.91,0,0
16768.45,179.941,-7161.21,0,0
17028.775,166.003,-7067.76,0,0
17289.1,158.359,-6954.46,0,0
17549.425,157.057,-6849.98,0,0
17809.75,154.539,-6749.54,0,0
18070.075,151.086,-6649.7,0,0
18330.4,152.162,-6553.94,0,0
18590.725,150.932,-6463.72,0,0
18851.05,148.054,-6379.27,0,0
19111.375,144.059,-6289.14,0,0
19371.7,141.524,-6203.39,0,0
19632.025,140.426,-6118.76,0,0
19892.35,143.136,-6038.22,0,0
20152.675,142.211,-5960.73,0,0
20413.0,139.447,-5886.05,0,0
20673.3,140.247,-5811.25,0,0
20933.65,136.378,-5736.78,0,0
21193.975,140.307,-5661.43,0,0
21454.3,151.958,-5596.07,0,0
21714.625,146.627,-5540.15,0,0
21974.9,150.259,-5469.55,0,0
22235.275,145.994,-5424.8,0,0
22495.6,133.887,-5365.41,0,0
22755.925,127.115,-5300.05,0,0
23016.25,123.968,-5237.7,0,0
23276.6,121.65,-5177.51,0,0
23536.9,119.415,-5119.6,0,0
23797.225,117.72,-5062.26,0,0
24057.55,116.051,-5006.22,0,0
24317.875,114.949,-4951.85,0,0
24578.2,113.769,-4897.61,0,0
24838.525,112.998,-4845.4,0,0
25098.85,114.008,-4793.92,0,0
25359.175,111.982,-4746.49,0,0
25619.5,111.377,-4696.75,0,0
25879.8,109.307,-4651.9,0,0
26140.1,107.057,-4603.45,0,0
26400.5,106.299,-4556.54,0,0
26660.8,105.784,-4510.26,0,0
26921.1,105.212,-4465.49,0,0
27181.4,104.857,-4420.32,0,0
27441.8,105.584,-4375.12,0,0
27702.1,109.427,-4330.42,0,0
27962.4,117.036,-4290.93,0,0
28222.7,118.746,-4263.12,0,0
28483.1,112.695,-4226.22,0,0
28743.4,109.214,-4185.96,0,0
29003.7,112.146,-4143.49,0,0
29264,117.405,-4112.73,0,0
29524.4,113.294,-4083.04,0,0
29784.7,107.067,-4049.56,0,0
30045,106.148,-4013.33,0,0
30305.3,100.562,-3979.66,0,0
30565.7,99.4937,-3942.92,0,0
30826,98.3513,-3908.92,0,0
31086.3,96.8593,-3874.15,0,0
31346.6,98.103,-3840.66,0,0
31607,97.4354,-3809.26,0,0
31867.3,96.4166,-3778.05,0,0
32127.6,99.5724,-3747.22,0,0
32387.9,97.9669,-3721.49,0,0
32648.3,96.1067,-3691.61,0,0
32908.6,93.6434,-3664.41,0,0
33168.9,91.1136,-3634.8,0,0
33429.2,89.2796,-3605.7,0,0
33689.6,87.7858,-3576.56,0,0
33949.9,86.6118,-3547.78,0,0
34210.2,86.8972,-3520.22,0,0
34470.5,85.2897,-3493.82,0,0
34730.9,84.0843,-3466.57,0,0
34991.2,83.4799,-3439.67,0,0
35251.5,83.1387,-3413.6,0,0
35511.8,82.4669,-3388.1,0,0
35772.2,82.0862,-3363.11,0,0
36032.5,81.0156,-3338.42,0,0
36292.8,80.1482,-3313.26,0,0
36553.1,79.8222,-3288.52,0,0
36813.5,79.7316,-3264.4,0,0
37073.8,80.1497,-3241.49,0,0
37334.1,78.7097,-3218.55,0,0
37594.4,78.2639,-3195.2,0,0
37854.8,78.3681,-3172.78,0,0
38115.1,77.515,-3150.82,0,0
38375.4,76.7131,-3128.57,0,0
38635.7,76.211,-3105.94,0,0
38896.1,76.6158,-3084.6,0,0
39156.4,76.1292,-3063.48,0,0
39416.7,75.5508,-3042.11,0,0
39677,75.6445,-3020.75,0,0
39937.4,76.59,-2999.27,0,0
40197.7,78.3949,-2979.16,0,0
40458,80.2262,-2960.95,0,0
40718.3,78.4671,-2943.25,0,0
40978.7,78.3337,-2923.09,0,0
41239,79.7423,-2904.71,0,0
41499.3,81.2585,-2888.2,0,0
41759.6,78.3881,-2871.35,0,0
42020,77.1148,-2853.54,0,0
42280.275,75.7339,-2834.07,0,0
42540.6,78.0681,-2816.21,0,0
42800.925,77.1135,-2802.04,0,0
43061.25,74.7164,-2783.81,0,0
43321.575,75.0512,-2766.38,0,0
43581.9,73.7614,-2750.06,0,0
43842.225,73.0504,-2732.22,0,0
44102.55,73.1205,-2716.49,0,0
44362.875,71.6996,-2699.18,0,0
44623.2,71.8036,-2682.39,0,0
44883.525,71.597,-2666.86,0,0
45143.85,70.8293,-2650.76,0,0
45404.175,70.186,-2634.39,0,0
45664.5,70.7693,-2617.94,0,0
45924.825,71.9287,-2603.35,0,0
46185.15,70.7567,-2589.7,0,0
46445.475,69.629,-2572.98,0,0
46705.8,70.5845,-2558.29,0,0
46966.125,70.9993,-2544.07,0,0
47226.45,71.1375,-2530,0,0
47486.775,70.6423,-2516.99,0,0
47747.1,69.4999,-2503.02,0,0
48007.425,68.9168,-2488.96,0,0
48267.75,67.8514,-2475.25,0,0
48528.075,67.1286,-2461.31,0,0
48788.4,66.4276,-2447.36,0,0
49048.725,65.3445,-2433.54,0,0
49309.05,65.5082,-2419.68,0,0
49569.375,64.4664,-2406.35,0,0
49829.7,64.0778,-2392.29,0,0
50090.025,64.2884,-2379.09,0,0
50350.35,63.6432,-2365.75,0,0
50610.675,63.5968,-2352.55,0,0
50871.0,63.5356,-2339.54,0,0
51131.325,63.1668,-2326.63,0,0
51391.65,63.1063,-2313.64,0,0
51651.975,63.0494,-2300.73,0,0
51912.3,63.1127,-2287.82,0,0
52172.625,63.6872,-2274.99,0,0
52432.95,63.5814,-2263.18,0,0
52693.275,63.7259,-2250.22,0,0
52953.6,64.7189,-2237.43,0,0
53213.925,65.9729,-2225.68,0,0
53474.25,66.9807,-2213.61,0,0
53734.575,68.1882,-2201.78,0,0
53994.9,70.6732,-2190.3,0,0
54255.225,72.8503,-2180.38,0,0
54515.55,75.5054,-2171.92,0,0
54775.875,75.2269,-2164.57,0,0
55036.2,73.8782,-2156.04,0,0
55296.525,72.4767,-2146.58,0,0
55556.85,71.1282,-2137.39,0,0
55817.175,69.0648,-2127.11,0,0
56077.5,67.6068,-2116.42,0,0
56337.825,66.3169,-2105.6,0,0
56598.15,65.2626,-2094.18,0,0
56858.475,64.8877,-2082.81,0,0
57118.8,65.3187,-2071.97,0,0
57379.125,65.2882,-2061.52,0,0
57639.45,65.4982,-2051.09,0,0
57899.775,65.6282,-2040.95,0,0
58160.1,65.8216,-2030.3,0,0
58420.4,66.8987,-2019.93,0,0
58680.7,67.3481,-2011.52,0,0
58941.1,66.8497,-2000.68,0,0
59201.4,67.9001,-1990.06,0,0
59461.7,69.8282,-1979.89,0,0
59722,72.2769,-1970.76,0,0
59982.4,74.7603,-1963.01,0,0
60242.7,75.717,-1955.62,0,0
60503,76.9837,-1947.95,0,0
60763.3,79.5178,-1941.04,0,0
61023.7,80.2451,-1937.27,0,0
61284,78.1773,-1932.91,0,0
61544.3,73.6165,-1926.54,0,0
61804.6,70.7834,-1917.12,0,0
62065,68.9531,-1908.13,0,0
62325.3,67.8037,-1899.77,0,0
62585.6,65.229,-1891.02,0,0
62845.9,64.1463,-1880.62,0,0
63106.3,63.7655,-1871.63,0,0
63366.6,63.3243,-1862.21,0,0
63626.9,63.4514,-1853.05,0,0
63887.2,63.5848,-1845.16,0,0
64147.6,62.2646,-1836.31,0,0
64407.9,62.7053,-1826.76,0,0
64668.2,63.7418,-1818.3,0,0
64928.5,64.1094,-1810.45,0,0
65188.9,64.02,-1802.58,0,0
65449.2,64.1195,-1794.12,0,0
65709.5,64.2629,-1785.85,0,0
65969.8,65.693,-1777.29,0,0
66230.2,66.7645,-1770.16,0,0
66490.5,67.223,-1762.94,0,0
66750.8,67.9546,-1756.02,0,0
67011.1,68.1615,-1748.37,0,0
67271.5,69.4454,-1740.88,0,0
67531.8,70.5985,-1734.5,0,0
67792.1,71.6118,-1727.93,0,0
68052.4,72.4202,-1722.34,0,0
68312.8,73.1371,-1716.52,0,0
68573.1,73.6123,-1711.42,0,0
68833.4,73.2211,-1707.04,0,0
69093.7,71.4839,-1702.17,0,0
69354.1,69.3976,-1696.38,0,0
69614.4,67.1015,-1689.38,0,0
69874.7,66.0954,-1682.26,0,0
70135,64.9922,-1675.38,0,0
70395.4,63.7539,-1667.95,0,0
70655.7,63.7371,-1659.68,0,0
70916,64.9891,-1653.62,0,0
71176.3,64.3975,-1648,0,0
71436.7,63.7869,-1641.78,0,0
71697,62.9363,-1636.24,0,0
71957.3,61.2417,-1630.15,0,0
72217.6,59.5693,-1623.09,0,0
72478,58.591,-1615.75,0,0
72738.3,57.837,-1608.64,0,0
72998.6,56.9255,-1601.5,0,0
73258.9,56.4367,-1593.64,0,0
73519.3,56.7768,-1586.25,0,0
73779.6,57.0371,-1579.34,0,0
74039.9,57.5288,-1572.55,0,0
74300.225,57.4042,-1566.04,0,0
74560.55,57.711,-1559.1,0,0
74820.875,58.2069,-1552.41,0,0
75081.2,59.1868,-1545.94,0,0
75341.525,59.8741,-1540.14,0,0
75601.85,60.1891,-1534.32,0,0
75862.175,60.5098,-1528.31,0,0
76122.5,61.1358,-1522.38,0,0
76382.825,61.6022,-1516.92,0,0
76643.15,61.6679,-1511.34,0,0
76903.475,61.4994,-1505.36,0,0
77163.8,62.6009,-1498.82,0,0
77424.125,63.9759,-1493.69,0,0
77684.45,64.9106,-1488.95,0,0
77944.775,65.4604,-1484.64,0,0
78205.1,65.3344,-1480.26,0,0
78465.425,65.1751,-1475.73,0,0
78725.75,64.6658,-1471.29,0,0
78986.075,63.8418,-1466.6,0,0
79246.4,62.9169,-1461.5,0,0
79506.725,62.2235,-1456.11,0,0
79767.05,61.5375,-1450.65,0,0
80027.375,61.15,-1445.11,0,0
80287.7,60.8324,-1439.6,0,0
80548.025,60.6767,-1434.17,0,0
80808.35,60.6459,-1428.77,0,0
81068.675,60.6879,-1423.67,0,0
81329.0,60.6469,-1418.6,0,0
81589.325,60.4787,-1413.64,0,0
81849.65,60.2339,-1408.74,0,0
82109.975,59.9349,-1403.69,0,0
82370.3,59.614,-1398.69,0,0
82630.625,59.4508,-1393.75,0,0
82890.95,59.1906,-1388.77,0,0
83151.275,58.9435,-1383.85,0,0
83411.6,58.5748,-1378.87,0,0
83671.925,58.281,-1373.91,0,0
83932.25,58.0437,-1368.94,0,0
84192.575,57.7549,-1363.9,0,0
84452.9,57.6352,-1359.05,0,0
84713.225,57.388,-1354.12,0,0
84973.55,57.2334,-1349.27,0,0
85233.875,57.0171,-1344.43,0,0
85494.2,56.8617,-1339.63,0,0
85754.525,56.5242,-1334.91,0,0
86014.85,56.2724,-1329.97,0,0
86275.175,56.1459,-1325.11,0,0
86535.5,56.1148,-1320.43,0,0
86795.825,55.9416,-1315.86,0,0
87056.15,55.6333,-1311.11,0,0
87316.475,55.4633,-1306.49,0,0
87576.8,55.1649,-1301.86,0,0
87837.125,54.9003,-1297.37,0,0
88097.45,54.3622,-1292.85,0,0
88357.775,53.8126,-1287.84,0,0
88618.1,53.6116,-1282.88,0,0
88878.425,53.5295,-1278.08,0,0
89138.75,53.3766,-1273.32,0,0
89399.075,53.1463,-1268.5,0,0
89659.4,53.15,-1263.6,0,0
89919.725,53.1905,-1258.95,0,0
90180,53.1818,-1254.35,0,0
90440.4,53.1662,-1249.84,0,0
90700.7,53.1055,-1245.27,0,0
90961,53.0022,-1240.62,0,0
91221.3,52.9547,-1235.91,0,0
91481.7,53.0913,-1231.28,0,0
91742,53.2132,-1226.65,0,0
92002.3,53.4998,-1222.04,0,0
92262.6,53.7484,-1217.59,0,0
92523,54.0583,-1213.32,0,0
92783.3,54.4496,-1208.95,0,0
93043.6,54.6858,-1205.01,0,0
93303.9,54.8342,-1201,0,0
93564.3,54.9278,-1197.11,0,0
93824.6,54.868,-1193.37,0,0
94084.9,54.4323,-1189.5,0,0
94345.2,53.945,-1185.46,0,0
94605.6,53.4617,-1181.13,0,0
94865.9,53.0271,-1176.68,0,0
95126.2,52.9076,-1172.15,0,0
95386.5,52.6996,-1167.7,0,0
95646.9,52.6118,-1163.12,0,0
95907.2,52.6068,-1158.65,0,0
96167.5,52.7131,-1154.17,0,0
96427.8,52.8942,-1149.82,0,0
96688.2,53.003,-1145.56,0,0
96948.5,53.0226,-1141.26,0,0
97208.8,53.1417,-1136.88,0,0
97469.1,53.3278,-1132.52,0,0
97729.5,53.4472,-1128.27,0,0
97989.8,53.6588,-1123.86,0,0
98250.1,54.0582,-1119.52,0,0
98510.4,54.3279,-1115.29,0,0
98770.8,54.7229,-1110.98,0,0
99031.1,55.1646,-1106.73,0,0
99291.4,55.6691,-1102.57,0,0
99551.7,56.198,-1098.43,0,0
99812.1,56.6675,-1094.42,0,0
100072,57.2474,-1090.25,0,0
100333,58.0352,-1086.14,0,0
100593,59.0553,-1082.34,0,0
100853,59.978,-1079.05,0,0
101114,60.3912,-1075.8,0,0
101374,60.9612,-1072.35,0,0
101634,61.6348,-1069.48,0,0
101895,61.537,-1067,0,0
102155,60.6987,-1064.14,0,0
102415,59.5668,-1060.58,0,0
102676,58.696,-1056.5,0,0
102936,57.9704,-1052.16,0,0
103196,57.4892,-1047.56,0,0
103457,57.1119,-1042.83,0,0
103717,57.2328,-1037.91,0,0
103977,57.5562,-1033.18,0,0
104238,57.9095,-1028.44,0,0
104498,58.5605,-1023.61,0,0
104758,59.3416,-1018.94,0,0
105019,60.4896,-1014.39,0,0
105279,61.5826,-1010.07,0,0
105539,62.7031,-1005.72,0,0
105800,63.9721,-1001.49,0,0
106060,65.3641,-997.391,0,0
106320.175,66.7278,-993.453,0,0
106580.5,68.1778,-989.683,0,0
106840.825,69.5704,-986.032,0,0
107101.15,70.8639,-982.447,0,0
107361.475,72.1318,-978.904,0,0
107621.8,73.3029,-975.186,0,0
107882.125,74.7251,-971.413,0,0
108142.45,76.2961,-967.826,0,0
108402.775,77.9937,-964.421,0,0
108663.1,79.6671,-961.074,0,0
108923.425,81.4278,-957.794,0,0
109183.75,83.3902,-954.779,0,0
109444.075,85.2759,-952.009,0,0
109704.4,86.9516,-949.559,0,0
109964.725,88.4275,-946.994,0,0
110225.05,89.9908,-944.409,0,0
110485.375,91.6013,-942.056,0,0
110745.7,92.9603,-939.877,0,0
111006.025,94.233,-937.742,0,0
111266.35,95.321,-935.529,0,0
111526.675,96.4766,-933.21,0,0
111787.0,97.6735,-930.899,0,0
112047.325,98.8955,-928.733,0,0
112307.65,100.087,-926.719,0,0
112567.975,101.154,-924.74,0,0
112828.3,102.174,-922.743,0,0
113088.625,103.196,-920.909,0,0
113348.95,104.112,-919.138,0,0
113609.275,104.926,-917.352,0,0
113869.6,105.648,-915.591,0,0
114129.925,106.28,-913.836,0,0
114390.25,106.967,-912.016,0,0
114650.575,107.644,-910.413,0,0
114910.9,108.23,-908.794,0,0
115171.225,108.586,-907.25,0,0
115431.55,108.917,-905.693,0,0
115691.875,109.128,-904.09,0,0
115952.2,109.236,-902.45,0,0
116212.525,109.27,-900.765,0,0
116472.85,109.283,-899.038,0,0
116733.175,109.218,-897.312,0,0
116993.5,109.056,-895.486,0,0
117253.825,108.843,-893.618,0,0
117514.15,108.547,-891.629,0,0
117774.475,108.211,-889.501,0,0
118034.8,107.95,-887.116,0,0
118295.125,107.839,-884.663,0,0
118555.45,107.852,-882.199,0,0
118815.775,107.9,-879.564,0,0
119076.1,108.361,-876.784,0,0
119336.425,109.217,-874.014,0,0
119596.75,110.759,-871.754,0,0
119857.075,112.291,-870.375,0,0
120117.4,113.606,-869.509,0,0
120377.725,114.482,-869.361,0,0
120638.05,114.482,-869.61,0,0
120898.375,113.348,-869.642,0,0
121158.7,111.757,-868.885,0,0
121419.025,110.098,-867.545,0,0
121679.35,108.467,-865.802,0,0
121939.675,106.958,-863.679,0,0
122200.0,105.695,-861.376,0,0
122460,104.526,-858.927,0,0
122721,103.598,-856.406,0,0
122981,102.773,-853.926,0,0
123241,101.993,-851.429,0,0
123502,101.221,-848.907,0,0
123762,100.483,-846.289,0,0
124022,99.8622,-843.615,0,0
124283,99.3974,-840.954,0,0
124543,99.0162,-838.337,0,0
124803,98.6746,-835.753,0,0
125064,98.4695,-833.219,0,0
125324,98.276,-830.828,0,0
125584,98.1234,-828.551,0,0
125845,97.9596,-826.378,0,0
126105,97.6897,-824.445,0,0
126365,97.1933,-822.535,0,0
126626,96.5419,-820.55,0,0
126886,95.8694,-818.533,0,0
127146,95.1299,-816.433,0,0
127406,94.4105,-814.353,0,0
127667,93.6688,-812.375,0,0
127927,92.6915,-810.578,0,0
128187,91.3606,-808.628,0,0
128448,89.886,-806.447,0,0
128708,88.2876,-804.16,0,0
128968,86.581,-801.58,0,0
129229,84.8673,-798.698,0,0
129489,83.2287,-795.555,0,0
129749,81.8036,-792.267,0,0
130010,80.4257,-788.861,0,0
130270,79.1963,-785.33,0,0
130530,78.1435,-781.792,0,0
130791,77.0502,-778.226,0,0
131051,76.0761,-774.493,0,0
131311,75.2766,-770.739,0,0
131572,74.5949,-767.015,0,0
131832,73.9373,-763.238,0,0
132092,73.3682,-759.425,0,0
132353,72.8858,-755.578,0,0
132613,72.511,-751.774,0,0
132873,72.2422,-747.957,0,0
133134,72.0086,-744.178,0,0
133394,71.7598,-740.416,0,0
133654,71.5902,-736.555,0,0
133915,71.5152,-732.697,0,0
134175,71.5415,-728.886,0,0
134435,71.5973,-725.166,0,0
134696,71.6747,-721.372,0,0
134956,71.7479,-717.607,0,0
135216,71.9561,-713.797,0,0
135477,72.3009,-709.956,0,0
135737,72.6352,-706.299,0,0
135997,72.9754,-702.644,0,0
136258,73.3103,-699,0,0
136518,73.6722,-695.308,0,0
136778,74.1734,-691.659,0,0
137039,74.7178,-688.191,0,0
137299,75.0681,-684.801,0,0
137559,75.3356,-681.247,0,0
137819,75.6154,-677.649,0,0
138080,75.9248,-673.985,0,0
138340.125,76.3131,-670.247,0,0
138600.45,76.7635,-666.494,0,0
138860.775,77.2116,-662.72,0,0
139121.1,77.7486,-658.838,0,0
139381.425,78.4216,-654.963,0,0
139641.75,79.1777,-651.197,0,0
139902.075,79.8691,-647.436,0,0
140162.4,80.5877,-643.604,0,0
140422.725,81.4115,-639.68,0,0
140683.05,82.3909,-635.77,0,0
140943.375,83.4496,-631.959,0,0
141203.7,84.5653,-628.177,0,0
141464.025,85.6898,-624.456,0,0
141724.35,86.8648,-620.776,0,0
141984.675,88.0743,-617.174,0,0
142245.0,89.2218,-613.578,0,0
142505.325,90.3688,-609.962,0,0
142765.65,91.5724,-606.302,0,0
143025.975,92.8324,-602.652,0,0
143286.3,94.1356,-599.092,0,0
143546.625,95.3721,-595.516,0,0
143806.95,96.624,-591.86,0,0
144067.275,97.9637,-588.163,0,0
144327.6,99.3741,-584.495,0,0
144587.925,100.754,-580.919,0,0
144848.25,102.144,-577.247,0,0
145108.575,103.608,-573.514,0,0
145368.9,105.171,-569.763,0,0
145629.225,106.799,-566.007,0,0
145889.55,108.464,-562.268,0,0
146149.875,110.221,-558.523,0,0
146410.2,112.042,-554.797,0,0
146670.525,113.958,-551.088,0,0
146930.85,115.894,-547.443,0,0
147191.175,117.811,-543.797,0,0
147451.5,119.807,-540.057,0,0
147711.825,121.976,-536.358,0,0
147972.15,124.153,-532.743,0,0
148232.475,126.316,-529.137,0,0
148492.8,128.555,-525.478,0,0
148753.125,130.872,-521.783,0,0
149013.45,133.299,-518.157,0,0
149273.775,135.646,-514.567,0,0
149534.1,137.974,-510.777,0,0
149794.425,140.603,-506.756,0,0
150054.75,143.605,-502.871,0,0
150315.075,146.734,-499.188,0,0
150575.4,149.829,-495.554,0,0
150835.725,153.064,-491.885,0,0
151096.05,156.51,-488.274,0,0
151356.375,160.098,-484.704,0,0
151616.7,163.926,-481.248,0,0
151877.025,167.858,-477.955,0,0
152137.35,171.999,-474.67,0,0
152397.675,176.502,-471.622,0,0
152658.0,181.128,-469.025,0,0
152918.325,185.661,-466.701,0,0
153178.65,190.294,-464.519,0,0
153438.975,195.074,-462.684,0,0
153699.3,199.728,-461.271,0,0
153959.625,204.234,-460.107,0,0
154219.95,208.566,-459.217,0,0
154480,212.626,-458.553,0,0
154741,216.333,-458.014,0,0
155001,219.728,-457.28,0,0
155261,223.072,-456.26,0,0
155522,226.805,-455.17,0,0
155782,230.595,-454.539,0,0
156042,233.971,-454.246,0,0
156303,237.03,-453.685,0,0
156563,240.173,-453.029,0,0
156823,243.281,-452.277,0,0
157084,246.591,-451.643,0,0
157344,249.7,-451.125,0,0
157604,252.509,-450.65,0,0
157864,255.23,-449.671,0,0
158125,258.363,-448.503,0,0
158385,261.771,-447.491,0,0
158645,265.36,-446.536,0,0
158906,269.216,-445.692,0,0
159166,273.574,-445.193,0,0
159426,277.859,-445.796,0,0
159687,281.365,-446.65,0,0
159947,284.411,-447.388,0,0
160207,287.335,-447.777,0,0
160468,290.837,-448.213,0,0
160728,294.003,-449.385,0,0
160988,296.58,-450.529,0,0
161249,299.136,-451.592,0,0
161509,301.29,-452.772,0,0
161769,303.356,-453.9,0,0
162030,305.126,-455.093,0,0
162290,306.635,-456.041,0,0
162550,307.879,-457.055,0,0
162811,308.783,-457.821,0,0
163071,309.297,-458.316,0,0
163331,309.698,-458.285,0,0
163592,310.092,-457.868,0,0
163852,310.474,-456.896,0,0
164112,311.228,-455.4,0,0
164373,312.257,-453.489,0,0
164633,314.015,-451.529,0,0
164893,316.072,-449.777,0,0
165154,318.113,-447.868,0,0
165414,320.314,-445.497,0,0
165674,323.17,-442.825,0,0
165935,326.991,-440.242,0,0
166195,331.486,-438.128,0,0
166455,336.359,-436.407,0,0
166716,341.597,-435.003,0,0
166976,347.648,-434.103,0,0
167236,353.891,-434.413,0,0
167497,359.778,-435.452,0,0
167757,365.683,-436.717,0,0
168017,371.505,-438.593,0,0
168277,377.124,-440.971,0,0
168538,382.713,-443.583,0,0
168798,388.525,-446.634,0,0
169058,394.47,-450.698,0,0
169319,399.856,-455.857,0,0
169579,404.549,-461.434,0,0
169839,409.01,-467.535,0,0
170100,412.875,-474.611,0,0
170360.075,415.73,-482.421,0,0
170620.4,417.306,-490.802,0,0
170880.725,417.408,-499.157,0,0
171141.05,416.397,-506.956,0,0
171401.375,414.837,-514.283,0,0
171661.7,412.766,-521.691,0,0
171922.025,409.465,-529.197,0,0
172182.35,404.942,-535.919,0,0
172442.675,399.687,-541.801,0,0
172703.0,393.694,-546.854,0,0
172963.325,387.335,-550.841,0,0
173223.65,380.832,-554.086,0,0
173483.975,373.819,-556.494,0,0
173744.3,366.778,-557.737,0,0
174004.625,360.115,-558.068,0,0
174264.95,353.607,-557.926,0,0
174525.275,347.365,-557.08,0,0
174785.6,341.393,-555.919,0,0
175045.925,335.28,-554.321,0,0
175306.25,329.103,-551.983,0,0
175566.575,323.406,-548.598,0,0
175826.9,318.409,-544.65,0,0
176087.225,314.045,-540.402,0,0
176347.55,310.199,-535.898,0,0
176607.875,306.944,-531.225,0,0
176868.2,304.12,-526.471,0,0
177128.525,301.806,-521.631,0,0
177388.85,299.874,-516.859,0,0
177649.175,298.311,-512.068,0,0
177909.5,297.086,-507.322,0,0
178169.825,296.107,-502.656,0,0
178430.15,295.429,-497.962,0,0
178690.475,295.029,-493.312,0,0
178950.8,294.902,-488.703,0,0
179211.125,295.105,-484.21,0,0
179471.45,295.619,-479.869,0,0
179731.775,296.37,-475.813,0,0
179992.1,297.14,-471.962,0,0
180252.425,297.986,-468.352,0,0
180512.75,298.777,-464.896,0,0
180773.075,299.562,-461.492,0,0
181033.4,300.387,-458.106,0,0
181293.725,301.247,-454.833,0,0
181554.05,302.076,-451.651,0,0
181814.375,302.858,-448.524,0,0
182074.7,303.591,-445.425,0,0
182335.025,304.23,-442.341,0,0
182595.35,304.769,-439.214,0,0
182855.675,305.181,-435.991,0,0
183116.0,305.506,-432.52,0,0
183376.325,305.909,-428.822,0,0
183636.65,306.458,-424.963,0,0
183896.975,307.095,-420.988,0,0
184157.3,307.864,-416.859,0,0
184417.625,308.828,-412.632,0,0
184677.95,309.961,-408.371,0,0
184938.275,311.243,-404.049,0,0
185198.6,312.652,-399.804,0,0
185458.925,314.138,-395.549,0,0
185719.25,315.588,-391.285,0,0
185979.575,317.021,-386.876,0,0
186239.9,318.542,-382.241,0,0
186500,320.194,-377.471,0,0
186761,322.033,-372.603,0,0
187021,324.001,-367.569,0,0
187281,326.045,-362.357,0,0
187542,328.447,-356.909,0,0
187802,331.148,-351.48,0,0
188062,334.062,-345.951,0,0
188322,337.123,-340.504,0,0
188583,340.388,-334.832,0,0
188843,343.943,-329.024,0,0
189103,347.706,-323.216,0,0
189364,351.798,-317.322,0,0
189624,356.104,-311.275,0,0
189884,360.841,-305.126,0,0
190145,365.951,-299.123,0,0
190405,371.39,-293.07,0,0
190665,377.189,-286.992,0,0
190926,383.19,-280.97,0,0
191186,389.619,-274.884,0,0
191446,396.61,-268.784,0,0
191707,403.983,-262.848,0,0
191967,411.856,-257.079,0,0
192227,420.091,-251.529,0,0
192488,428.761,-246.296,0,0
192748,437.712,-241.142,0,0
193008,447.059,-236.328,0,0
193269,456.852,-231.801,0,0
193529,466.797,-227.489,0,0
193789,477.223,-223.429,0,0
194050,487.9,-219.856,0,0
194310,498.75,-216.538,0,0
194570,509.741,-213.368,0,0
194831,521.042,-210.502,0,0
195091,532.77,-207.762,0,0
195351,544.747,-205.305,0,0
195612,557.071,-203.049,0,0
195872,569.91,-201.048,0,0
196132,583.231,-199.435,0,0
196393,596.975,-198.249,0,0
196653,611.141,-197.48,0,0
196913,625.784,-197.173,0,0
197174,640.94,-197.433,0,0
197434,656.516,-198.282,0,0
197694,672.533,-199.769,0,0
197955,688.988,-201.921,0,0
198215,705.875,-204.638,0,0
198475,723.529,-208.051,0,0
198735,742.089,-212.595,0,0
198996,761.226,-218.72,0,0
199256,780.643,-226.696,0,0
199516,799.774,-236.441,0,0
199777,818.392,-247.655,0,0
200037,836.241,-260.31,0,0
200297,853.872,-274.14,0,0
200558,870.578,-289.574,0,0
200818,886.326,-306.207,0,0
201078,900.989,-323.985,0,0
201339,914.597,-342.942,0,0
201599,926.706,-362.879,0,0
201859,937.023,-383.394,0,0
202120,946.172,-403.896,0,0
202380.025,954.413,-424.834,0,0
202640.35,961.261,-446.053,0,0
202900.675,967.064,-467.146,0,0
203161.0,972.19,-488.776,0,0
203421.325,976.275,-511.225,0,0
203681.65,978.357,-534.263,0,0
203941.975,978.508,-556.891,0,0
204202.3,977.096,-578.401,0,0
204462.625,975.27,-599.057,0,0
204722.95,973.177,-619.835,0,0
204983.275,969.978,-640.555,0,0
205243.6,965.492,-661.215,0,0
205503.925,959.902,-681.159,0,0
205764.25,953.675,-700.479,0,0
206024.575,946.774,-719.515,0,0
206284.9,938.946,-738.26,0,0
206545.225,930.276,-756.657,0,0
206805.55,920.617,-774.836,0,0
207065.875,909.571,-792.341,0,0
207326.2,897.365,-808.865,0,0
207586.525,884.371,-824.214,0,0
207846.85,870.625,-838.368,0,0
208107.175,856.406,-851.506,0,0
208367.5,841.798,-863.765,0,0
208627.825,826.405,-874.863,0,0
208888.15,810.506,-884.45,0,0
209148.475,794.517,-892.39,0,0
209408.8,778.888,-898.925,0,0
209669.125,764.162,-904.311,0,0
209929.45,749.553,-908.866,0,0
210189.775,735.471,-912.846,0,0
210450.1,721.743,-916.084,0,0
210710.425,708.318,-918.433,0,0
210970.75,695.525,-920.001,0,0
211231.075,683.38,-921.126,0,0
211491.4,671.936,-922.037,0,0
211751.725,660.85,-922.611,0,0
212012.05,649.822,-923.102,0,0
212272.375,639.265,-923.053,0,0
212532.7,629.101,-922.693,0,0
212793.025,619.038,-922.163,0,0
213053.35,608.951,-920.925,0,0
213313.675,599.84,-918.708,0,0
213574.0,591.55,-916.219,0,0
213834.325,584.144,-913.586,0,0
214094.65,577.688,-910.865,0,0
214354.975,572.152,-908.57,0,0
214615.3,567.361,-906.98,0,0
214875.625,562.624,-906.179,0,0
215135.95,557.868,-905.514,0,0
215396.275,553.43,-905.32,0,0
215656.6,548.656,-905.69,0,0
215916.925,543.622,-906.097,0,0
216177.25,538.15,-906.465,0,0
216437.575,532.72,-906.574,0,0
216697.9,527.306,-906.346,0,0
216958.225,522.318,-906.211,0,0
217218.55,517.437,-906.307,0,0
217478.875,512.413,-906.465,0,0
217739.2,507.249,-906.57,0,0
217999.525,502.155,-906.572,0,0
218259.85,497.217,-906.547,0,0
218520,492.229,-906.64,0,0
218780,487.333,-906.65,0,0
219041,482.331,-906.676,0,0
219301,477.339,-906.78,0,0
219561,472.308,-906.784,0,0
219822,467.062,-906.829,0,0
220082,461.617,-906.607,0,0
220342,456.274,-906.163,0,0
220603,451.057,-905.477,0,0
220863,445.855,-904.456,0,0
221123,441.009,-903.416,0,0
221384,436.436,-902.414,0,0
221644,431.864,-901.378,0,0
221904,427.37,-900.379,0,0
222165,422.765,-899.376,0,0
222425,418.35,-897.976,0,0
222685,414.292,-896.602,0,0
222946,410.576,-895.343,0,0
223206,406.988,-894.207,0,0
223466,403.556,-893.255,0,0
223727,400.2,-892.547,0,0
223987,396.794,-892.166,0,0
224247,393.235,-891.935,0,0
224508,389.641,-891.686,0,0
224768,385.822,-891.62,0,0
225028,381.906,-891.441,0,0
225289,377.687,-891.58,0,0
225549,373.364,-891.516,0,0
225809,368.994,-891.265,0,0
226070,364.503,-891.035,0,0
226330,359.896,-890.703,0,0
226590,355.191,-890.276,0,0
226851,350.373,-889.843,0,0
227111,345.314,-889.307,0,0
227371,340.092,-888.484,0,0
227632,334.891,-887.303,0,0
227892,329.581,-885.991,0,0
228152,324.311,-884.396,0,0
228413,318.972,-882.512,0,0
228673,313.863,-880.348,0,0
228933,308.789,-878.018,0,0
229193,304.069,-875.42,0,0
229454,299.309,-872.677,0,0
229714,294.796,-869.925,0,0
229974,290.762,-867.01,0,0
230235,286.561,-864.198,0,0
230495,282.343,-861.147,0,0
230755,278.267,-858.059,0,0
231016,274.314,-854.843,0,0
231276,270.651,-851.365,0,0
231536,267.323,-847.877,0,0
231797,264.152,-844.451,0,0
232057,261.204,-841.163,0,0
232317,258.236,-837.934,0,0
232578,255.307,-834.743,0,0
232838,252.391,-831.481,0,0
233098,249.559,-828.214,0,0
233359,246.832,-824.754,0,0
233619,244.265,-821.225,0,0
233879,241.899,-817.602,0,0
234140,239.884,-814.154,0,0
234400,237.954,-810.84,0,0
234660.3,236.009,-807.547,0,0
234920.625,234.178,-804.226,0,0
235180.95,232.505,-801.188,0,0
235441.275,230.813,-798.306,0,0
235701.6,229.019,-795.26,0,0
235961.925,227.184,-792.213,0,0
236222.25,225.535,-789.065,0,0
236482.575,223.842,-785.975,0,0
236742.9,222.269,-782.856,0,0
237003.225,220.776,-779.608,0,0
237263.55,219.496,-776.373,0,0
237523.875,218.397,-773.172,0,0
237784.2,217.359,-770.081,0,0
238044.525,216.462,-767.003,0,0
238304.85,215.617,-764.016,0,0
238565.175,214.836,-761.102,0,0
238825.5,214.218,-758.284,0,0
239085.825,213.628,-755.472,0,0
239346.15,213.06,-752.85,0,0
239606.475,212.494,-750.216,0,0
239866.8,212.068,-747.62,0,0
240127.125,211.64,-745.163,0,0
240387.45,211.338,-742.758,0,0
240647.775,211.104,-740.402,0,0
240908.1,210.873,-738.198,0,0
241168.425,210.671,-736.155,0,0
241428.75,210.405,-734.151,0,0
241689.075,210.184,-732.287,0,0
241949.4,209.918,-730.486,0,0
242209.725,209.639,-728.782,0,0
242470.05,209.283,-727.133,0,0
242730.375,208.921,-725.614,0,0
242990.7,208.459,-724.136,0,0
243251.025,207.953,-722.718,0,0
243511.35,207.37,-721.368,0,0
243771.675,206.636,-720.057,0,0
244032.0,205.849,-718.757,0,0
244292.325,204.916,-717.403,0,0
244552.65,203.817,-716.01,0,0
244812.975,202.731,-714.452,0,0
245073.3,201.497,-712.884,0,0
245333.625,200.387,-711.196,0,0
245593.95,199.252,-709.407,0,0
245854.275,198.062,-707.587,0,0
246114.6,196.916,-705.647,0,0
246374.925,195.772,-703.638,0,0
246635.25,194.659,-701.584,0,0
246895.575,193.573,-699.426,0,0
247155.9,192.63,-697.161,0,0
247416.225,191.785,-694.834,0,0
247676.55,191.039,-692.558,0,0
247936.875,190.291,-690.216,0,0
248197.2,189.663,-687.973,0,0
248457.525,189.106,-685.523,0,0
248717.85,188.729,-683.22,0,0
248978.175,188.394,-680.874,0,0
249238.5,188.164,-678.682,0,0
249498.825,188.072,-676.466,0,0
249759.15,187.896,-674.423,0,0
250019.475,187.88,-672.5,0,0
250279.8,187.851,-670.649,0,0
250540,187.768,-668.985,0,0
250800,187.437,-667.38,0,0
251061,187.063,-665.813,0,0
251321,186.531,-664.142,0,0
251581,185.938,-662.438,0,0
251842,185.259,-660.608,0,0
252102,184.618,-658.718,0,0
252362,183.935,-656.716,0,0
252623,183.28,-654.578,0,0
252883,182.722,-652.334,0,0
253143,182.32,-650.094,0,0
253404,181.906,-647.93,0,0
253664,181.536,-645.796,0,0
253924,181.076,-643.695,0,0
254185,180.5,-641.556,0,0
254445,179.776,-639.277,0,0
254705,178.934,-636.794,0,0
254966,178.257,-633.984,0,0
255226,177.619,-630.917,0,0
255486,177.333,-627.834,0,0
255747,177.1,-624.627,0,0
256007,177.021,-621.307,0,0
256267,177.028,-617.924,0,0
256528,177.25,-614.446,0,0
256788,177.732,-610.849,0,0
257048,178.36,-607.215,0,0
257309,179.267,-603.491,0,0
257569,180.425,-599.778,0,0
257829,181.911,-596.153,0,0
258090,183.473,-592.56,0,0
258350,185.312,-588.957,0,0
258610,187.436,-585.367,0,0
258871,189.887,-581.916,0,0
259131,192.587,-578.715,0,0
259391,195.456,-575.755,0,0
259651,198.364,-572.958,0,0
259912,201.443,-570.369,0,0
260172,204.632,-567.744,0,0
260432,208.018,-565.37,0,0
260693,211.597,-563.164,0,0
260953,215.223,-561.145,0,0
261213,219.025,-559.313,0,0
261474,222.931,-557.797,0,0
261734,226.963,-556.286,0,0
261994,231.293,-554.953,0,0
262255,235.86,-553.986,0,0
262515,240.629,-553.434,0,0
262775,245.542,-553.407,0,0
263036,250.371,-554.031,0,0
263296,254.878,-555.164,0,0
263556,258.993,-556.658,0,0
263817,262.699,-558.239,0,0
264077,266.146,-559.864,0,0
264337,269.465,-561.529,0,0
264598,272.548,-563.142,0,0
264858,275.633,-564.824,0,0
265118,278.786,-566.363,0,0
265379,282.12,-568.013,0,0
265639,285.496,-569.855,0,0
265899,289.017,-572.041,0,0
266160,292.657,-574.532,0,0
266420,296.227,-577.566,0,0
266680.25,299.627,-581.019,0,0
266940.575,302.768,-584.896,0,0
267200.9,305.683,-589.231,0,0
267461.225,308.11,-594.023,0,0
267721.55,310.026,-599.142,0,0
267981.875,311.313,-604.437,0,0
268242.2,311.978,-609.899,0,0
268502.525,311.942,-615.306,0,0
268762.85,311.343,-620.448,0,0
269023.175,310.311,-625.391,0,0
269283.5,308.853,-630.125,0,0
269543.825,306.899,-634.463,0,0
269804.15,304.626,-638.42,0,0
270064.475,302.202,-641.771,0,0
270324.8,299.831,-644.824,0,0
270585.125,297.45,-647.564,0,0
270845.45,295.435,-650.089,0,0
271105.775,293.379,-652.53,0,0
271366.1,291.386,-655.109,0,0
271626.425,289.152,-657.683,0,0
271886.75,286.757,-660.171,0,0
272147.075,284.172,-662.534,0,0
272407.4,281.36,-664.625,0,0
272667.725,278.516,-666.308,0,0
272928.05,275.917,-667.777,0,0
273188.375,273.527,-669.149,0,0
273448.7,271.291,-670.608,0,0
273709.025,269.091,-672.34,0,0
273969.35,266.675,-674.153,0,0
274229.675,263.999,-675.963,0,0
274490.0,261.212,-677.783,0,0
274750.325,258.067,-679.495,0,0
275010.65,254.746,-681.24,0,0
275270.975,251.176,-682.561,0,0
275531.3,247.512,-683.856,0,0
275791.625,243.604,-684.908,0,0
276051.95,239.42,-685.745,0,0
276312.275,234.961,-686.125,0,0
276572.6,230.431,-686.041,0,0
276832.925,225.919,-685.474,0,0
277093.25,221.466,-684.454,0,0
277353.575,217.174,-682.981,0,0
277613.9,213.132,-681.06,0,0
277874.225,209.398,-678.695,0,0
278134.55,206.094,-676.046,0,0
278394.875,203.307,-673.178,0,0
278655.2,200.966,-670.264,0,0
278915.525,199.033,-667.285,0,0
279175.85,197.595,-664.389,0,0
279436.175,196.679,-661.71,0,0
279696.5,196.093,-659.397,0,0
279956.825,195.51,-657.652,0,0
280217.15,194.886,-656.115,0,0
280477.475,193.893,-654.643,0,0
280737.8,192.893,-653.109,0,0
280998.125,191.862,-651.43,0,0
281258.45,191.012,-649.631,0,0
281518.775,190.301,-647.741,0,0
281779.1,189.869,-645.91,0,0
282039.425,189.646,-644.225,0,0
282299.75,189.559,-642.637,0,0
282560,189.644,-641.205,0,0
282820,189.881,-640.006,0,0
283081,190.154,-639.17,0,0
283341,190.347,-638.577,0,0
283601,190.414,-638.171,0,0
283862,190.301,-637.95,0,0
284122,190.078,-637.785,0,0
284382,189.658,-637.756,0,0
284643,189.082,-637.915,0,0
284903,188.283,-638.007,0,0
285163,187.125,-638.067,0,0
285424,185.776,-638.033,0,0
285684,184.163,-637.865,0,0
285944,182.452,-637.413,0,0
286205,180.596,-636.627,0,0
286465,178.843,-635.458,0,0
286725,177.331,-634.187,0,0
286986,175.856,-632.907,0,0
287246,174.368,-631.519,0,0
287506,172.86,-629.949,0,0
287767,171.399,-628.13,0,0
288027,170.076,-626.039,0,0
288287,169.004,-623.731,0,0
288548,168.146,-621.308,0,0
288808,167.633,-618.731,0,0
289068,167.423,-616.137,0,0
289329,167.515,-613.594,0,0
289589,167.816,-611.118,0,0
289849,168.367,-608.703,0,0
290109,169.162,-606.31,0,0
290370,170.211,-604.04,0,0
290630,171.664,-601.883,0,0
290890,173.303,-599.959,0,0
291151,175.224,-598.323,0,0
291411,177.322,-597.033,0,0
291671,179.549,-596.084,0,0
291932,181.825,-595.49,0,0
292192,184.124,-595.218,0,0
292452,186.379,-595.298,0,0
292713,188.606,-595.683,0,0
292973,190.732,-596.427,0,0
293233,192.728,-597.434,0,0
293494,194.574,-598.793,0,0
293754,196.262,-600.461,0,0
294014,197.684,-602.399,0,0
294275,198.762,-604.626,0,0
294535,199.439,-607.098,0,0
294795,199.71,-609.707,0,0
295056,199.484,-612.26,0,0
295316,198.818,-614.738,0,0
295576,197.895,-617.098,0,0
295837,196.619,-619.247,0,0
296097,195.082,-621.175,0,0
296357,193.345,-622.873,0,0
296618,191.462,-624.34,0,0
296878,189.485,-625.531,0,0
297138,187.449,-626.467,0,0
297399,185.421,-627.199,0,0
297659,183.465,-627.719,0,0
297919,181.554,-628.144,0,0
298180,179.706,-628.471,0,0
298440,177.861,-628.731,0,0
298700.2,176.006,-628.933,0,0
298960.525,174.209,-629.019,0,0
299220.85,172.355,-629.1,0,0
299481.175,170.542,-629.067,0,0
299741.5,168.684,-629.007,0,0
300001.825,166.803,-628.816,0,0
300262.15,164.989,-628.498,0,0
300522.475,163.209,-628.13,0,0
300782.8,161.442,-627.722,0,0
301043.125,159.739,-627.182,0,0
301303.45,158.088,-626.629,0,0
301563.775,156.495,-626.014,0,0
301824.1,154.944,-625.384,0,0
302084.425,153.423,-624.732,0,0
302344.75,151.919,-624.071,0,0
302605.075,150.449,-623.411,0,0
302865.4,148.949,-622.729,0,0
303125.725,147.445,-622.022,0,0
303386.05,145.9,-621.226,0,0
303646.375,144.36,-620.358,0,0
303906.7,142.897,-619.354,0,0
304167.025,141.507,-618.315,0,0
304427.35,140.18,-617.239,0,0
304687.675,138.935,-616.181,0,0
304948.0,137.719,-615.086,0,0
305208.325,136.592,-613.975,0,0
305468.65,135.408,-612.835,0,0
305728.975,134.3,-611.682,0,0
305989.3,133.247,-610.455,0,0
306249.625,132.252,-609.222,0,0
306509.95,131.327,-607.952,0,0
306770.275,130.488,-606.701,0,0
307030.6,129.741,-605.44,0,0
307290.925,129.075,-604.204,0,0
307551.25,128.48,-603.008,0,0
307811.575,127.965,-601.886,0,0
308071.9,127.485,-600.81,0,0
308332.225,127.016,-599.849,0,0
308592.55,126.534,-598.94,0,0
308852.875,126.041,-598.097,0,0
309113.2,125.507,-597.278,0,0
309373.525,124.938,-596.478,0,0
309633.85,124.28,-595.718,0,0
309894.175,123.621,-594.913,0,0
310154.5,122.941,-594.059,0,0
310414.825,122.259,-593.161,0,0
310675.15,121.606,-592.25,0,0
310935.475,120.955,-591.318,0,0
311195.8,120.344,-590.356,0,0
311456.125,119.758,-589.408,0,0
311716.45,119.172,-588.444,0,0
311976.775,118.609,-587.48,0,0
312237.1,118.061,-586.489,0,0
312497.425,117.559,-585.475,0,0
312757.75,117.108,-584.44,0,0
313018.075,116.728,-583.402,0,0
313278.4,116.407,-582.403,0,0
313538.725,116.177,-581.464,0,0
313799.05,115.926,-580.609,0,0
314059.375,115.662,-579.788,0,0
314319.7,115.419,-579.053,0,0
314580,115.143,-578.308,0,0
314840,114.771,-577.597,0,0
315101,114.504,-576.848,0,0
315361,114.193,-576.134,0,0
315621,113.785,-575.391,0,0
315882,113.51,-574.636,0,0
316142,113.339,-573.917,0,0
316402,113.063,-573.27,0,0
316663,112.767,-572.557,0,0
316923,112.587,-571.952,0,0
317183,112.329,-571.409,0,0
317444,112.036,-570.813,0,0
317704,111.851,-570.138,0,0
317964,111.652,-569.604,0,0
318225,111.508,-569.091,0,0
318485,111.319,-568.726,0,0
318745,111.238,-568.395,0,0
319006,111.014,-568.147,0,0
319266,110.744,-567.946,0,0
319526,110.381,-567.82,0,0
319787,109.97,-567.654,0,0
320047,109.411,-567.606,0,0
320307,108.839,-567.542,0,0
320567,108.114,-567.476,0,0
320828,107.291,-567.434,0,0
321088,106.543,-567.363,0,0
321348,105.585,-567.216,0,0
321609,104.515,-567.026,0,0
321869,103.461,-566.712,0,0
322129,102.313,-566.459,0,0
322390,101.097,-566.092,0,0
322650,99.7578,-565.641,0,0
322910,98.3516,-564.943,0,0
323171,97.0096,-564.174,0,0
323431,95.6774,-563.28,0,0
323691,94.4604,-562.292,0,0
323952,93.2754,-561.202,0,0
324212,92.1863,-560.055,0,0
324472,91.1373,-558.918,0,0
324733,90.099,-557.822,0,0
324993,89.1397,-556.513,0,0
325253,88.1919,-555.124,0,0
325514,87.4189,-553.859,0,0
325774,86.6609,-552.6,0,0
326034,85.9219,-551.234,0,0
326295,85.2594,-549.94,0,0
326555,84.6812,-548.608,0,0
326815,84.0226,-547.328,0,0
327076,83.4919,-546.046,0,0
327336,82.8752,-544.777,0,0
327596,82.3728,-543.492,0,0
327857,81.8189,-542.259,0,0
328117,81.2071,-540.896,0,0
328377,80.7319,-539.529,0,0
328638,80.2821,-538.045,0,0
328898,79.8204,-536.567,0,0
329158,79.4932,-535.082,0,0
329419,79.2477,-533.589,0,0
329679,79.0283,-532.118,0,0
329939,78.9598,-530.61,0,0
330200,78.9489,-529.179,0,0
330460,79.0335,-527.731,0,0
330720.15,79.0925,-526.317,0,0
330980.475,79.3382,-524.934,0,0
331240.8,79.6223,-523.686,0,0
331501.125,79.9823,-522.565,0,0
331761.45,80.4422,-521.527,0,0
332021.775,80.8249,-520.624,0,0
332282.1,81.1895,-519.832,0,0
332542.425,81.5141,-519.203,0,0
332802.75,81.7326,-518.641,0,0
333063.075,81.8641,-518.092,0,0
333323.4,81.9255,-517.57,0,0
333583.725,81.8577,-517.059,0,0
333844.05,81.7284,-516.469,0,0
334104.375,81.5962,-515.932,0,0
334364.7,81.3443,-515.412,0,0
334625.025,81.113,-514.805,0,0
334885.35,80.7698,-514.19,0,0
335145.675,80.4816,-513.506,0,0
335406.0,80.1122,-512.793,0,0
335666.325,79.7167,-512.021,0,0
335926.65,79.391,-511.177,0,0
336186.975,78.9937,-510.355,0,0
336447.3,78.6074,-509.466,0,0
336707.625,78.2024,-508.556,0,0
336967.95,77.8735,-507.656,0,0
337228.275,77.5552,-506.69,0,0
337488.6,77.1531,-505.716,0,0
337748.925,76.833,-504.722,0,0
338009.25,76.5415,-503.567,0,0
338269.575,76.217,-502.41,0,0
338529.9,75.8564,-501.305,0,0
338790.225,75.6275,-499.956,0,0
339050.55,75.4292,-498.665,0,0
339310.875,75.3153,-497.316,0,0
339571.2,75.2356,-495.986,0,0
339831.525,75.3813,-494.598,0,0
340091.85,75.5235,-493.263,0,0
340352.175,75.7161,-491.846,0,0
340612.5,76.0047,-490.544,0,0
340872.825,76.3537,-489.208,0,0
341133.15,76.8165,-487.953,0,0
341393.475,77.3007,-486.69,0,0
341653.8,77.8872,-485.5,0,0
341914.125,78.5457,-484.365,0,0
342174.45,79.2551,-483.35,0,0
342434.775,80.0803,-482.405,0,0
342695.1,80.8546,-481.499,0,0
342955.425,81.7098,-480.752,0,0
343215.75,82.5418,-480.099,0,0
343476.075,83.3209,-479.561,0,0
343736.4,84.1742,-479.074,0,0
343996.725,84.8835,-478.717,0,0
344257.05,85.6391,-478.472,0,0
344517.375,86.2732,-478.186,0,0
344777.7,86.8686,-478.02,0,0
345038.025,87.4548,-477.926,0,0
345298.35,87.9174,-477.843,0,0
345558.675,88.3718,-477.863,0,0
345819.0,88.7669,-477.835,0,0
346079.325,89.0713,-477.88,0,0
346339.65,89.2748,-477.916,0,0
346599.975,89.4598,-478,0,0
346860,89.5108,-478.093,0,0
347121,89.5203,-478.127,0,0
347381,89.445,-478.134,0,0
347641,89.3132,-478.109,0,0
347902,89.2315,-477.99,0,0
348162,89.0466,-477.901,0,0
348422,88.8506,-477.832,0,0
348683,88.6691,-477.648,0,0
348943,88.4981,-477.547,0,0
349203,88.2535,-477.375,0,0
349464,87.9572,-477.245,0,0
349724,87.6635,-477.068,0,0
349984,87.364,-476.859,0,0
350245,86.9416,-476.672,0,0
350505,86.4906,-476.393,0,0
350765,85.9738,-476.061,0,0
351025,85.5106,-475.597,0,0
351286,84.9663,-475.137,0,0
351546,84.5501,-474.569,0,0
351806,84.1031,-473.954,0,0
352067,83.771,-473.297,0,0
352327,83.4384,-472.623,0,0
352587,83.1741,-471.94,0,0
352848,83.0124,-471.232,0,0
353108,82.8181,-470.54,0,0
353368,82.6732,-469.927,0,0
353629,82.5485,-469.323,0,0
353889,82.3836,-468.771,0,0
354149,82.3274,-468.1,0,0
354410,82.0715,-467.564,0,0
354670,81.9214,-466.971,0,0
354930,81.7264,-466.426,0,0
355191,81.5163,-465.724,0,0
355451,81.3721,-465.057,0,0
355711,81.2048,-464.398,0,0
355972,81.087,-463.722,0,0
356232,81.0085,-463.016,0,0
356492,80.9889,-462.37,0,0
356753,80.9666,-461.685,0,0
357013,80.9226,-461.048,0,0
357273,80.9066,-460.518,0,0
357534,80.9684,-460.013,0,0
357794,80.8832,-459.501,0,0
358054,80.8268,-459.014,0,0
358315,80.7379,-458.483,0,0
358575,80.5801,-457.988,0,0
358835,80.4449,-457.471,0,0
359096,80.2825,-456.938,0,0
359356,80.0513,-456.448,0,0
359616,79.8162,-455.874,0,0
359877,79.548,-455.226,0,0
360137,79.2882,-454.516,0,0
360397,79.0701,-453.824,0,0
360658,78.8252,-453.033,0,0
360918,78.7268,-452.221,0,0
361178,78.6096,-451.43,0,0
361438,78.5531,-450.59,0,0
361699,78.5623,-449.861,0,0
361959,78.6035,-449.122,0,0
362219,78.5725,-448.358,0,0
362480,78.5955,-447.605,0,0
362740.1,78.5974,-446.903,0,0
363000.425,78.6048,-446.2,0,0
363260.75,78.6187,-445.515,0,0
363521.075,78.6411,-444.785,0,0
363781.4,78.6351,-444.024,0,0
364041.725,78.5744,-443.32,0,0
364302.05,78.5712,-442.557,0,0
364562.375,78.6018,-441.807,0,0
364822.7,78.6303,-441.014,0,0
365083.025,78.6048,-440.247,0,0
365343.35,78.6154,-439.388,0,0
365603.675,78.6617,-438.564,0,0
365864.0,78.7668,-437.699,0,0
366124.325,78.8467,-436.827,0,0
366384.65,78.9446,-435.962,0,0
366644.975,79.0805,-435.019,0,0
366905.3,79.2552,-434.062,0,0
367165.625,79.4269,-433.148,0,0
367425.95,79.6959,-432.133,0,0
367686.275,79.9744,-431.112,0,0
367946.6,80.3784,-430.09,0,0
368206.925,80.8239,-429.127,0,0
368467.25,81.2809,-428.13,0,0
368727.575,81.8319,-427.212,0,0
368987.9,82.46,-426.238,0,0
369248.225,83.0874,-425.347,0,0
369508.55,83.7333,-424.451,0,0
369768.875,84.5111,-423.524,0,0
370029.2,85.35,-422.665,0,0
370289.525,86.2548,-421.799,0,0
370549.85,87.2584,-421.076,0,0
370810.175,88.3233,-420.386,0,0
371070.5,89.5676,-419.779,0,0
371330.825,90.759,-419.306,0,0
371591.15,92.0732,-419.027,0,0
371851.475,93.3503,-418.85,0,0
372111.8,94.6344,-418.799,0,0
372372.125,95.8484,-418.96,0,0
372632.45,97.0118,-419.261,0,0
372892.775,98.0801,-419.663,0,0
373153.1,99.0334,-420.166,0,0
373413.425,99.8324,-420.753,0,0
373673.75,100.574,-421.401,0,0
373934.075,101.156,-422.049,0,0
374194.4,101.61,-422.721,0,0
374454.725,101.989,-423.38,0,0
374715.05,102.213,-423.994,0,0
374975.375,102.328,-424.586,0,0
375235.7,102.497,-425.134,0,0
375496.025,102.507,-425.625,0,0
375756.35,102.519,-426.128,0,0
376016.675,102.485,-426.543,0,0
376277.0,102.412,-427.04,0,0
376537.325,102.17,-427.424,0,0
376797.65,101.929,-427.679,0,0
377057.975,101.736,-427.898,0,0
377318.3,101.537,-428.005,0,0
377578.625,101.414,-428.093,0,0
377838.95,101.327,-428.209,0,0
378099.275,101.285,-428.191,0,0
378359.6,101.282,-428.361,0,0
378619.925,101.22,-428.504,0,0
378880,101.223,-428.678,0,0
379141,101.218,-428.914,0,0
379401,101.099,-429.174,0,0
379661,100.953,-429.507,0,0
379922,100.649,-429.763,0,0
380182,100.379,-429.97,0,0
380442,100.044,-430.107,0,0
380703,99.632,-430.175,0,0
380963,99.2717,-430.137,0,0
381223,99.0519,-429.995,0,0
381483,98.8676,-429.919,0,0
381744,98.7621,-429.809,0,0
382004,98.6968,-429.696,0,0
382264,98.7306,-429.703,0,0
382525,98.7142,-429.785,0,0
382785,98.6891,-429.939,0,0
383045,98.6997,-430.081,0,0
383306,98.6363,-430.295,0,0
383566,98.5556,-430.563,0,0
383826,98.4949,-430.907,0,0
384087,98.3605,-431.28,0,0
384347,98.1177,-431.75,0,0
384607,97.8239,-432.249,0,0
384868,97.3575,-432.763,0,0
385128,96.8586,-433.33,0,0
385388,96.2331,-433.827,0,0
385649,95.4259,-434.26,0,0
385909,94.5405,-434.652,0,0
386169,93.5902,-434.977,0,0
386430,92.4728,-435.131,0,0
386690,91.349,-435.193,0,0
386950,90.2318,-435.077,0,0
387211,89.1632,-434.791,0,0
387471,88.0377,-434.349,0,0
387731,87.0281,-433.844,0,0
387992,86.1127,-433.23,0,0
388252,85.3376,-432.557,0,0
388512,84.5851,-431.761,0,0
388773,83.981,-430.985,0,0
389033,83.5482,-430.18,0,0
389293,83.2177,-429.427,0,0
389554,83.0203,-428.685,0,0
389814,82.8505,-428.072,0,0
390074,82.8267,-427.533,0,0
390335,82.7268,-427.118,0,0
390595,82.6921,-426.848,0,0
390855,82.5904,-426.568,0,0
391116,82.4352,-426.455,0,0
391376,82.2391,-426.385,0,0
391636,81.9063,-426.348,0,0
391896,81.5602,-426.316,0,0
392157,81.121,-426.242,0,0
392417,80.6233,-426.165,0,0
392677,80.1095,-426.1,0,0
392938,79.5726,-426.042,0,0
393198,78.9349,-425.948,0,0
393458,78.247,-425.784,0,0
393719,77.4532,-425.614,0,0
393979,76.6845,-425.35,0,0
394239,75.8573,-425.023,0,0
394500,75.1069,-424.655,0,0
394760.05,74.2597,-424.249,0,0
395020.375,73.4424,-423.794,0,0
395280.7,72.6558,-423.232,0,0
395541.025,71.8238,-422.721,0,0
395801.35,70.9981,-422.113,0,0
396061.675,70.2483,-421.458,0,0
396322.0,69.4493,-420.698,0,0
396582.325,68.6735,-419.962,0,0
396842.65,67.9873,-419.203,0,0
397102.975,67.2938,-418.324,0,0
397363.3,66.6343,-417.482,0,0
397623.625,65.9764,-416.558,0,0
397883.95,65.3815,-415.624,0,0
398144.275,64.7856,-414.682,0,0
398404.6,64.2529,-413.706,0,0
398664.925,63.7538,-412.735,0,0
398925.25,63.2644,-411.681,0,0
399185.575,62.856,-410.584,0,0
399445.9,62.439,-409.463,0,0
399706.225,62.1244,-408.439,0,0
399966.55,61.7917,-407.296,0,0
400006.6,61.7631,-407.139,0,0