File: Accelerated corrosion test data/2025-10-21_06-00-04/sample_6.csv
Frequency (Hz),Impedance (ohms),Phase (Radians),Temperature (C),Humidity (%)
10000.0,4083.93,-6829.13,0,0
10260.325,3945.75,-6740.17,0,0
10520.65,3814.11,-6651.5,0,0
10780.975,3689.07,-6564.41,0,0
11041.3,3569.86,-6477.97,0,0
11301.625,3456.02,-6393.2,0,0
11561.95,3347.71,-6309.54,0,0
11822.275,3244.08,-6226.81,0,0
12082.6,3144.75,-6146.14,0,0
12342.925,3050.44,-6066.21,0,0
12603.25,2961.64,-5985.69,0,0
12863.575,2875.37,-5909.79,0,0
13123.9,2794.13,-5835.01,0,0
13384.225,2714.98,-5762.93,0,0
13644.55,2637.7,-5690.78,0,0
13904.875,2564.9,-5619.59,0,0
14165.2,2494.86,-5549.08,0,0
14425.525,2427.05,-5480.33,0,0
14685.8,2363.66,-5412.8,0,0
14946.175,2302.23,-5346.84,0,0
15206.5,2242.78,-5282.3,0,0
15466.825,2185.81,-5218.92,0,0
15727.15,2130.91,-5156.69,0,0
15987.5,2078.1,-5095.68,0,0
16247.8,2027.22,-5036.11,0,0
16508.125,1978.27,-4977.14,0,0
16768.45,1931.41,-4919.4,0,0
17028.775,1886.31,-4862.93,0,0
17289.1,1842.62,-4807.94,0,0
17549.425,1800.01,-4754.25,0,0
17809.75,1759.62,-4700.3,0,0
18070.075,1719.29,-4648.43,0,0
18330.4,1681.26,-4596.45,0,0
18590.725,1644.99,-4546.51,0,0
18851.05,1609.83,-4496.74,0,0
19111.375,1575.8,-4448.83,0,0
19371.7,1542.95,-4402.19,0,0
19632.025,1510.89,-4356.43,0,0
19892.35,1479.19,-4311.1,0,0
20152.675,1449.8,-4265.68,0,0
20413.0,1419.88,-4222.05,0,0
20673.3,1391.65,-4179.1,0,0
20933.65,1364.16,-4136.37,0,0
21193.975,1337.19,-4094.44,0,0
21454.3,1311.87,-4054.53,0,0
21714.625,1286.55,-4013.91,0,0
21974.9,1262.82,-3973.68,0,0
22235.275,1238.85,-3935.31,0,0
22495.6,1215.73,-3897.1,0,0
22755.925,1193.64,-3858.95,0,0
23016.25,1173.28,-3821.23,0,0
23276.6,1154.39,-3785.76,0,0
23536.9,1134.45,-3751.36,0,0
23797.225,1114.45,-3716.62,0,0
24057.55,1095.41,-3682.84,0,0
24317.875,1076.47,-3649.54,0,0
24578.2,1058.2,-3616.57,0,0
24838.525,1040.6,-3584,0,0
25098.85,1023.61,-3551.91,0,0
25359.175,1006.91,-3520.76,0,0
25619.5,990.474,-3490.63,0,0
25879.8,974.244,-3460.26,0,0
26140.1,958.68,-3430.16,0,0
26400.5,943.738,-3400.38,0,0
26660.8,929.54,-3371.09,0,0
26921.1,915.31,-3343.12,0,0
27181.4,901.809,-3315.16,0,0
27441.8,888.43,-3287.36,0,0
27702.1,875.22,-3260.47,0,0
27962.4,862.149,-3234.93,0,0
28222.7,848.64,-3208.87,0,0
28483.1,835.393,-3182.99,0,0
28743.4,822.67,-3156.74,0,0
29003.7,810.378,-3131,0,0
29264,798.22,-3104.97,0,0
29524.4,786.988,-3079.04,0,0
29784.7,777.436,-3054.11,0,0
30045,767.685,-3030.56,0,0
30305.3,757.999,-3006.59,0,0
30565.7,749.732,-2984.1,0,0
30826,739.642,-2963.49,0,0
31086.3,729.115,-2941.66,0,0
31346.6,718.592,-2919.47,0,0
31607,708.858,-2896.65,0,0
31867.3,700.753,-2875.36,0,0
32127.6,690.796,-2853.61,0,0
32387.9,683.072,-2831.75,0,0
32648.3,675.78,-2810.74,0,0
32908.6,669.182,-2791.25,0,0
33168.9,661.843,-2773.21,0,0
33429.2,653.703,-2755.29,0,0
33689.6,644.607,-2737.15,0,0
33949.9,635.09,-2718.01,0,0
34210.2,626.664,-2698.98,0,0
34470.5,619.042,-2679.77,0,0
34730.9,611.36,-2661.14,0,0
34991.2,604.2,-2642.54,0,0
35251.5,597.272,-2624.91,0,0
35511.8,589.969,-2607.59,0,0
35772.2,582.147,-2589.81,0,0
36032.5,574.551,-2571.84,0,0
36292.8,567.7,-2553.98,0,0
36553.1,561.464,-2536.4,0,0
36813.5,554.961,-2518.92,0,0
37073.8,548.948,-2501.76,0,0
37334.1,543.413,-2484.82,0,0
37594.4,537.658,-2468.41,0,0
37854.8,531.982,-2451.99,0,0
38115.1,526.039,-2435.68,0,0
38375.4,521.109,-2419.17,0,0
38635.7,516.337,-2403.24,0,0
38896.1,511.22,-2387.19,0,0
39156.4,507.259,-2371.27,0,0
39416.7,503.502,-2356.22,0,0
39677,499.858,-2341.63,0,0
39937.4,496.209,-2327.71,0,0
40197.7,491.856,-2313.72,0,0
40458,488.962,-2300.41,0,0
40718.3,484.691,-2288.1,0,0
40978.7,479.969,-2275.61,0,0
41239,475.159,-2262.32,0,0
41499.3,470.69,-2249.38,0,0
41759.6,466.699,-2237.32,0,0
42020,461.113,-2225.15,0,0
42280.275,455.855,-2212.5,0,0
42540.6,450.391,-2199.66,0,0
42800.925,445.51,-2186.01,0,0
43061.25,440.301,-2172.15,0,0
43321.575,436.52,-2157.54,0,0
43581.9,433.944,-2144.2,0,0
43842.225,431.13,-2131.45,0,0
44102.55,428.664,-2118.89,0,0
44362.875,426.057,-2107.21,0,0
44623.2,423.549,-2095.13,0,0
44883.525,421.122,-2083.88,0,0
45143.85,418.098,-2072.34,0,0
45404.175,415.967,-2061.37,0,0
45664.5,413.07,-2050.74,0,0
45924.825,411.067,-2039.6,0,0
46185.15,408.966,-2029.97,0,0
46445.475,405.698,-2020.11,0,0
46705.8,403.389,-2009.65,0,0
46966.125,400.854,-1999.75,0,0
47226.45,398.535,-1990.01,0,0
47486.775,395.984,-1980.28,0,0
47747.1,394.433,-1971.15,0,0
48007.425,392.194,-1963.14,0,0
48267.75,389.05,-1954.74,0,0
48528.075,386.244,-1946.34,0,0
48788.4,383.605,-1938.8,0,0
49048.725,379.688,-1931.91,0,0
49309.05,375.025,-1924.48,0,0
49569.375,369.904,-1915.83,0,0
49829.7,365.305,-1907.02,0,0
50090.025,360.64,-1898.54,0,0
50350.35,355.485,-1889.14,0,0
50610.675,351.08,-1879.58,0,0
50871.0,346.449,-1869.83,0,0
51131.325,342.456,-1859.59,0,0
51391.65,338.944,-1849.55,0,0
51651.975,335.511,-1839.65,0,0
51912.3,332.52,-1829.84,0,0
52172.625,329.335,-1820.04,0,0
52432.95,326.819,-1810.14,0,0
52693.275,324.66,-1800.65,0,0
52953.6,322.649,-1791.7,0,0
53213.925,320.35,-1783.2,0,0
53474.25,317.612,-1774.74,0,0
53734.575,314.943,-1765.91,0,0
53994.9,312.398,-1757.01,0,0
54255.225,310.279,-1747.96,0,0
54515.55,308.524,-1739.31,0,0
54775.875,306.748,-1731.28,0,0
55036.2,305.042,-1723.26,0,0
55296.525,303.062,-1715.87,0,0
55556.85,300.351,-1708.23,0,0
55817.175,297.748,-1700.28,0,0
56077.5,295.376,-1692.16,0,0
56337.825,292.964,-1683.85,0,0
56598.15,291.025,-1675.55,0,0
56858.475,289.539,-1667.45,0,0
57118.8,288.203,-1659.74,0,0
57379.125,286.864,-1652.51,0,0
57639.45,285.247,-1645.36,0,0
57899.775,283.811,-1638.42,0,0
58160.1,281.87,-1631.92,0,0
58420.4,279.827,-1625.4,0,0
58680.7,277.657,-1618.73,0,0
58941.1,275.284,-1612.01,0,0
59201.4,272.948,-1605.2,0,0
59461.7,270.609,-1598.27,0,0
59722,268.399,-1591.4,0,0
59982.4,265.986,-1584.51,0,0
60242.7,263.826,-1577.5,0,0
60503,261.504,-1570.49,0,0
60763.3,259.253,-1563.55,0,0
61023.7,257.14,-1556.48,0,0
61284,254.968,-1549.66,0,0
61544.3,252.408,-1542.69,0,0
61804.6,250.173,-1535.12,0,0
62065,248.122,-1527.37,0,0
62325.3,246.572,-1519.32,0,0
62585.6,245.685,-1511.45,0,0
62845.9,245.33,-1503.87,0,0
63106.3,245.652,-1497.16,0,0
63366.6,245.622,-1491.3,0,0
63626.9,245.355,-1486.05,0,0
63887.2,244.438,-1481.13,0,0
64147.6,242.914,-1476.09,0,0
64407.9,240.818,-1470.94,0,0
64668.2,238.591,-1465.25,0,0
64928.5,236.652,-1459.27,0,0
65188.9,234.779,-1453.08,0,0
65449.2,233.24,-1446.72,0,0
65709.5,232.213,-1440.8,0,0
65969.8,231.027,-1435.25,0,0
66230.2,229.715,-1429.73,0,0
66490.5,228.219,-1424.32,0,0
66750.8,226.738,-1418.98,0,0
67011.1,224.915,-1413.53,0,0
67271.5,223.064,-1408.09,0,0
67531.8,221.43,-1402.48,0,0
67792.1,219.681,-1396.83,0,0
68052.4,217.986,-1391.21,0,0
68312.8,216.422,-1385.53,0,0
68573.1,214.825,-1379.8,0,0
68833.4,213.338,-1374.31,0,0
69093.7,211.91,-1368.47,0,0
69354.1,210.432,-1363.14,0,0
69614.4,208.873,-1357.51,0,0
69874.7,207.417,-1352.02,0,0
70135,205.978,-1346.47,0,0
70395.4,204.536,-1341,0,0
70655.7,203.153,-1335.55,0,0
70916,201.795,-1329.99,0,0
71176.3,200.503,-1324.61,0,0
71436.7,199.236,-1319.16,0,0
71697,198.012,-1313.69,0,0
71957.3,196.901,-1308.28,0,0
72217.6,195.735,-1302.91,0,0
72478,194.624,-1297.65,0,0
72738.3,193.616,-1292.41,0,0
72998.6,192.442,-1287.24,0,0
73258.9,191.388,-1282.08,0,0
73519.3,190.312,-1276.98,0,0
73779.6,189.24,-1271.86,0,0
74039.9,188.223,-1266.78,0,0
74300.225,187.302,-1261.82,0,0
74560.55,186.251,-1256.83,0,0
74820.875,185.256,-1251.94,0,0
75081.2,184.17,-1247.11,0,0
75341.525,183.091,-1242.19,0,0
75601.85,182.005,-1237.21,0,0
75862.175,180.99,-1232.38,0,0
76122.5,179.969,-1227.49,0,0
76382.825,178.903,-1222.59,0,0
76643.15,177.893,-1217.78,0,0
76903.475,176.938,-1212.91,0,0
77163.8,175.955,-1208.07,0,0
77424.125,174.999,-1203.26,0,0
77684.45,174.069,-1198.44,0,0
77944.775,173.163,-1193.61,0,0
78205.1,172.241,-1188.87,0,0
78465.425,171.373,-1184.08,0,0
78725.75,170.506,-1179.33,0,0
78986.075,169.68,-1174.55,0,0
79246.4,168.879,-1169.82,0,0
79506.725,168.068,-1165.12,0,0
79767.05,167.26,-1160.42,0,0
80027.375,166.495,-1155.69,0,0
80287.7,165.752,-1151,0,0
80548.025,165.065,-1146.25,0,0
80808.35,164.404,-1141.59,0,0
81068.675,163.797,-1136.89,0,0
81329.0,163.309,-1132.26,0,0
81589.325,162.735,-1127.62,0,0
81849.65,162.287,-1123.08,0,0
82109.975,161.816,-1118.52,0,0
82370.3,161.316,-1114.05,0,0
82630.625,160.842,-1109.54,0,0
82890.95,160.392,-1105.1,0,0
83151.275,159.967,-1100.63,0,0
83411.6,159.639,-1096.14,0,0
83671.925,159.255,-1091.7,0,0
83932.25,158.96,-1087.2,0,0
84192.575,158.734,-1082.75,0,0
84452.9,158.531,-1078.33,0,0
84713.225,158.359,-1074.02,0,0
84973.55,158.369,-1069.65,0,0
85233.875,158.352,-1065.4,0,0
85494.2,158.482,-1061.24,0,0
85754.525,158.547,-1057.15,0,0
86014.85,158.627,-1053.12,0,0
86275.175,158.672,-1049.17,0,0
86535.5,158.707,-1045.24,0,0
86795.825,158.804,-1041.31,0,0
87056.15,158.932,-1037.53,0,0
87316.475,159.077,-1033.73,0,0
87576.8,159.2,-1029.95,0,0
87837.125,159.279,-1026.34,0,0
88097.45,159.362,-1022.68,0,0
88357.775,159.413,-1019.07,0,0
88618.1,159.647,-1015.28,0,0
88878.425,160.062,-1011.68,0,0
89138.75,160.453,-1008.27,0,0
89399.075,160.991,-1005.03,0,0
89659.4,161.418,-1002.03,0,0
89919.725,161.67,-999.232,0,0
90180,161.818,-996.819,0,0
90440.4,161.725,-994.229,0,0
90700.7,161.198,-991.304,0,0
90961,160.669,-988.83,0,0
91221.3,159.623,-985.896,0,0
91481.7,158.894,-982.442,0,0
91742,158.435,-978.903,0,0
92002.3,158.262,-975.437,0,0
92262.6,158.18,-972.255,0,0
92523,157.899,-969.256,0,0
92783.3,157.377,-966.106,0,0
93043.6,156.981,-962.944,0,0
93303.9,156.59,-959.557,0,0
93564.3,156.284,-956.218,0,0
93824.6,156.029,-952.816,0,0
94084.9,155.917,-949.417,0,0
94345.2,155.867,-946.16,0,0
94605.6,155.727,-942.925,0,0
94865.9,155.756,-939.655,0,0
95126.2,155.822,-936.522,0,0
95386.5,155.853,-933.297,0,0
95646.9,156.226,-930.206,0,0
95907.2,156.563,-927.372,0,0
96167.5,156.782,-924.767,0,0
96427.8,156.9,-922.194,0,0
96688.2,156.901,-919.728,0,0
96948.5,156.809,-917.334,0,0
97208.8,156.484,-914.908,0,0
97469.1,155.966,-912.466,0,0
97729.5,155.356,-909.733,0,0
97989.8,154.829,-906.754,0,0
98250.1,154.6,-903.776,0,0
98510.4,154.36,-900.96,0,0
98770.8,154.159,-897.965,0,0
99031.1,154.21,-895,0,0
99291.4,154.306,-892.358,0,0
99551.7,154.315,-889.744,0,0
99812.1,154.289,-887.261,0,0
100072,154.277,-884.742,0,0
100333,154.335,-882.296,0,0
100593,154.277,-879.966,0,0
100853,154.229,-877.764,0,0
101114,154.066,-875.749,0,0
101374,153.704,-873.678,0,0
101634,153.213,-871.624,0,0
101895,152.626,-869.433,0,0
102155,152.103,-867.061,0,0
102415,151.699,-864.854,0,0
102676,151.231,-862.814,0,0
102936,150.578,-860.827,0,0
103196,149.809,-858.797,0,0
103457,148.941,-856.724,0,0
103717,148.077,-854.612,0,0
103977,147.061,-852.567,0,0
104238,145.98,-850.577,0,0
104498,144.632,-848.565,0,0
104758,142.989,-846.346,0,0
105019,141.237,-843.963,0,0
105279,139.494,-841.281,0,0
105539,137.538,-838.61,0,0
105800,135.326,-835.436,0,0
106060,133.314,-831.689,0,0
106320.175,131.559,-827.688,0,0
106580.5,130.147,-823.41,0,0
106840.825,129.075,-818.995,0,0
107101.15,128.416,-814.484,0,0
107361.475,128.135,-810.131,0,0
107621.8,127.962,-805.905,0,0
107882.125,128.137,-801.615,0,0
108142.45,128.486,-797.636,0,0
108402.775,128.832,-793.782,0,0
108663.1,129.497,-790.084,0,0
108923.425,130.116,-786.609,0,0
109183.75,130.649,-783.277,0,0
109444.075,131.263,-779.98,0,0
109704.4,131.916,-776.667,0,0
109964.725,132.619,-773.47,0,0
110225.05,133.352,-770.349,0,0
110485.375,134.207,-767.298,0,0
110745.7,135.075,-764.332,0,0
111006.025,136.164,-761.353,0,0
111266.35,137.294,-758.672,0,0
111526.675,138.641,-756.229,0,0
111787.0,140.098,-754.086,0,0
112047.325,141.253,-752.564,0,0
112307.65,142.028,-751.132,0,0
112567.975,142.606,-749.922,0,0
112828.3,142.748,-748.706,0,0
113088.625,142.495,-747.323,0,0
113348.95,142.081,-745.62,0,0
113609.275,141.73,-743.57,0,0
113869.6,141.565,-741.638,0,0
114129.925,141.318,-739.737,0,0
114390.25,140.907,-737.84,0,0
114650.575,140.386,-735.637,0,0
114910.9,139.935,-733.23,0,0
115171.225,139.83,-730.757,0,0
115431.55,140.065,-728.201,0,0
115691.875,140.64,-726.211,0,0
115952.2,140.915,-724.805,0,0
116212.525,140.672,-723.535,0,0
116472.85,140.119,-722.098,0,0
116733.175,139.448,-720.663,0,0
116993.5,138.397,-719.122,0,0
117253.825,136.995,-717.288,0,0
117514.15,135.598,-714.99,0,0
117774.475,134.243,-712.446,0,0
118034.8,133.047,-709.588,0,0
118295.125,132.014,-706.61,0,0
118555.45,131.18,-703.55,0,0
118815.775,130.475,-700.41,0,0
119076.1,129.844,-697.186,0,0
119336.425,129.332,-693.859,0,0
119596.75,129.105,-690.442,0,0
119857.075,129.131,-687.12,0,0
120117.4,129.31,-683.867,0,0
120377.725,129.615,-680.768,0,0
120638.05,129.929,-677.687,0,0
120898.375,130.613,-674.613,0,0
121158.7,131.52,-672.057,0,0
121419.025,132.171,-669.872,0,0
121679.35,132.564,-667.878,0,0
121939.675,132.667,-665.868,0,0
122200.0,132.593,-663.742,0,0
122460,132.432,-661.567,0,0
122721,132.169,-659.218,0,0
122981,131.901,-656.677,0,0
123241,131.846,-654.089,0,0
123502,131.79,-651.543,0,0
123762,131.791,-648.939,0,0
124022,131.815,-646.394,0,0
124283,131.846,-643.81,0,0
124543,131.956,-641.25,0,0
124803,132.051,-638.761,0,0
125064,132.051,-636.386,0,0
125324,132.066,-633.832,0,0
125584,132.035,-631.281,0,0
125845,132.063,-628.686,0,0
126105,132.096,-626.069,0,0
126365,132.177,-623.472,0,0
126626,132.269,-620.857,0,0
126886,132.279,-618.211,0,0
127146,132.384,-615.546,0,0
127406,132.45,-612.727,0,0
127667,132.716,-609.906,0,0
127927,132.932,-607.14,0,0
128187,133.248,-604.269,0,0
128448,133.637,-601.404,0,0
128708,134.17,-598.55,0,0
128968,134.785,-595.783,0,0
129229,135.419,-593.117,0,0
129489,136.062,-590.449,0,0
129749,136.753,-587.831,0,0
130010,137.496,-585.246,0,0
130270,138.209,-582.752,0,0
130530,138.913,-580.312,0,0
130791,139.673,-577.821,0,0
131051,140.401,-575.389,0,0
131311,141.184,-572.976,0,0
131572,141.965,-570.575,0,0
131832,142.769,-568.175,0,0
132092,143.608,-565.841,0,0
132353,144.542,-563.517,0,0
132613,145.499,-561.284,0,0
132873,146.403,-559.086,0,0
133134,147.396,-556.991,0,0
133394,148.346,-554.933,0,0
133654,149.265,-552.962,0,0
133915,150.082,-551.001,0,0
134175,150.889,-549.011,0,0
134435,151.75,-547.015,0,0
134696,152.711,-545.052,0,0
134956,153.602,-543.15,0,0
135216,154.513,-541.322,0,0
135477,155.373,-539.554,0,0
135737,156.302,-537.717,0,0
135997,157.234,-535.979,0,0
136258,158.217,-534.355,0,0
136518,159.137,-532.889,0,0
136778,160.026,-531.452,0,0
137039,160.773,-530.083,0,0
137299,161.427,-528.775,0,0
137559,162.011,-527.468,0,0
137819,162.533,-526.158,0,0
138080,162.986,-524.848,0,0
138340.125,163.295,-523.549,0,0
138600.45,163.587,-522.281,0,0
138860.775,163.861,-521.044,0,0
139121.1,163.885,-519.683,0,0
139381.425,163.908,-518.381,0,0
139641.75,163.82,-516.766,0,0
139902.075,163.774,-515.127,0,0
140162.4,163.687,-513.412,0,0
140422.725,163.706,-511.637,0,0
140683.05,163.769,-509.728,0,0
140943.375,163.942,-507.943,0,0
141203.7,164.115,-506.194,0,0
141464.025,164.24,-504.576,0,0
141724.35,164.323,-502.9,0,0
141984.675,164.231,-501.278,0,0
142245.0,164.083,-499.616,0,0
142505.325,163.757,-497.789,0,0
142765.65,163.425,-495.842,0,0
143025.975,163.152,-493.575,0,0
143286.3,162.878,-491.254,0,0
143546.625,162.93,-488.886,0,0
143806.95,163.01,-486.445,0,0
144067.275,163.269,-483.964,0,0
144327.6,163.688,-481.641,0,0
144587.925,164.139,-479.436,0,0
144848.25,164.642,-477.294,0,0
145108.575,165.165,-475.202,0,0
145368.9,165.636,-473.316,0,0
145629.225,165.947,-471.526,0,0
145889.55,166.153,-469.624,0,0
146149.875,166.374,-467.74,0,0
146410.2,166.463,-465.804,0,0
146670.525,166.53,-463.966,0,0
146930.85,166.527,-461.954,0,0
147191.175,166.352,-460.023,0,0
147451.5,166.238,-457.925,0,0
147711.825,166.014,-455.71,0,0
147972.15,165.739,-453.326,0,0
148232.475,165.538,-450.817,0,0
148492.8,165.402,-448.172,0,0
148753.125,165.393,-445.455,0,0
149013.45,165.366,-442.649,0,0
149273.775,165.617,-439.784,0,0
149534.1,165.894,-436.904,0,0
149794.425,166.285,-433.946,0,0
150054.75,166.816,-431.126,0,0
150315.075,167.299,-428.394,0,0
150575.4,167.823,-425.497,0,0
150835.725,168.394,-422.641,0,0
151096.05,169.064,-419.805,0,0
151356.375,169.704,-416.966,0,0
151616.7,170.379,-414.038,0,0
151877.025,171.138,-410.995,0,0
152137.35,172.275,-407.868,0,0
152397.675,173.555,-404.879,0,0
152658.0,175.018,-402.128,0,0
152918.325,176.528,-399.644,0,0
153178.65,177.903,-397.445,0,0
153438.975,179.125,-395.275,0,0
153699.3,180.117,-393.146,0,0
153959.625,181.044,-390.9,0,0
154219.95,181.955,-388.683,0,0
154480,182.77,-386.409,0,0
154741,183.532,-383.929,0,0
155001,184.345,-381.361,0,0
155261,185.242,-378.681,0,0
155522,186.335,-375.807,0,0
155782,187.769,-373.009,0,0
156042,189.312,-370.376,0,0
156303,190.959,-368.078,0,0
156563,192.468,-365.87,0,0
156823,193.991,-363.814,0,0
157084,195.467,-361.799,0,0
157344,196.851,-360.008,0,0
157604,197.996,-358.282,0,0
157864,198.987,-356.505,0,0
158125,199.751,-354.664,0,0
158385,200.524,-352.632,0,0
158645,201.285,-350.494,0,0
158906,202,-348.297,0,0
159166,202.854,-346.036,0,0
159426,203.668,-343.709,0,0
159687,204.521,-341.369,0,0
159947,205.437,-339.083,0,0
160207,206.264,-336.737,0,0
160468,207.015,-334.346,0,0
160728,207.804,-331.941,0,0
160988,208.6,-329.414,0,0
161249,209.448,-326.855,0,0
161509,210.312,-324.206,0,0
161769,211.176,-321.527,0,0
162030,212.111,-318.872,0,0
162290,213.066,-316.162,0,0
162550,214.055,-313.335,0,0
162811,215.114,-310.524,0,0
163071,216.248,-307.741,0,0
163331,217.391,-304.972,0,0
163592,218.572,-302.244,0,0
163852,219.732,-299.588,0,0
164112,220.838,-296.957,0,0
164373,221.792,-294.264,0,0
164633,222.733,-291.491,0,0
164893,223.583,-288.639,0,0
165154,224.447,-285.599,0,0
165414,225.288,-282.469,0,0
165674,226.181,-279.225,0,0
165935,227.164,-275.837,0,0
166195,228.183,-272.37,0,0
166455,229.266,-268.784,0,0
166716,230.433,-265.124,0,0
166976,231.687,-261.392,0,0
167236,233.069,-257.493,0,0
167497,234.577,-253.545,0,0
167757,236.264,-249.596,0,0
168017,238.067,-245.614,0,0
168277,239.985,-241.652,0,0
168538,241.968,-237.752,0,0
168798,244.055,-233.762,0,0
169058,246.187,-229.817,0,0
169319,248.388,-225.895,0,0
169579,250.639,-221.981,0,0
169839,252.897,-218.018,0,0
170100,255.24,-214.049,0,0
170360.075,257.615,-210.044,0,0
170620.4,260.116,-206.005,0,0
170880.725,262.645,-201.968,0,0
171141.05,265.147,-197.926,0,0
171401.375,267.639,-193.772,0,0
171661.7,270.161,-189.491,0,0
171922.025,272.81,-185.15,0,0
172182.35,275.548,-180.657,0,0
172442.675,278.417,-176.144,0,0
172703.0,281.385,-171.512,0,0
172963.325,284.5,-166.788,0,0
173223.65,287.744,-162.016,0,0
173483.975,291.092,-157.191,0,0
173744.3,294.587,-152.269,0,0
174004.625,298.233,-147.242,0,0
174264.95,302.112,-142.122,0,0
174525.275,306.162,-137.031,0,0
174785.6,310.381,-131.849,0,0
175045.925,314.804,-126.707,0,0
175306.25,319.39,-121.483,0,0
175566.575,324.196,-116.236,0,0
175826.9,329.228,-110.972,0,0
176087.225,334.432,-105.754,0,0
176347.55,339.83,-100.464,0,0
176607.875,345.484,-95.2412,0,0
176868.2,351.367,-89.9656,0,0
177128.525,357.52,-84.762,0,0
177388.85,363.827,-79.6527,0,0
177649.175,370.379,-74.5289,0,0
177909.5,377.179,-69.5488,0,0
178169.825,384.181,-64.5887,0,0
178430.15,391.375,-59.7129,0,0
178690.475,398.853,-54.8629,0,0
178950.8,406.602,-50.0505,0,0
179211.125,414.634,-45.4443,0,0
179471.45,422.884,-41.0054,0,0
179731.775,431.331,-36.82,0,0
179992.1,439.923,-32.7555,0,0
180252.425,448.708,-28.9287,0,0
180512.75,457.51,-25.1997,0,0
180773.075,466.479,-21.6592,0,0
181033.4,475.493,-18.1156,0,0
181293.725,484.665,-14.6105,0,0
181554.05,493.914,-11.2052,0,0
181814.375,503.499,-7.869,0,0
182074.7,513.217,-4.57337,0,0
182335.025,523.068,-1.33696,0,0
182595.35,533.203,1.87377,0,0
182855.675,543.523,5.04534,0,0
183116.0,554.032,8.03755,0,0
183376.325,564.823,11.1515,0,0
183636.65,575.849,14.1919,0,0
183896.975,587.302,17.1939,0,0
184157.3,599.083,20.0957,0,0
184417.625,611.227,22.8895,0,0
184677.95,623.748,25.62,0,0
184938.275,636.739,28.2677,0,0
185198.6,650.188,30.786,0,0
185458.925,664.171,33.1214,0,0
185719.25,678.645,35.266,0,0
185979.575,693.82,37.1129,0,0
186239.9,709.548,38.6897,0,0
186500,725.954,39.7564,0,0
186761,742.935,40.3098,0,0
187021,760.533,40.3825,0,0
187281,778.739,39.7773,0,0
187542,797.484,38.5201,0,0
187802,816.807,36.5351,0,0
188062,836.706,33.788,0,0
188322,857.181,30.1204,0,0
188583,878.201,25.4815,0,0
188843,899.712,19.7233,0,0
189103,921.562,12.7389,0,0
189364,943.675,4.37564,0,0
189624,965.985,-5.36143,0,0
189884,988.144,-16.2977,0,0
190145,1010.3,-28.7816,0,0
190405,1032.31,-42.7118,0,0
190665,1053.79,-57.9814,0,0
190926,1074.84,-74.3986,0,0
191186,1095.44,-92.3378,0,0
191446,1115.58,-111.595,0,0
191707,1134.91,-132.193,0,0
191967,1153.4,-154.128,0,0
192227,1170.85,-177.423,0,0
192488,1187.28,-201.794,0,0
192748,1202.46,-227.307,0,0
193008,1216.29,-253.715,0,0
193269,1228.85,-281.144,0,0
193529,1240.17,-309.391,0,0
193789,1249.78,-338.345,0,0
194050,1257.84,-367.812,0,0
194310,1264.43,-397.733,0,0
194570,1269.48,-428.213,0,0
194831,1272.82,-459.023,0,0
195091,1274.63,-489.754,0,0
195351,1274.83,-520.938,0,0
195612,1273.26,-551.685,0,0
195872,1269.97,-582.313,0,0
196132,1265,-612.594,0,0
196393,1258.41,-642.712,0,0
196653,1250.3,-671.809,0,0
196913,1240.7,-700.384,0,0
197174,1229.61,-728.203,0,0
197434,1217.41,-754.939,0,0
197694,1204.02,-780.707,0,0
197955,1189.43,-805.464,0,0
198215,1173.88,-829.093,0,0
198475,1157.55,-851.556,0,0
198735,1140.12,-873.189,0,0
198996,1122.19,-893.288,0,0
199256,1103.92,-912.311,0,0
199516,1085.11,-930.148,0,0
199777,1065.56,-946.849,0,0
200037,1046.07,-962.562,0,0
200297,1025.5,-977.307,0,0
200558,1005.39,-990.619,0,0
200818,984.691,-1002.76,0,0
201078,963.911,-1013.93,0,0
201339,943.233,-1023.97,0,0
201599,922.451,-1032.75,0,0
201859,901.925,-1040.52,0,0
202120,881.597,-1047.28,0,0
202380.025,861.662,-1052.99,0,0
202640.35,842.128,-1057.91,0,0
202900.675,822.711,-1062.07,0,0
203161.0,803.6,-1065.18,0,0
203421.325,785.486,-1067.79,0,0
203681.65,767.645,-1069.79,0,0
203941.975,749.979,-1071.27,0,0
204202.3,732.969,-1071.93,0,0
204462.625,716.104,-1072.45,0,0
204722.95,699.813,-1072.4,0,0
204983.275,683.926,-1072.06,0,0
205243.6,668.423,-1071.08,0,0
205503.925,653.272,-1069.74,0,0
205764.25,638.615,-1068.28,0,0
206024.575,624.348,-1066.17,0,0
206284.9,610.452,-1064.05,0,0
206545.225,596.706,-1061.39,0,0
206805.55,583.502,-1058.91,0,0
207065.875,570.735,-1055.79,0,0
207326.2,558.386,-1052.5,0,0
207586.525,546.261,-1049.09,0,0
207846.85,534.542,-1045.53,0,0
208107.175,523.153,-1041.79,0,0
208367.5,512.194,-1037.93,0,0
208627.825,501.429,-1033.89,0,0
208888.15,491.068,-1029.83,0,0
209148.475,480.991,-1025.52,0,0
209408.8,471.395,-1021.05,0,0
209669.125,461.83,-1016.98,0,0
209929.45,452.779,-1012.55,0,0
210189.775,444.104,-1008.21,0,0
210450.1,435.195,-1003.66,0,0
210710.425,426.562,-999.167,0,0
210970.75,418.245,-994.513,0,0
211231.075,410.003,-989.856,0,0
211491.4,402.086,-985.033,0,0
211751.725,394.37,-980.199,0,0
212012.05,386.881,-975.115,0,0
212272.375,379.786,-969.95,0,0
212532.7,372.831,-964.822,0,0
212793.025,366.199,-959.803,0,0
213053.35,359.711,-954.609,0,0
213313.675,353.659,-949.591,0,0
213574.0,347.73,-944.524,0,0
213834.325,341.928,-939.51,0,0
214094.65,336.298,-934.564,0,0
214354.975,330.67,-929.646,0,0
214615.3,325.327,-924.532,0,0
214875.625,320.226,-919.594,0,0
215135.95,315.101,-914.645,0,0
215396.275,310.352,-909.783,0,0
215656.6,305.751,-904.597,0,0
215916.925,301.181,-899.717,0,0
216177.25,296.987,-894.764,0,0
216437.575,292.776,-889.895,0,0
216697.9,288.784,-885.105,0,0
216958.225,284.872,-880.353,0,0
217218.55,281.041,-875.632,0,0
217478.875,277.432,-870.989,0,0
217739.2,273.768,-866.205,0,0
217999.525,270.243,-861.647,0,0
218259.85,266.892,-856.913,0,0
218520,263.596,-852.388,0,0
218780,260.36,-847.83,0,0
219041,257.328,-843.288,0,0
219301,254.468,-838.871,0,0
219561,251.28,-834.334,0,0
219822,248.718,-829.883,0,0
220082,245.887,-825.578,0,0
220342,243.286,-821.049,0,0
220603,240.588,-816.623,0,0
220863,238.259,-812.331,0,0
221123,235.922,-807.819,0,0
221384,233.48,-803.501,0,0
221644,231.32,-799.112,0,0
221904,229.185,-794.789,0,0
222165,227.168,-790.498,0,0
222425,225.082,-786.1,0,0
222685,223.219,-781.622,0,0
222946,221.489,-777.463,0,0
223206,219.858,-773.124,0,0
223466,218.345,-768.903,0,0
223727,216.873,-764.697,0,0
223987,215.503,-760.341,0,0
224247,214.224,-756.028,0,0
224508,212.962,-751.881,0,0
224768,212.041,-747.837,0,0
225028,211.015,-743.482,0,0
225289,210.28,-739.676,0,0
225549,209.482,-735.636,0,0
225809,208.845,-731.658,0,0
226070,208.359,-727.822,0,0
226330,207.947,-724.171,0,0
226590,207.544,-720.426,0,0
226851,207.177,-716.849,0,0
227111,206.846,-713.368,0,0
227371,206.532,-709.893,0,0
227632,206.198,-706.391,0,0
227892,205.921,-702.999,0,0
228152,205.7,-699.641,0,0
228413,205.435,-696.38,0,0
228673,205.326,-692.988,0,0
228933,205.239,-689.704,0,0
229193,205.082,-686.397,0,0
229454,205.157,-683.147,0,0
229714,205.224,-679.991,0,0
229974,205.44,-676.562,0,0
230235,205.514,-673.458,0,0
230495,205.618,-670.258,0,0
230755,205.999,-667.138,0,0
231016,206.398,-664.008,0,0
231276,206.83,-660.914,0,0
231536,207.318,-657.839,0,0
231797,207.933,-654.806,0,0
232057,208.603,-651.81,0,0
232317,209.311,-648.879,0,0
232578,210.13,-645.986,0,0
232838,210.97,-643.14,0,0
233098,211.942,-640.337,0,0
233359,212.963,-637.617,0,0
233619,214.066,-634.948,0,0
233879,215.294,-632.272,0,0
234140,216.468,-629.803,0,0
234400,217.845,-627.284,0,0
234660.3,219.261,-624.83,0,0
234920.625,220.657,-622.558,0,0
235180.95,222.075,-620.24,0,0
235441.275,223.692,-618.069,0,0
235701.6,225.289,-616.062,0,0
235961.925,227.008,-614.035,0,0
236222.25,228.715,-612.065,0,0
236482.575,230.52,-610.288,0,0
236742.9,232.315,-608.567,0,0
237003.225,234.248,-607.013,0,0
237263.55,236.188,-605.386,0,0
237523.875,238.091,-604.014,0,0
237784.2,240.11,-602.709,0,0
238044.525,242.124,-601.499,0,0
238304.85,244.185,-600.375,0,0
238565.175,246.279,-599.347,0,0
238825.5,248.368,-598.581,0,0
239085.825,250.431,-597.74,0,0
239346.15,252.595,-597.131,0,0
239606.475,254.672,-596.643,0,0
239866.8,256.883,-596.195,0,0
240127.125,258.921,-595.955,0,0
240387.45,260.986,-595.757,0,0
240647.775,262.988,-595.757,0,0
240908.1,265.085,-595.83,0,0
241168.425,267.154,-596.009,0,0
241428.75,269.066,-596.297,0,0
241689.075,271.033,-596.654,0,0
241949.4,272.948,-597.22,0,0
242209.725,274.747,-597.845,0,0
242470.05,276.527,-598.545,0,0
242730.375,278.228,-599.339,0,0
242990.7,279.944,-600.294,0,0
243251.025,281.577,-601.322,0,0
243511.35,283.137,-602.375,0,0
243771.675,284.705,-603.693,0,0
244032.0,286.152,-605.122,0,0
244292.325,287.458,-606.558,0,0
244552.65,288.699,-608.148,0,0
244812.975,289.725,-609.831,0,0
245073.3,290.796,-611.668,0,0
245333.625,291.392,-613.612,0,0
245593.95,291.941,-615.425,0,0
245854.275,292.468,-617.268,0,0
246114.6,292.737,-619.061,0,0
246374.925,292.828,-620.919,0,0
246635.25,292.94,-622.665,0,0
246895.575,292.865,-624.288,0,0
247155.9,292.782,-625.989,0,0
247416.225,292.68,-627.572,0,0
247676.55,292.402,-629.252,0,0
247936.875,292.241,-630.847,0,0
248197.2,291.864,-632.55,0,0
248457.525,291.424,-634.055,0,0
248717.85,291.036,-635.521,0,0
248978.175,290.423,-636.987,0,0
249238.5,289.968,-638.319,0,0
249498.825,289.464,-639.627,0,0
249759.15,289.181,-640.867,0,0
250019.475,288.841,-642.074,0,0
250279.8,288.71,-643.469,0,0
250540,288.607,-644.938,0,0
250800,288.334,-646.723,0,0
251061,288.055,-648.595,0,0
251321,287.649,-650.518,0,0
251581,287.136,-652.633,0,0
251842,286.493,-654.739,0,0
252102,285.679,-656.96,0,0
252362,284.707,-659.136,0,0
252623,283.622,-661.342,0,0
252883,282.441,-663.636,0,0
253143,281.009,-665.958,0,0
253404,279.445,-668.288,0,0
253664,277.59,-670.603,0,0
253924,275.625,-672.795,0,0
254185,273.472,-674.93,0,0
254445,271.031,-677.058,0,0
254705,268.532,-679.024,0,0
254966,266.044,-680.705,0,0
255226,263.087,-682.271,0,0
255486,260.233,-683.837,0,0
255747,257.355,-685.144,0,0
256007,254.458,-686.197,0,0
256267,251.369,-687.213,0,0
256528,248.362,-688.11,0,0
256788,245.292,-688.755,0,0
257048,242.273,-689.315,0,0
257309,239.272,-689.762,0,0
257569,236.145,-690.061,0,0
257829,233.118,-690.175,0,0
258090,230.196,-690.312,0,0
258350,227.209,-690.266,0,0
258610,224.396,-690.177,0,0
258871,221.5,-689.983,0,0
259131,218.64,-689.687,0,0
259391,215.849,-689.371,0,0
259651,213.162,-688.873,0,0
259912,210.484,-688.372,0,0
260172,207.687,-687.832,0,0
260432,205.059,-687.12,0,0
260693,202.455,-686.434,0,0
260953,199.964,-685.658,0,0
261213,197.429,-684.86,0,0
261474,194.991,-684.044,0,0
261734,192.596,-683.094,0,0
261994,190.212,-682.127,0,0
262255,187.862,-681.186,0,0
262515,185.626,-680.111,0,0
262775,183.429,-679.06,0,0
263036,181.327,-677.965,0,0
263296,179.173,-676.802,0,0
263556,177.164,-675.705,0,0
263817,175.17,-674.506,0,0
264077,173.202,-673.307,0,0
264337,171.289,-672.165,0,0
264598,169.36,-671.047,0,0
264858,167.452,-669.864,0,0
265118,165.635,-668.547,0,0
265379,163.919,-667.305,0,0
265639,162.062,-666.025,0,0
265899,160.528,-664.759,0,0
266160,158.862,-663.421,0,0
266420,157.182,-662.177,0,0
266680.25,155.644,-660.875,0,0
266940.575,154.098,-659.634,0,0
267200.9,152.502,-658.284,0,0
267461.225,151.008,-657.031,0,0
267721.55,149.545,-655.692,0,0
267981.875,148.126,-654.407,0,0
268242.2,146.712,-653.155,0,0
268502.525,145.241,-651.786,0,0
268762.85,143.974,-650.505,0,0
269023.175,142.552,-649.243,0,0
269283.5,141.234,-647.818,0,0
269543.825,139.968,-646.654,0,0
269804.15,138.618,-645.232,0,0
270064.475,137.299,-643.962,0,0
270324.8,136.107,-642.763,0,0
270585.125,134.891,-641.281,0,0
270845.45,133.729,-639.99,0,0
271105.775,132.541,-638.684,0,0
271366.1,131.365,-637.387,0,0
271626.425,130.196,-636.088,0,0
271886.75,129.09,-634.789,0,0
272147.075,127.994,-633.491,0,0
272407.4,126.932,-632.088,0,0
272667.725,125.829,-630.838,0,0
272928.05,124.798,-629.517,0,0
273188.375,123.765,-628.207,0,0
273448.7,122.769,-626.935,0,0
273709.025,121.695,-625.616,0,0
273969.35,120.792,-624.323,0,0
274229.675,119.8,-622.997,0,0
274490.0,118.831,-621.633,0,0
274750.325,117.935,-620.342,0,0
275010.65,116.981,-619.104,0,0
275270.975,116.041,-617.782,0,0
275531.3,115.155,-616.407,0,0
275791.625,114.338,-615.16,0,0
276051.95,113.411,-613.86,0,0
276312.275,112.561,-612.574,0,0
276572.6,111.735,-611.257,0,0
276832.925,110.915,-609.957,0,0
277093.25,110.13,-608.6,0,0
277353.575,109.32,-607.323,0,0
277613.9,108.527,-605.987,0,0
277874.225,107.766,-604.691,0,0
278134.55,107.016,-603.342,0,0
278394.875,106.226,-602.021,0,0
278655.2,105.586,-600.7,0,0
278915.525,104.88,-599.296,0,0
279175.85,104.204,-598.003,0,0
279436.175,103.547,-596.625,0,0
279696.5,102.952,-595.169,0,0
279956.825,102.488,-593.83,0,0
280217.15,101.928,-592.464,0,0
280477.475,101.496,-591.194,0,0
280737.8,101.079,-589.877,0,0
280998.125,100.731,-588.623,0,0
281258.45,100.37,-587.393,0,0
281518.775,100.023,-586.282,0,0
281779.1,99.6563,-585.17,0,0
282039.425,99.2639,-584.098,0,0
282299.75,98.8499,-583.038,0,0
282560,98.4207,-582.001,0,0
282820,97.98,-580.944,0,0
283081,97.4832,-579.897,0,0
283341,97.0425,-578.828,0,0
283601,96.5623,-577.76,0,0
283862,96.1555,-576.741,0,0
284122,95.7045,-575.649,0,0
284382,95.28,-574.5,0,0
284643,94.8545,-573.535,0,0
284903,94.4235,-572.401,0,0
285163,94.0723,-571.341,0,0
285424,93.7717,-570.307,0,0
285684,93.5034,-569.307,0,0
285944,93.0842,-568.306,0,0
286205,92.8088,-567.36,0,0
286465,92.5672,-566.415,0,0
286725,92.1905,-565.599,0,0
286986,91.8896,-564.67,0,0
287246,91.5766,-563.846,0,0
287506,91.0985,-563.056,0,0
287767,90.776,-562.212,0,0
288027,90.3274,-561.375,0,0
288287,89.8622,-560.55,0,0
288548,89.3809,-559.686,0,0
288808,88.8926,-558.817,0,0
289068,88.4855,-557.902,0,0
289329,88.0947,-556.958,0,0
289589,87.6271,-556.099,0,0
289849,87.1917,-555.156,0,0
290109,86.7222,-554.259,0,0
290370,86.3154,-553.316,0,0
290630,85.9022,-552.4,0,0
290890,85.4698,-551.414,0,0
291151,85.0903,-550.524,0,0
291411,84.7046,-549.633,0,0
291671,84.3425,-548.744,0,0
291932,84.0176,-547.86,0,0
292192,83.6056,-547.054,0,0
292452,83.2481,-546.21,0,0
292713,82.8587,-545.375,0,0
292973,82.5076,-544.499,0,0
293233,82.0149,-543.698,0,0
293494,81.6446,-542.825,0,0
293754,81.1264,-541.994,0,0
294014,80.7291,-541.105,0,0
294275,80.3184,-540.288,0,0
294535,79.778,-539.372,0,0
294795,79.2998,-538.541,0,0
295056,78.9186,-537.628,0,0
295316,78.4907,-536.736,0,0
295576,77.9735,-535.745,0,0
295837,77.648,-534.8,0,0
296097,77.1416,-533.757,0,0
296357,76.798,-532.793,0,0
296618,76.394,-531.846,0,0
296878,75.9827,-530.871,0,0
297138,75.741,-529.899,0,0
297399,75.3792,-528.842,0,0
297659,75.1539,-527.844,0,0
297919,74.9445,-526.886,0,0
298180,74.7052,-525.933,0,0
298440,74.5193,-524.986,0,0
298700.2,74.3749,-524.088,0,0
298960.525,74.1844,-523.268,0,0
299220.85,74.0024,-522.479,0,0
299481.175,73.8183,-521.6,0,0
299741.5,73.6062,-520.834,0,0
300001.825,73.3861,-520.033,0,0
300262.15,73.0534,-519.2,0,0
300522.475,72.7819,-518.441,0,0
300782.8,72.487,-517.693,0,0
301043.125,72.1683,-516.891,0,0
301303.45,71.9189,-516.081,0,0
301563.775,71.6187,-515.274,0,0
301824.1,71.3524,-514.452,0,0
302084.425,71.0446,-513.626,0,0
302344.75,70.7805,-512.846,0,0
302605.075,70.5488,-511.998,0,0
302865.4,70.2038,-511.175,0,0
303125.725,69.9141,-510.288,0,0
303386.05,69.6473,-509.488,0,0
303646.375,69.4051,-508.647,0,0
303906.7,69.2289,-507.828,0,0
304167.025,68.9872,-506.988,0,0
304427.35,68.7534,-506.1,0,0
304687.675,68.5378,-505.271,0,0
304948.0,68.305,-504.449,0,0
305208.325,68.1605,-503.644,0,0
305468.65,67.9524,-502.92,0,0
305728.975,67.8051,-502.116,0,0
305989.3,67.6048,-501.324,0,0
306249.625,67.3945,-500.622,0,0
306509.95,67.2326,-499.837,0,0
306770.275,67.0121,-499.145,0,0
307030.6,66.7724,-498.403,0,0
307290.925,66.5997,-497.601,0,0
307551.25,66.3573,-496.91,0,0
307811.575,66.1009,-496.137,0,0
308071.9,65.8979,-495.373,0,0
308332.225,65.6271,-494.599,0,0
308592.55,65.477,-493.861,0,0
308852.875,65.2474,-493.142,0,0
309113.2,65.0369,-492.389,0,0
309373.525,64.863,-491.538,0,0
309633.85,64.6564,-490.875,0,0
309894.175,64.4193,-490.048,0,0
310154.5,64.2411,-489.373,0,0
310414.825,64.0738,-488.604,0,0
310675.15,63.9016,-487.861,0,0
310935.475,63.6739,-487.163,0,0
311195.8,63.5077,-486.381,0,0
311456.125,63.3242,-485.69,0,0
311716.45,63.1547,-484.967,0,0
311976.775,62.8962,-484.237,0,0
312237.1,62.6665,-483.544,0,0
312497.425,62.4782,-482.803,0,0
312757.75,62.3119,-482.127,0,0
313018.075,62.1664,-481.354,0,0
313278.4,61.9541,-480.681,0,0
313538.725,61.7191,-479.99,0,0
313799.05,61.5609,-479.289,0,0
314059.375,61.38,-478.53,0,0
314319.7,61.1801,-477.805,0,0
314580,60.9405,-477.093,0,0
314840,60.7743,-476.37,0,0
315101,60.5965,-475.716,0,0
315361,60.4662,-474.906,0,0
315621,60.2341,-474.231,0,0
315882,60.0638,-473.534,0,0
316142,59.8844,-472.805,0,0
316402,59.7052,-472.106,0,0
316663,59.5207,-471.375,0,0
316923,59.3747,-470.757,0,0
317183,59.2137,-470.002,0,0
317444,59.0205,-469.274,0,0
317704,58.8886,-468.572,0,0
317964,58.6991,-467.913,0,0
318225,58.5419,-467.182,0,0
318485,58.3271,-466.49,0,0
318745,58.1739,-465.764,0,0
319006,58.0482,-465.125,0,0
319266,57.8646,-464.357,0,0
319526,57.7155,-463.682,0,0
319787,57.5322,-462.917,0,0
320047,57.4424,-462.274,0,0
320307,57.273,-461.545,0,0
320567,57.1288,-460.83,0,0
320828,57.0104,-460.125,0,0
321088,56.8636,-459.498,0,0
321348,56.737,-458.807,0,0
321609,56.5865,-458.103,0,0
321869,56.4717,-457.454,0,0
322129,56.3504,-456.774,0,0
322390,56.2337,-456.126,0,0
322650,56.0614,-455.448,0,0
322910,55.9523,-454.761,0,0
323171,55.8776,-454.124,0,0
323431,55.7502,-453.434,0,0
323691,55.6099,-452.799,0,0
323952,55.5009,-452.2,0,0
324212,55.3153,-451.515,0,0
324472,55.1776,-450.845,0,0
324733,55.1048,-450.186,0,0
324993,54.9075,-449.55,0,0
325253,54.8311,-448.891,0,0
325514,54.6976,-448.226,0,0
325774,54.522,-447.539,0,0
326034,54.3617,-446.964,0,0
326295,54.2813,-446.248,0,0
326555,54.077,-445.606,0,0
326815,53.9875,-444.969,0,0
327076,53.8499,-444.334,0,0
327336,53.6828,-443.647,0,0
327596,53.5782,-442.983,0,0
327857,53.4494,-442.326,0,0
328117,53.3432,-441.695,0,0
328377,53.2152,-441.008,0,0
328638,53.1133,-440.327,0,0
328898,52.9954,-439.63,0,0
329158,52.9001,-439.026,0,0
329419,52.7828,-438.339,0,0
329679,52.6526,-437.673,0,0
329939,52.579,-437.019,0,0
330200,52.4498,-436.345,0,0
330460,52.4014,-435.702,0,0
330720.15,52.32,-435.078,0,0
330980.475,52.2495,-434.401,0,0
331240.8,52.1762,-433.769,0,0
331501.125,52.0879,-433.173,0,0
331761.45,52.0461,-432.53,0,0
332021.775,51.953,-431.866,0,0
332282.1,51.8801,-431.28,0,0
332542.425,51.7683,-430.587,0,0
332802.75,51.6975,-429.991,0,0
333063.075,51.5933,-429.368,0,0
333323.4,51.5433,-428.771,0,0
333583.725,51.4254,-428.111,0,0
333844.05,51.3616,-427.493,0,0
334104.375,51.2899,-426.891,0,0
334364.7,51.2379,-426.278,0,0
334625.025,51.1303,-425.632,0,0
334885.35,51.0385,-424.989,0,0
335145.675,50.9587,-424.357,0,0
335406.0,50.9229,-423.769,0,0
335666.325,50.8378,-423.134,0,0
335926.65,50.7891,-422.511,0,0
336186.975,50.7366,-421.891,0,0
336447.3,50.6325,-421.276,0,0
336707.625,50.5982,-420.665,0,0
336967.95,50.52,-420.077,0,0
337228.275,50.4697,-419.482,0,0
337488.6,50.4402,-418.82,0,0
337748.925,50.3566,-418.247,0,0
338009.25,50.2705,-417.638,0,0
338269.575,50.2361,-417.022,0,0
338529.9,50.1458,-416.469,0,0
338790.225,50.1129,-415.874,0,0
339050.55,50.0866,-415.194,0,0
339310.875,49.9762,-414.607,0,0
339571.2,49.9388,-414.024,0,0
339831.525,49.8429,-413.396,0,0
340091.85,49.8542,-412.816,0,0
340352.175,49.7724,-412.2,0,0
340612.5,49.7097,-411.586,0,0
340872.825,49.6601,-410.982,0,0
341133.15,49.6426,-410.343,0,0
341393.475,49.612,-409.719,0,0
341653.8,49.6057,-409.151,0,0
341914.125,49.6043,-408.538,0,0
342174.45,49.5818,-407.926,0,0
342434.775,49.5356,-407.35,0,0
342695.1,49.5755,-406.743,0,0
342955.425,49.5643,-406.144,0,0
343215.75,49.5686,-405.627,0,0
343476.075,49.5718,-405.031,0,0
343736.4,49.5291,-404.48,0,0
343996.725,49.546,-403.957,0,0
344257.05,49.5325,-403.37,0,0
344517.375,49.5209,-402.837,0,0
344777.7,49.4552,-402.301,0,0
345038.025,49.4085,-401.756,0,0
345298.35,49.3899,-401.147,0,0
345558.675,49.3421,-400.579,0,0
345819.0,49.2947,-400.009,0,0
346079.325,49.3104,-399.439,0,0
346339.65,49.3155,-398.909,0,0
346599.975,49.2806,-398.286,0,0
346860,49.2872,-397.74,0,0
347121,49.3095,-397.149,0,0
347381,49.2884,-396.614,0,0
347641,49.2942,-396.04,0,0
347902,49.3144,-395.47,0,0
348162,49.34,-394.924,0,0
348422,49.352,-394.354,0,0
348683,49.3783,-393.844,0,0
348943,49.3778,-393.26,0,0
349203,49.4098,-392.727,0,0
349464,49.4189,-392.232,0,0
349724,49.4346,-391.664,0,0
349984,49.5091,-391.137,0,0
350245,49.4961,-390.651,0,0
350505,49.5357,-390.126,0,0
350765,49.5699,-389.635,0,0
351025,49.6181,-389.135,0,0
351286,49.6091,-388.637,0,0
351546,49.6381,-388.153,0,0
351806,49.6044,-387.666,0,0
352067,49.6448,-387.169,0,0
352327,49.6667,-386.666,0,0
352587,49.7016,-386.175,0,0
352848,49.7172,-385.698,0,0
353108,49.7447,-385.213,0,0
353368,49.7354,-384.738,0,0
353629,49.7552,-384.294,0,0
353889,49.7935,-383.805,0,0
354149,49.7728,-383.37,0,0
354410,49.7804,-382.882,0,0
354670,49.7228,-382.471,0,0
354930,49.7563,-381.994,0,0
355191,49.7316,-381.519,0,0
355451,49.7096,-381.074,0,0
355711,49.6686,-380.655,0,0
355972,49.6572,-380.2,0,0
356232,49.647,-379.755,0,0
356492,49.6068,-379.294,0,0
356753,49.5718,-378.809,0,0
357013,49.5173,-378.363,0,0
357273,49.5078,-377.953,0,0
357534,49.4271,-377.422,0,0
357794,49.3948,-376.963,0,0
358054,49.3492,-376.508,0,0
358315,49.3259,-375.979,0,0
358575,49.2821,-375.527,0,0
358835,49.2157,-375.05,0,0
359096,49.2175,-374.594,0,0
359356,49.1856,-374.082,0,0
359616,49.1364,-373.627,0,0
359877,49.1148,-373.146,0,0
360137,49.0542,-372.65,0,0
360397,49.0204,-372.222,0,0
360658,48.9982,-371.707,0,0
360918,48.9363,-371.222,0,0
361178,48.8944,-370.722,0,0
361438,48.873,-370.233,0,0
361699,48.8376,-369.773,0,0
361959,48.8088,-369.293,0,0
362219,48.7583,-368.807,0,0
362480,48.7613,-368.279,0,0
362740.1,48.7173,-367.803,0,0
363000.425,48.6485,-367.334,0,0
363260.75,48.6508,-366.812,0,0
363521.075,48.6218,-366.302,0,0
363781.4,48.6137,-365.814,0,0
364041.725,48.5837,-365.334,0,0
364302.05,48.5611,-364.849,0,0
364562.375,48.5822,-364.352,0,0
364822.7,48.5563,-363.859,0,0
365083.025,48.515,-363.373,0,0
365343.35,48.5432,-362.863,0,0
365603.675,48.548,-362.344,0,0
365864.0,48.5085,-361.9,0,0
366124.325,48.5303,-361.424,0,0
366384.65,48.5218,-360.909,0,0
366644.975,48.5061,-360.426,0,0
366905.3,48.5007,-359.957,0,0
367165.625,48.5339,-359.474,0,0
367425.95,48.531,-359.02,0,0
367686.275,48.5433,-358.518,0,0
367946.6,48.5442,-358.077,0,0
368206.925,48.5391,-357.633,0,0
368467.25,48.515,-357.152,0,0
368727.575,48.526,-356.675,0,0
368987.9,48.5179,-356.214,0,0
369248.225,48.4979,-355.747,0,0
369508.55,48.4846,-355.274,0,0
369768.875,48.4909,-354.779,0,0
370029.2,48.4856,-354.313,0,0
370289.525,48.4747,-353.833,0,0
370549.85,48.5075,-353.368,0,0
370810.175,48.5082,-352.883,0,0
371070.5,48.5219,-352.428,0,0
371330.825,48.5467,-351.915,0,0
371591.15,48.5723,-351.446,0,0
371851.475,48.6252,-350.99,0,0
372111.8,48.6132,-350.543,0,0
372372.125,48.6695,-350.09,0,0
372632.45,48.7099,-349.673,0,0
372892.775,48.717,-349.213,0,0
373153.1,48.771,-348.787,0,0
373413.425,48.7827,-348.389,0,0
373673.75,48.8041,-347.942,0,0
373934.075,48.806,-347.569,0,0
374194.4,48.7925,-347.146,0,0
374454.725,48.7991,-346.762,0,0
374715.05,48.7647,-346.376,0,0
374975.375,48.7133,-345.949,0,0
375235.7,48.6886,-345.542,0,0
375496.025,48.6299,-345.115,0,0
375756.35,48.5908,-344.71,0,0
376016.675,48.5079,-344.26,0,0
376277.0,48.4531,-343.812,0,0
376537.325,48.3938,-343.357,0,0
376797.65,48.3523,-342.936,0,0
377057.975,48.3086,-342.478,0,0
377318.3,48.2406,-341.991,0,0
377578.625,48.1789,-341.526,0,0
377838.95,48.1528,-341.044,0,0
378099.275,48.0698,-340.533,0,0
378359.6,48.0479,-340.08,0,0
378619.925,48.0171,-339.609,0,0
378880,47.9655,-339.145,0,0
379141,47.9314,-338.615,0,0
379401,47.9033,-338.156,0,0
379661,47.8615,-337.671,0,0
379922,47.814,-337.149,0,0
380182,47.7767,-336.657,0,0
380442,47.7815,-336.151,0,0
380703,47.7579,-335.655,0,0
380963,47.7138,-335.133,0,0
381223,47.7096,-334.609,0,0
381483,47.6948,-334.109,0,0
381744,47.7153,-333.585,0,0
382004,47.7071,-333.058,0,0
382264,47.7502,-332.523,0,0
382525,47.7676,-332.013,0,0
382785,47.8247,-331.508,0,0
383045,47.878,-331.031,0,0
383306,47.9549,-330.564,0,0
383566,47.9977,-330.123,0,0
383826,48.0079,-329.707,0,0
384087,48.0326,-329.257,0,0
384347,48.0195,-328.843,0,0
384607,48.0126,-328.378,0,0
384868,47.9721,-327.917,0,0
385128,47.9941,-327.423,0,0
385388,47.9419,-326.969,0,0
385649,47.9546,-326.479,0,0
385909,47.9428,-325.991,0,0
386169,47.9402,-325.521,0,0
386430,47.9321,-325.035,0,0
386690,47.9255,-324.539,0,0
386950,47.9078,-324.069,0,0
387211,47.9315,-323.569,0,0
387471,47.9335,-323.094,0,0
387731,47.9404,-322.592,0,0
387992,47.9143,-322.088,0,0
388252,47.915,-321.612,0,0
388512,47.9417,-321.107,0,0
388773,47.9323,-320.583,0,0
389033,47.9353,-320.102,0,0
389293,47.9433,-319.61,0,0
389554,47.9469,-319.108,0,0
389814,47.9616,-318.607,0,0
390074,47.9446,-318.076,0,0
390335,47.9836,-317.58,0,0
390595,47.9909,-317.049,0,0
390855,48.0048,-316.555,0,0
391116,48.0298,-316.062,0,0
391376,48.0422,-315.549,0,0
391636,48.0655,-315.033,0,0
391896,48.0849,-314.515,0,0
392157,48.1214,-314.008,0,0
392417,48.1467,-313.516,0,0
392677,48.166,-312.997,0,0
392938,48.1787,-312.481,0,0
393198,48.2138,-311.997,0,0
393458,48.2437,-311.459,0,0
393719,48.2657,-310.933,0,0
393979,48.2898,-310.423,0,0
394239,48.3264,-309.887,0,0
394500,48.353,-309.357,0,0
394760.05,48.3753,-308.839,0,0
395020.375,48.4306,-308.329,0,0
395280.7,48.4683,-307.786,0,0
395541.025,48.5137,-307.295,0,0
395801.35,48.5582,-306.743,0,0
396061.675,48.6139,-306.243,0,0
396322.0,48.6571,-305.696,0,0
396582.325,48.691,-305.183,0,0
396842.65,48.7402,-304.648,0,0
397102.975,48.8103,-304.133,0,0
397363.3,48.847,-303.59,0,0
397623.625,48.893,-303.039,0,0
397883.95,48.9441,-302.522,0,0
398144.275,49.0138,-301.986,0,0
398404.6,49.0736,-301.44,0,0
398664.925,49.1499,-300.896,0,0
398925.25,49.1812,-300.374,0,0
399185.575,49.2544,-299.828,0,0
399445.9,49.3263,-299.29,0,0
399706.225,49.3816,-298.748,0,0
399966.55,49.4553,-298.224,0,0
400006.6,49.462,-298.15,0,0