File: Accelerated corrosion test data/2025-10-21_06-00-04/sample_7.csv
Frequency (Hz),Impedance (ohms),Phase (Radians),Temperature (C),Humidity (%)
10000.0,272.468,-12115.1,0,0
10260.325,272.777,-11824.3,0,0
10520.65,256.707,-11523.4,0,0
10780.975,251.138,-11241.2,0,0
11041.3,248.248,-10972.7,0,0
11301.625,245.41,-10716.7,0,0
11561.95,247.386,-10466.9,0,0
11822.275,258.078,-10237,0,0
12082.6,265.171,-10018.8,0,0
12342.925,325.225,-9834.96,0,0
12603.25,260.881,-9672.33,0,0
12863.575,269.144,-9462.31,0,0
13123.9,237.452,-9295.61,0,0
13384.225,231.612,-9116.6,0,0
13644.55,220.004,-8931.83,0,0
13904.875,207.183,-8771.76,0,0
14165.2,202.776,-8599.23,0,0
14425.525,206.758,-8462.24,0,0
14685.8,202.041,-8304.95,0,0
14946.175,197.382,-8158.16,0,0
15206.5,196.417,-8027.91,0,0
15466.825,182.492,-7887.2,0,0
15727.15,184.706,-7757.59,0,0
15987.5,178.879,-7629.31,0,0
16247.8,177.407,-7508.38,0,0
16508.125,170.11,-7387.47,0,0
16768.45,168.964,-7268.38,0,0
17028.775,168.45,-7157.22,0,0
17289.1,166.448,-7050.63,0,0
17549.425,165.532,-6940.49,0,0
17809.75,165.078,-6830.89,0,0
18070.075,167.36,-6735.19,0,0
18330.4,173.272,-6627.95,0,0
18590.725,193.396,-6535.59,0,0
18851.05,193.99,-6475.86,0,0
19111.375,185.441,-6393.71,0,0
19371.7,210.043,-6304.2,0,0
19632.025,173.97,-6251.21,0,0
19892.35,156.643,-6151.84,0,0
20152.675,167.604,-6065.73,0,0
20413.0,168.639,-5986.91,0,0
20673.3,171.33,-5911.53,0,0
20933.65,182.277,-5852.99,0,0
21193.975,162.529,-5797.26,0,0
21454.3,152.379,-5721.04,0,0
21714.625,156.139,-5651.52,0,0
21974.9,145.174,-5590.47,0,0
22235.275,138.635,-5520.6,0,0
22495.6,136.794,-5454.17,0,0
22755.925,132.345,-5392.13,0,0
23016.25,129.131,-5328.72,0,0
23276.6,126.501,-5266.18,0,0
23536.9,126.732,-5204.67,0,0
23797.225,126.997,-5148.39,0,0
24057.55,123.291,-5091.98,0,0
24317.875,121.218,-5035,0,0
24578.2,121.976,-4978.94,0,0
24838.525,121.122,-4925.68,0,0
25098.85,120.181,-4874.77,0,0
25359.175,118.016,-4821.96,0,0
25619.5,116.977,-4770.33,0,0
25879.8,117.931,-4718.95,0,0
26140.1,116.9,-4668.22,0,0
26400.5,120.75,-4619.18,0,0
26660.8,120.071,-4574.14,0,0
26921.1,120.016,-4524.4,0,0
27181.4,124.107,-4474.87,0,0
27441.8,130.163,-4429.25,0,0
27702.1,137.395,-4380.25,0,0
27962.4,150.552,-4334.45,0,0
28222.7,177.376,-4297.48,0,0
28483.1,193.8,-4285.43,0,0
28743.4,196.585,-4274.73,0,0
29003.7,177.211,-4262.26,0,0
29264,153.654,-4229.42,0,0
29524.4,140.602,-4188.54,0,0
29784.7,131.655,-4147.82,0,0
30045,126.86,-4105.16,0,0
30305.3,126.72,-4066.33,0,0
30565.7,129.373,-4029.51,0,0
30826,130.349,-3997.51,0,0
31086.3,131.132,-3966.71,0,0
31346.6,128.021,-3937.34,0,0
31607,130.057,-3908.79,0,0
31867.3,120.773,-3881.97,0,0
32127.6,116.904,-3848.62,0,0
32387.9,114.039,-3818.11,0,0
32648.3,111.051,-3789.02,0,0
32908.6,106.941,-3758.5,0,0
33168.9,103.798,-3728.58,0,0
33429.2,100.808,-3698.35,0,0
33689.6,97.9659,-3668.45,0,0
33949.9,95.9293,-3638.82,0,0
34210.2,94.106,-3609.97,0,0
34470.5,92.3026,-3581.28,0,0
34730.9,91.2722,-3552.74,0,0
34991.2,90.121,-3524.9,0,0
35251.5,89.2722,-3498.13,0,0
35511.8,88.3666,-3471.29,0,0
35772.2,88.0102,-3444.48,0,0
36032.5,87.4697,-3418.49,0,0
36292.8,87.1622,-3393.53,0,0
36553.1,86.0981,-3368.39,0,0
36813.5,85.2205,-3343.41,0,0
37073.8,85.3964,-3318.48,0,0
37334.1,85.1501,-3294.47,0,0
37594.4,84.9868,-3270.83,0,0
37854.8,84.6147,-3247.51,0,0
38115.1,84.1701,-3223.32,0,0
38375.4,84.8722,-3200.01,0,0
38635.7,85.8614,-3176.9,0,0
38896.1,87.2258,-3153.84,0,0
39156.4,90.1021,-3132.35,0,0
39416.7,92.745,-3111.07,0,0
39677,97.0424,-3092.34,0,0
39937.4,99.8074,-3077.05,0,0
40197.7,99.221,-3062.01,0,0
40458,97.1385,-3046.66,0,0
40718.3,92.678,-3029.25,0,0
40978.7,89.2343,-3010.91,0,0
41239,86.6687,-2991.17,0,0
41499.3,84.2961,-2971.92,0,0
41759.6,83.0921,-2952.2,0,0
42020,81.7736,-2933.58,0,0
42280.275,79.8536,-2914.35,0,0
42540.6,79.1394,-2894.82,0,0
42800.925,79.3665,-2876.04,0,0
43061.25,79.2075,-2857.96,0,0
43321.575,80.2105,-2840.62,0,0
43581.9,78.3749,-2823.83,0,0
43842.225,78.2118,-2805.61,0,0
44102.55,79.0685,-2787.68,0,0
44362.875,80.6779,-2770.87,0,0
44623.2,81.8366,-2756.18,0,0
44883.525,82.0086,-2742.91,0,0
45143.85,80.1249,-2728.1,0,0
45404.175,78.07,-2712.24,0,0
45664.5,78.1326,-2694.9,0,0
45924.825,79.7182,-2681.14,0,0
46185.15,78.66,-2668.16,0,0
46445.475,76.82,-2654.39,0,0
46705.8,74.195,-2640.3,0,0
46966.125,71.9026,-2624.49,0,0
47226.45,70.5576,-2608.66,0,0
47486.775,70.2058,-2593.28,0,0
47747.1,69.4634,-2578.46,0,0
48007.425,69.4347,-2563.69,0,0
48267.75,68.9024,-2549.6,0,0
48528.075,68.3896,-2535.86,0,0
48788.4,67.9246,-2521.78,0,0
49048.725,67.1928,-2507.88,0,0
49309.05,66.7143,-2493.97,0,0
49569.375,66.4327,-2480.35,0,0
49829.7,65.8439,-2467.01,0,0
50090.025,65.5021,-2453.76,0,0
50350.35,65.3517,-2440.46,0,0
50610.675,64.8699,-2427.41,0,0
50871.0,64.8073,-2414.62,0,0
51131.325,64.4034,-2401.98,0,0
51391.65,64.1088,-2389.18,0,0
51651.975,63.7342,-2376.84,0,0
51912.3,63.5538,-2364.53,0,0
52172.625,63.2957,-2352.02,0,0
52432.95,63.2548,-2339.99,0,0
52693.275,63.0692,-2328.13,0,0
52953.6,63.0509,-2316.3,0,0
53213.925,62.9352,-2304.74,0,0
53474.25,62.8125,-2293.59,0,0
53734.575,62.3794,-2282.2,0,0
53994.9,62.0326,-2271.02,0,0
54255.225,61.6185,-2259.71,0,0
54515.55,61.2862,-2248.57,0,0
54775.875,60.972,-2237.42,0,0
55036.2,60.7109,-2226.47,0,0
55296.525,60.3414,-2215.59,0,0
55556.85,60.1321,-2204.72,0,0
55817.175,59.8559,-2193.97,0,0
56077.5,59.6499,-2183.27,0,0
56337.825,59.6027,-2172.62,0,0
56598.15,59.5001,-2162.43,0,0
56858.475,59.3268,-2152.1,0,0
57118.8,59.2856,-2141.86,0,0
57379.125,59.092,-2131.93,0,0
57639.45,58.8956,-2121.97,0,0
57899.775,58.6432,-2111.82,0,0
58160.1,58.5273,-2101.84,0,0
58420.4,58.6236,-2091.88,0,0
58680.7,58.941,-2082.41,0,0
58941.1,58.8826,-2073.19,0,0
59201.4,58.6963,-2063.87,0,0
59461.7,58.6047,-2054.31,0,0
59722,59.0605,-2045.22,0,0
59982.4,58.6711,-2036.41,0,0
60242.7,58.644,-2027.34,0,0
60503,58.643,-2018.82,0,0
60763.3,58.2177,-2010.3,0,0
61023.7,57.7053,-2001.49,0,0
61284,57.357,-1992.72,0,0
61544.3,56.994,-1984,0,0
61804.6,56.5008,-1975.39,0,0
62065,56.0805,-1966.65,0,0
62325.3,55.7487,-1958.02,0,0
62585.6,55.5348,-1949.28,0,0
62845.9,55.3391,-1940.76,0,0
63106.3,55.1905,-1932.32,0,0
63366.6,54.8491,-1923.93,0,0
63626.9,54.9332,-1915.68,0,0
63887.2,54.8355,-1907.65,0,0
64147.6,54.407,-1899.46,0,0
64407.9,54.2802,-1891.29,0,0
64668.2,54.1776,-1883.31,0,0
64928.5,54.0729,-1875.09,0,0
65188.9,54.1342,-1867.12,0,0
65449.2,54.2923,-1859.48,0,0
65709.5,54.5517,-1851.94,0,0
65969.8,54.3127,-1844.62,0,0
66230.2,54.0937,-1837.28,0,0
66490.5,53.856,-1830.05,0,0
66750.8,53.2164,-1822.63,0,0
67011.1,53.0327,-1815.31,0,0
67271.5,52.4859,-1807.83,0,0
67531.8,52.2613,-1800.34,0,0
67792.1,52.0586,-1792.86,0,0
68052.4,51.7299,-1785.8,0,0
68312.8,51.5024,-1778.35,0,0
68573.1,51.27,-1770.95,0,0
68833.4,51.1825,-1763.85,0,0
69093.7,51.066,-1756.71,0,0
69354.1,51.021,-1749.6,0,0
69614.4,50.8977,-1742.63,0,0
69874.7,50.6814,-1735.71,0,0
70135,50.6933,-1728.82,0,0
70395.4,50.6657,-1721.99,0,0
70655.7,50.5504,-1715.13,0,0
70916,50.5367,-1708.47,0,0
71176.3,50.4673,-1701.9,0,0
71436.7,50.3771,-1695.44,0,0
71697,50.1995,-1688.99,0,0
71957.3,49.9204,-1682.52,0,0
72217.6,49.7411,-1676.09,0,0
72478,49.5127,-1669.68,0,0
72738.3,49.3455,-1663.19,0,0
72998.6,49.0796,-1656.85,0,0
73258.9,48.9763,-1650.51,0,0
73519.3,48.824,-1644.17,0,0
73779.6,48.5776,-1637.77,0,0
74039.9,48.5399,-1631.65,0,0
74300.225,48.4304,-1625.41,0,0
74560.55,48.4046,-1619.24,0,0
74820.875,48.2269,-1613.12,0,0
75081.2,48.0758,-1607.07,0,0
75341.525,48.0601,-1601,0,0
75601.85,47.916,-1594.98,0,0
75862.175,47.8249,-1589.02,0,0
76122.5,47.7002,-1583.12,0,0
76382.825,47.5921,-1577.24,0,0
76643.15,47.481,-1571.28,0,0
76903.475,47.4339,-1565.5,0,0
77163.8,47.3804,-1559.71,0,0
77424.125,47.3245,-1553.97,0,0
77684.45,47.3426,-1548.29,0,0
77944.775,47.2853,-1542.66,0,0
78205.1,47.1516,-1537.02,0,0
78465.425,47.0932,-1531.45,0,0
78725.75,47.0564,-1525.83,0,0
78986.075,47.0093,-1520.27,0,0
79246.4,46.9537,-1514.72,0,0
79506.725,46.9778,-1509.38,0,0
79767.05,46.9366,-1503.9,0,0
80027.375,46.9403,-1498.57,0,0
80287.7,46.8383,-1493.27,0,0
80548.025,46.8383,-1487.99,0,0
80808.35,46.7827,-1482.74,0,0
81068.675,46.6642,-1477.51,0,0
81329.0,46.538,-1472.29,0,0
81589.325,46.4933,-1467.03,0,0
81849.65,46.3425,-1461.88,0,0
82109.975,46.2393,-1456.63,0,0
82370.3,46.2204,-1451.46,0,0
82630.625,46.2075,-1446.26,0,0
82890.95,46.2808,-1441.26,0,0
83151.275,46.2149,-1436.22,0,0
83411.6,46.2098,-1431.16,0,0
83671.925,46.1857,-1426.12,0,0
83932.25,46.1886,-1421.15,0,0
84192.575,46.2311,-1416.19,0,0
84452.9,46.2736,-1411.25,0,0
84713.225,46.3551,-1406.39,0,0
84973.55,46.4074,-1401.64,0,0
85233.875,46.3767,-1396.88,0,0
85494.2,46.3744,-1392.16,0,0
85754.525,46.3637,-1387.47,0,0
86014.85,46.2889,-1382.69,0,0
86275.175,46.4038,-1377.92,0,0
86535.5,46.4915,-1373.39,0,0
86795.825,46.3628,-1368.8,0,0
87056.15,46.3462,-1364.08,0,0
87316.475,46.3687,-1359.47,0,0
87576.8,46.4738,-1354.91,0,0
87837.125,46.4463,-1350.45,0,0
88097.45,46.5104,-1346.11,0,0
88357.775,46.4534,-1341.62,0,0
88618.1,46.3185,-1337.2,0,0
88878.425,46.2103,-1332.75,0,0
89138.75,46.0155,-1328.24,0,0
89399.075,45.9597,-1323.74,0,0
89659.4,45.9086,-1319.18,0,0
89919.725,45.9287,-1314.76,0,0
90180,45.847,-1310.31,0,0
90440.4,45.8975,-1305.83,0,0
90700.7,45.9061,-1301.41,0,0
90961,45.9729,-1297.08,0,0
91221.3,45.9637,-1292.72,0,0
91481.7,46.0834,-1288.34,0,0
91742,46.092,-1284.03,0,0
92002.3,46.1709,-1279.64,0,0
92262.6,46.1943,-1275.3,0,0
92523,46.2568,-1271.07,0,0
92783.3,46.3652,-1266.68,0,0
93043.6,46.5191,-1262.26,0,0
93303.9,46.7228,-1257.71,0,0
93564.3,47.2792,-1253.17,0,0
93824.6,48.0426,-1248.85,0,0
94084.9,49.0258,-1244.89,0,0
94345.2,49.9851,-1241.39,0,0
94605.6,50.6903,-1238.45,0,0
94865.9,50.6656,-1235.49,0,0
95126.2,50.28,-1232.14,0,0
95386.5,49.9493,-1228.64,0,0
95646.9,49.5835,-1225.13,0,0
95907.2,48.9418,-1221.36,0,0
96167.5,48.5766,-1217.21,0,0
96427.8,48.3846,-1213.18,0,0
96688.2,48.2248,-1209.12,0,0
96948.5,48.2528,-1204.96,0,0
97208.8,48.3643,-1200.96,0,0
97469.1,48.4949,-1197.12,0,0
97729.5,48.4672,-1193.25,0,0
97989.8,48.6871,-1189.26,0,0
98250.1,48.9404,-1185.57,0,0
98510.4,49.0404,-1181.87,0,0
98770.8,49.1724,-1178.25,0,0
99031.1,49.1855,-1174.59,0,0
99291.4,49.0496,-1171.05,0,0
99551.7,48.8682,-1167.25,0,0
99812.1,48.6896,-1163.34,0,0
100072,48.6093,-1159.13,0,0
100333,49.0389,-1154.96,0,0
100593,49.5401,-1151.21,0,0
100853,49.8458,-1147.59,0,0
101114,50.1184,-1143.82,0,0
101374,50.5169,-1140.2,0,0
101634,50.7781,-1136.61,0,0
101895,50.9996,-1132.86,0,0
102155,51.5664,-1129.24,0,0
102415,51.9628,-1125.67,0,0
102676,52.5612,-1122.17,0,0
102936,52.9836,-1118.9,0,0
103196,53.4467,-1115.46,0,0
103457,53.9409,-1112.22,0,0
103717,54.5841,-1108.93,0,0
103977,55.2368,-1106.18,0,0
104238,55.1171,-1103.44,0,0
104498,55.0513,-1100.17,0,0
104758,55.3805,-1096.95,0,0
105019,55.7336,-1093.98,0,0
105279,55.6652,-1091.23,0,0
105539,55.3966,-1088.14,0,0
105800,55.139,-1084.83,0,0
106060,55.1951,-1081.48,0,0
106320.175,55.0649,-1078.22,0,0
106580.5,54.9882,-1074.76,0,0
106840.825,55.1764,-1071.28,0,0
107101.15,55.5119,-1067.96,0,0
107361.475,55.6391,-1064.78,0,0
107621.8,55.7296,-1061.44,0,0
107882.125,55.9033,-1058.19,0,0
108142.45,55.9349,-1054.85,0,0
108402.775,56.1686,-1051.41,0,0
108663.1,56.573,-1048.1,0,0
108923.425,56.8812,-1044.98,0,0
109183.75,56.9258,-1041.9,0,0
109444.075,56.9847,-1038.53,0,0
109704.4,57.1241,-1035.15,0,0
109964.725,57.2927,-1031.73,0,0
110225.05,57.4772,-1028.24,0,0
110485.375,57.7725,-1024.52,0,0
110745.7,58.4573,-1020.85,0,0
111006.025,59.23,-1017.44,0,0
111266.35,60.064,-1014.2,0,0
111526.675,60.6037,-1011.07,0,0
111787.0,61.0399,-1007.64,0,0
112047.325,61.8391,-1004.15,0,0
112307.65,62.9181,-1000.66,0,0
112567.975,64.044,-997.541,0,0
112828.3,65.1409,-994.422,0,0
113088.625,66.3151,-991.295,0,0
113348.95,67.8009,-988.439,0,0
113609.275,68.904,-985.988,0,0
113869.6,69.688,-983.344,0,0
114129.925,70.6708,-980.336,0,0
114390.25,71.9828,-977.478,0,0
114650.575,73.5196,-974.645,0,0
114910.9,74.9616,-972.375,0,0
115171.225,76.1931,-970.049,0,0
115431.55,77.5947,-967.533,0,0
115691.875,79.1944,-965.198,0,0
115952.2,81.0522,-963.041,0,0
116212.525,82.9146,-961.286,0,0
116472.85,84.7354,-959.833,0,0
116733.175,86.5075,-958.874,0,0
116993.5,87.68,-958.226,0,0
117253.825,88.4775,-957.282,0,0
117514.15,89.3958,-956.173,0,0
117774.475,90.5147,-955.456,0,0
118034.8,91.1439,-954.907,0,0
118295.125,91.5249,-954.075,0,0
118555.45,92.372,-953.219,0,0
118815.775,93.2576,-952.95,0,0
119076.1,93.7314,-953.275,0,0
119336.425,93.587,-953.698,0,0
119596.75,92.8999,-954.083,0,0
119857.075,91.8129,-954.17,0,0
120117.4,90.4749,-954.283,0,0
120377.725,88.7742,-954.248,0,0
120638.05,86.3988,-954.127,0,0
120898.375,83.6233,-952.984,0,0
121158.7,81.1046,-951.438,0,0
121419.025,78.3783,-949.454,0,0
121679.35,76.1085,-946.588,0,0
121939.675,74.6399,-943.898,0,0
122200.0,73.2451,-941.478,0,0
122460,71.6736,-939.144,0,0
122721,69.9946,-936.455,0,0
122981,68.7272,-933.67,0,0
123241,67.4788,-931.054,0,0
123502,66.0405,-928.358,0,0
123762,64.6661,-925.356,0,0
124022,63.7581,-922.069,0,0
124283,63.156,-919.29,0,0
124543,62.2579,-916.581,0,0
124803,61.4261,-913.685,0,0
125064,60.8021,-910.99,0,0
125324,60.0064,-908.482,0,0
125584,58.9296,-905.825,0,0
125845,57.9272,-902.882,0,0
126105,57.1423,-899.937,0,0
126365,56.2275,-897.045,0,0
126626,55.3801,-894.035,0,0
126886,54.7105,-890.828,0,0
127146,54.0315,-887.792,0,0
127406,53.4245,-884.621,0,0
127667,52.9309,-881.28,0,0
127927,52.7189,-878.087,0,0
128187,52.6546,-875.101,0,0
128448,52.455,-872.314,0,0
128708,52.0833,-869.493,0,0
128968,51.7001,-866.621,0,0
129229,51.449,-863.689,0,0
129489,51.2139,-860.785,0,0
129749,50.9264,-858.004,0,0
130010,50.4503,-855.112,0,0
130270,50.207,-852.038,0,0
130530,50.1555,-849.076,0,0
130791,49.9968,-846.356,0,0
131051,49.6108,-843.558,0,0
131311,49.2528,-840.615,0,0
131572,48.8933,-837.568,0,0
131832,48.7008,-834.429,0,0
132092,48.5599,-831.332,0,0
132353,48.4827,-828.24,0,0
132613,48.3735,-825.072,0,0
132873,48.4362,-821.889,0,0
133134,48.5302,-818.69,0,0
133394,48.7954,-815.537,0,0
133654,49.0341,-812.42,0,0
133915,49.4406,-809.206,0,0
134175,49.9003,-806.107,0,0
134435,50.6109,-802.982,0,0
134696,51.5145,-800.221,0,0
134956,52.2102,-797.743,0,0
135216,52.7379,-795.086,0,0
135477,53.4098,-792.436,0,0
135737,54.2553,-789.875,0,0
135997,55.2771,-787.445,0,0
136258,56.3832,-785.571,0,0
136518,57.1202,-784.119,0,0
136778,57.4595,-782.75,0,0
137039,57.4064,-781.472,0,0
137299,56.7614,-779.995,0,0
137559,55.8948,-777.972,0,0
137819,55.2092,-775.495,0,0
138080,54.7643,-772.989,0,0
138340.125,54.3303,-770.455,0,0
138600.45,53.9231,-767.805,0,0
138860.775,53.6015,-765.093,0,0
139121.1,53.2222,-762.362,0,0
139381.425,52.9842,-759.418,0,0
139641.75,52.9797,-756.466,0,0
139902.075,53.036,-753.576,0,0
140162.4,53.1951,-750.786,0,0
140422.725,53.3923,-748.108,0,0
140683.05,53.4831,-745.553,0,0
140943.375,53.395,-742.927,0,0
141203.7,53.3203,-740.159,0,0
141464.025,53.2936,-737.353,0,0
141724.35,53.2778,-734.409,0,0
141984.675,53.4191,-731.366,0,0
142245.0,53.7292,-728.398,0,0
142505.325,54.0841,-725.51,0,0
142765.65,54.4464,-722.627,0,0
143025.975,54.8437,-719.762,0,0
143286.3,55.3771,-716.813,0,0
143546.625,56.0262,-714.056,0,0
143806.95,56.6736,-711.482,0,0
144067.275,57.3306,-708.977,0,0
144327.6,57.9082,-706.592,0,0
144587.925,58.3133,-704.28,0,0
144848.25,58.6753,-701.923,0,0
145108.575,58.947,-699.574,0,0
145368.9,59.1338,-697.223,0,0
145629.225,59.2319,-694.708,0,0
145889.55,59.3806,-692.053,0,0
146149.875,59.6115,-689.4,0,0
146410.2,59.9239,-686.687,0,0
146670.525,60.3575,-684.033,0,0
146930.85,60.8177,-681.547,0,0
147191.175,61.1392,-679.158,0,0
147451.5,61.416,-676.741,0,0
147711.825,61.4861,-674.294,0,0
147972.15,61.6275,-671.612,0,0
148232.475,61.9312,-669.059,0,0
148492.8,62.0687,-666.645,0,0
148753.125,62.0488,-664.12,0,0
149013.45,61.9709,-661.455,0,0
149273.775,61.882,-658.683,0,0
149534.1,61.8166,-655.833,0,0
149794.425,61.7557,-652.879,0,0
150054.75,61.7251,-649.892,0,0
150315.075,61.6284,-646.789,0,0
150575.4,61.6106,-643.534,0,0
150835.725,61.6783,-640.137,0,0
151096.05,61.846,-636.711,0,0
151356.375,62.0747,-633.22,0,0
151616.7,62.4042,-629.604,0,0
151877.025,62.8945,-625.966,0,0
152137.35,63.5293,-622.355,0,0
152397.675,64.1685,-618.775,0,0
152658.0,64.8693,-615.123,0,0
152918.325,65.6905,-611.458,0,0
153178.65,66.6016,-607.814,0,0
153438.975,67.5982,-604.182,0,0
153699.3,68.6345,-600.585,0,0
153959.625,69.6646,-596.948,0,0
154219.95,70.7729,-593.22,0,0
154480,72.0124,-589.475,0,0
154741,73.347,-585.722,0,0
155001,74.7606,-581.952,0,0
155261,76.31,-578.142,0,0
155522,78.038,-574.379,0,0
155782,79.886,-570.654,0,0
156042,81.8416,-567.005,0,0
156303,83.911,-563.446,0,0
156563,86.0636,-559.923,0,0
156823,88.2807,-556.512,0,0
157084,90.5803,-553.082,0,0
157344,93.058,-549.705,0,0
157604,95.8051,-546.49,0,0
157864,98.6213,-543.651,0,0
158125,101.32,-541.096,0,0
158385,103.94,-538.641,0,0
158645,106.601,-536.369,0,0
158906,109.137,-534.453,0,0
159166,111.33,-532.823,0,0
159426,113.045,-531.275,0,0
159687,114.306,-529.492,0,0
159947,115.34,-527.521,0,0
160207,116.045,-525.223,0,0
160468,116.632,-522.533,0,0
160728,117.19,-519.419,0,0
160988,117.923,-515.986,0,0
161249,118.494,-512.305,0,0
161509,119.247,-507.93,0,0
161769,120.452,-503.125,0,0
162030,122.233,-498.066,0,0
162290,124.503,-493.065,0,0
162550,127.111,-488.129,0,0
162811,129.911,-483.271,0,0
163071,132.875,-478.311,0,0
163331,136.135,-473.165,0,0
163592,139.954,-467.93,0,0
163852,144.405,-462.926,0,0
164112,149.039,-458.435,0,0
164373,153.618,-454.303,0,0
164633,158.153,-450.107,0,0
164893,162.683,-445.844,0,0
165154,167.367,-441.585,0,0
165414,171.783,-437.118,0,0
165674,176.57,-431.947,0,0
165935,182.187,-426.349,0,0
166195,188.616,-420.581,0,0
166455,196.035,-414.878,0,0
166716,204.405,-409.704,0,0
166976,213.32,-405.213,0,0
167236,222.487,-400.909,0,0
167497,232.655,-396.638,0,0
167757,243.994,-393.267,0,0
168017,255.866,-391.057,0,0
168277,267.83,-389.774,0,0
168538,280.291,-389.147,0,0
168798,293.423,-389.577,0,0
169058,306.73,-391.389,0,0
169319,320.303,-394.432,0,0
169579,333.504,-399.38,0,0
169839,345.511,-405.315,0,0
170100,356.814,-411.373,0,0
170360.075,368.709,-417.694,0,0
170620.4,380.992,-425.536,0,0
170880.725,392.779,-435.603,0,0
171141.05,402.722,-447.262,0,0
171401.375,411.25,-458.899,0,0
171661.7,419.401,-470.99,0,0
171922.025,426.788,-484.211,0,0
172182.35,433.23,-498.418,0,0
172442.675,438.441,-513.991,0,0
172703.0,441.297,-531.017,0,0
172963.325,440.981,-547.658,0,0
173223.65,439.514,-563.254,0,0
173483.975,436.728,-579.189,0,0
173744.3,431.441,-595.568,0,0
174004.625,422.472,-610.787,0,0
174264.95,411.013,-622.803,0,0
174525.275,398.868,-631.488,0,0
174785.6,386.761,-637.749,0,0
175045.925,374.64,-641.475,0,0
175306.25,363.908,-642.231,0,0
175566.575,355.332,-642.153,0,0
175826.9,347.207,-641.555,0,0
176087.225,340.115,-639.099,0,0
176347.55,335.531,-635.768,0,0
176607.875,332.977,-632.923,0,0
176868.2,331.76,-631.08,0,0
177128.525,330.892,-630.31,0,0
177388.85,330.293,-629.464,0,0
177649.175,330.736,-628.841,0,0
177909.5,332.216,-628.737,0,0
178169.825,335.189,-629.612,0,0
178430.15,339.64,-632.899,0,0
178690.475,343.627,-640.065,0,0
178950.8,344.503,-649.955,0,0
179211.125,341.608,-660.337,0,0
179471.45,335.57,-669.103,0,0
179731.775,328.468,-675.312,0,0
179992.1,321.838,-680.204,0,0
180252.425,315.236,-684.559,0,0
180512.75,308.702,-688.371,0,0
180773.075,302.157,-692.268,0,0
181033.4,294.662,-696.209,0,0
181293.725,286.321,-699.233,0,0
181554.05,277.475,-701.107,0,0
181814.375,269.211,-701.638,0,0
182074.7,261.812,-702.335,0,0
182335.025,253.71,-703.614,0,0
182595.35,244.108,-704.239,0,0
182855.675,233.786,-702.92,0,0
183116.0,223.96,-699.568,0,0
183376.325,215.517,-694.861,0,0
183636.65,208.574,-689.782,0,0
183896.975,202.628,-685.041,0,0
184157.3,196.822,-680.503,0,0
184417.625,191.355,-675.545,0,0
184677.95,186.623,-670.31,0,0
184938.275,182.739,-665.329,0,0
185198.6,179.136,-661.002,0,0
185458.925,175.109,-656.891,0,0
185719.25,170.983,-652.585,0,0
185979.575,166.559,-647.792,0,0
186239.9,162.657,-642.162,0,0
186500,159.709,-636.408,0,0
186761,157.148,-630.992,0,0
187021,154.745,-625.489,0,0
187281,152.744,-619.82,0,0
187542,151.412,-614.15,0,0
187802,150.762,-608.917,0,0
188062,150.365,-604.283,0,0
188322,149.995,-600.217,0,0
188583,149.482,-596.608,0,0
188843,148.591,-593.48,0,0
189103,146.956,-590.296,0,0
189364,145.024,-586.659,0,0
189624,143.115,-582.561,0,0
189884,141.439,-578.319,0,0
190145,139.693,-573.955,0,0
190405,138.004,-569.088,0,0
190665,136.781,-564.025,0,0
190926,135.724,-559.023,0,0
191186,134.786,-553.681,0,0
191446,134.515,-548.166,0,0
191707,134.806,-543.063,0,0
191967,135.012,-538.506,0,0
192227,134.942,-534.02,0,0
192488,134.654,-529.267,0,0
192748,134.545,-524.149,0,0
193008,134.8,-518.812,0,0
193269,135.468,-513.463,0,0
193529,136.531,-508.269,0,0
193789,137.768,-503.375,0,0
194050,139.011,-498.612,0,0
194310,140.316,-493.848,0,0
194570,141.75,-489.029,0,0
194831,143.445,-484.243,0,0
195091,145.423,-479.589,0,0
195351,147.613,-475.235,0,0
195612,149.789,-471.185,0,0
195872,151.839,-467.176,0,0
196132,153.8,-463.166,0,0
196393,156.088,-459.147,0,0
196653,158.39,-455.39,0,0
196913,160.756,-451.647,0,0
197174,163.34,-447.99,0,0
197434,165.891,-444.615,0,0
197694,168.376,-441.563,0,0
197955,170.684,-438.801,0,0
198215,172.532,-436.041,0,0
198475,174.104,-432.957,0,0
198735,175.624,-429.578,0,0
198996,177.332,-426.032,0,0
199256,179.081,-422.411,0,0
199516,180.822,-418.77,0,0
199777,182.516,-414.841,0,0
200037,184.349,-410.521,0,0
200297,186.566,-406.066,0,0
200558,189.008,-401.596,0,0
200818,191.736,-397.064,0,0
201078,194.624,-392.632,0,0
201339,197.626,-388.185,0,0
201599,200.718,-383.65,0,0
201859,204.113,-378.853,0,0
202120,207.86,-374.057,0,0
202380.025,211.872,-369.261,0,0
202640.35,216.275,-364.51,0,0
202900.675,221.1,-359.834,0,0
203161.0,226.209,-355.456,0,0
203421.325,231.513,-351.281,0,0
203681.65,236.966,-347.306,0,0
203941.975,242.506,-343.331,0,0
204202.3,248.299,-339.454,0,0
204462.625,254.333,-335.632,0,0
204722.95,260.67,-331.873,0,0
204983.275,267.381,-328.191,0,0
205243.6,274.526,-324.575,0,0
205503.925,282.468,-321.224,0,0
205764.25,291.104,-318.747,0,0
206024.575,299.839,-317.378,0,0
206284.9,308.279,-316.788,0,0
206545.225,316.389,-316.83,0,0
206805.55,323.979,-317.432,0,0
207065.875,330.703,-318.191,0,0
207326.2,336.903,-318.674,0,0
207586.525,343.021,-318.778,0,0
207846.85,349.013,-318.701,0,0
208107.175,354.767,-318.109,0,0
208367.5,361.027,-316.805,0,0
208627.825,367.935,-315.142,0,0
208888.15,375.681,-313.198,0,0
209148.475,384.784,-311.396,0,0
209408.8,394.795,-310.339,0,0
209669.125,405.541,-310.069,0,0
209929.45,417.034,-310.439,0,0
210189.775,429.62,-312.063,0,0
210450.1,442.798,-315.319,0,0
210710.425,456.071,-320.887,0,0
210970.75,468.311,-328.716,0,0
211231.075,478.698,-337.676,0,0
211491.4,487.797,-346.919,0,0
211751.725,496.001,-356.52,0,0
212012.05,503.266,-366.651,0,0
212272.375,509.18,-377.172,0,0
212532.7,513.553,-387.329,0,0
212793.025,517.321,-396.42,0,0
213053.35,521.363,-405.214,0,0
213313.675,525.014,-414.52,0,0
213574.0,527.828,-423.483,0,0
213834.325,530.704,-431.99,0,0
214094.65,533.683,-440.6,0,0
214354.975,536.705,-449.59,0,0
214615.3,539.35,-459.396,0,0
214875.625,540.752,-469.746,0,0
215135.95,541.13,-479.602,0,0
215396.275,540.894,-488.938,0,0
215656.6,540.308,-497.77,0,0
215916.925,539.625,-506.097,0,0
216177.25,539.457,-514.26,0,0
216437.575,539.531,-522.881,0,0
216697.9,539.345,-532.448,0,0
216958.225,538.072,-542.867,0,0
217218.55,535.294,-553.232,0,0
217478.875,531.426,-563.005,0,0
217739.2,526.992,-572.116,0,0
217999.525,522.192,-580.79,0,0
218259.85,516.881,-589.487,0,0
218520,510.404,-598.009,0,0
218780,502.796,-605.706,0,0
219041,494.36,-612.295,0,0
219301,485.333,-617.587,0,0
219561,476.037,-621.45,0,0
219822,466.836,-624.016,0,0
220082,457.835,-625.191,0,0
220342,449.575,-625.048,0,0
220603,442.31,-623.915,0,0
220863,435.988,-622.378,0,0
221123,430.533,-620.667,0,0
221384,425.681,-618.639,0,0
221644,421.518,-616.489,0,0
221904,417.938,-614.388,0,0
222165,414.841,-612.144,0,0
222425,412.42,-609.803,0,0
222685,410.845,-607.677,0,0
222946,409.764,-606.123,0,0
223206,408.602,-605.15,0,0
223466,407.358,-604.071,0,0
223727,406.397,-603.026,0,0
223987,405.717,-602.325,0,0
224247,404.875,-601.83,0,0
224508,403.885,-601.332,0,0
224768,402.776,-600.625,0,0
225028,401.731,-599.716,0,0
225289,401.023,-598.353,0,0
225549,400.676,-596.579,0,0
225809,401.271,-594.7,0,0
226070,402.727,-593.12,0,0
226330,404.822,-592.215,0,0
226590,407.088,-592.219,0,0
226851,409.247,-592.824,0,0
227111,411.17,-593.748,0,0
227371,413.025,-594.755,0,0
227632,414.996,-595.916,0,0
227892,417.308,-597.279,0,0
228152,419.87,-599.342,0,0
228413,422.268,-601.972,0,0
228673,424.547,-605.106,0,0
228933,426.625,-608.812,0,0
229193,428.194,-613.128,0,0
229454,428.931,-617.755,0,0
229714,429.019,-622.145,0,0
229974,428.958,-625.815,0,0
230235,429.472,-629.492,0,0
230495,430.494,-633.978,0,0
230755,431.075,-639.628,0,0
231016,430.451,-645.745,0,0
231276,428.766,-651.486,0,0
231536,426.71,-656.676,0,0
231797,424.726,-661.575,0,0
232057,422.727,-666.517,0,0
232317,420.603,-671.589,0,0
232578,418.452,-676.934,0,0
232838,415.93,-682.796,0,0
233098,412.835,-688.988,0,0
233359,409.054,-695.588,0,0
233619,404.158,-702.574,0,0
233879,397.538,-709.503,0,0
234140,389.422,-715.292,0,0
234400,380.417,-719.315,0,0
234660.3,371.594,-721.902,0,0
234920.625,363.17,-723.471,0,0
235180.95,354.81,-724.697,0,0
235441.275,346.083,-725.019,0,0
235701.6,337.654,-724.063,0,0
235961.925,330.257,-722.164,0,0
236222.25,323.767,-720.162,0,0
236482.575,317.692,-718.16,0,0
236742.9,311.931,-715.929,0,0
237003.225,306.832,-713.831,0,0
237263.55,301.615,-712.169,0,0
237523.875,295.707,-710.298,0,0
237784.2,289.753,-707.361,0,0
238044.525,284.262,-703.772,0,0
238304.85,279.482,-699.535,0,0
238565.175,275.507,-694.966,0,0
238825.5,272.313,-690.409,0,0
239085.825,269.819,-685.824,0,0
239346.15,268.148,-681.404,0,0
239606.475,267.152,-677.382,0,0
239866.8,266.909,-673.909,0,0
240127.125,267.206,-671.266,0,0
240387.45,267.57,-670.032,0,0
240647.775,267.34,-669.792,0,0
240908.1,265.965,-670.106,0,0
241168.425,263.527,-670.139,0,0
241428.75,260.702,-669.527,0,0
241689.075,257.738,-668.67,0,0
241949.4,254.507,-667.669,0,0
242209.725,250.944,-666.278,0,0
242470.05,246.99,-664.385,0,0
242730.375,242.977,-661.442,0,0
242990.7,239.515,-657.574,0,0
243251.025,236.946,-653.256,0,0
243511.35,235.201,-649.001,0,0
243771.675,233.827,-644.869,0,0
244032.0,232.891,-640.636,0,0
244292.325,232.627,-636.471,0,0
244552.65,233.158,-632.488,0,0
244812.975,234.35,-629.287,0,0
245073.3,235.864,-627.025,0,0
245333.625,236.882,-625.61,0,0
245593.95,237.524,-624.596,0,0
245854.275,237.721,-623.919,0,0
246114.6,237.378,-623.313,0,0
246374.925,236.448,-622.565,0,0
246635.25,235.318,-621.419,0,0
246895.575,234.211,-620.025,0,0
247155.9,233.007,-618.512,0,0
247416.225,231.761,-616.718,0,0
247676.55,230.578,-614.688,0,0
247936.875,229.534,-612.419,0,0
248197.2,228.629,-610.082,0,0
248457.525,227.793,-607.634,0,0
248717.85,227.22,-605.064,0,0
248978.175,226.778,-602.383,0,0
249238.5,226.484,-599.606,0,0
249498.825,226.34,-596.787,0,0
249759.15,226.483,-593.87,0,0
250019.475,226.905,-590.846,0,0
250279.8,227.7,-588.054,0,0
250540,228.652,-585.225,0,0
250800,229.805,-582.541,0,0
251061,231.189,-579.98,0,0
251321,232.787,-577.533,0,0
251581,234.575,-575.281,0,0
251842,236.493,-573.116,0,0
252102,238.673,-571.036,0,0
252362,241.199,-569.133,0,0
252623,244.034,-567.632,0,0
252883,247.087,-566.551,0,0
253143,250.209,-565.971,0,0
253404,253.366,-565.903,0,0
253664,256.406,-566.306,0,0
253924,259.236,-567.164,0,0
254185,261.781,-568.464,0,0
254445,263.974,-570.123,0,0
254705,265.583,-571.922,0,0
254966,266.93,-573.748,0,0
255226,268.063,-575.623,0,0
255486,268.879,-577.527,0,0
255747,269.494,-579.633,0,0
256007,269.659,-581.77,0,0
256267,269.383,-583.757,0,0
256528,268.835,-585.494,0,0
256788,268.169,-587.082,0,0
257048,267.306,-588.557,0,0
257309,266.169,-589.844,0,0
257569,264.821,-590.828,0,0
257829,263.414,-591.446,0,0
258090,262.037,-591.774,0,0
258350,260.771,-591.701,0,0
258610,259.802,-591.365,0,0
258871,259.3,-591.03,0,0
259131,259.067,-590.965,0,0
259391,258.789,-591.148,0,0
259651,258.312,-591.683,0,0
259912,257.64,-592.187,0,0
260172,256.619,-592.543,0,0
260432,255.319,-592.637,0,0
260693,254.169,-592.313,0,0
260953,253.115,-591.813,0,0
261213,252.196,-591.135,0,0
261474,251.418,-590.342,0,0
261734,250.807,-589.375,0,0
261994,250.384,-588.336,0,0
262255,250.191,-587.154,0,0
262515,250.351,-585.861,0,0
262775,250.912,-584.644,0,0
263036,251.917,-583.642,0,0
263296,253.169,-583.009,0,0
263556,254.569,-582.864,0,0
263817,255.967,-583.104,0,0
264077,257.207,-583.687,0,0
264337,258.304,-584.624,0,0
264598,259.13,-585.744,0,0
264858,259.637,-587.14,0,0
265118,259.776,-588.367,0,0
265379,259.756,-589.362,0,0
265639,259.738,-590.244,0,0
265899,259.855,-591.173,0,0
266160,259.986,-592.149,0,0
266420,260.101,-593.258,0,0
266680.25,260.166,-594.585,0,0
266940.575,260.062,-596.038,0,0
267200.9,259.778,-597.56,0,0
267461.225,259.316,-599.132,0,0
267721.55,258.614,-600.771,0,0
267981.875,257.624,-602.45,0,0
268242.2,256.276,-604.01,0,0
268502.525,254.556,-605.239,0,0
268762.85,252.769,-606.067,0,0
269023.175,251.077,-606.455,0,0
269283.5,249.437,-606.673,0,0
269543.825,247.939,-606.579,0,0
269804.15,246.66,-606.222,0,0
270064.475,245.626,-605.59,0,0
270324.8,245.036,-604.867,0,0
270585.125,244.935,-604.071,0,0
270845.45,245.25,-603.512,0,0
271105.775,245.955,-603.125,0,0
271366.1,247.024,-603.032,0,0
271626.425,248.449,-603.251,0,0
271886.75,250.394,-603.951,0,0
272147.075,252.799,-605.555,0,0
272407.4,255.268,-608.357,0,0
272667.725,257.173,-612.382,0,0
272928.05,258.151,-617.349,0,0
273188.375,257.962,-622.762,0,0
273448.7,256.738,-628.315,0,0
273709.025,254.539,-633.873,0,0
273969.35,251.343,-639.271,0,0
274229.675,247.271,-644.342,0,0
274490.0,242.366,-648.858,0,0
274750.325,236.927,-652.725,0,0
275010.65,231.075,-656.098,0,0
275270.975,224.596,-658.888,0,0
275531.3,217.587,-661.082,0,0
275791.625,210.249,-662.299,0,0
276051.95,202.725,-662.506,0,0
276312.275,195.301,-661.814,0,0
276572.6,188.074,-660.257,0,0
276832.925,181.198,-657.973,0,0
277093.25,174.723,-655.021,0,0
277353.575,168.729,-651.484,0,0
277613.9,163.322,-647.465,0,0
277874.225,158.492,-643.081,0,0
278134.55,154.239,-638.499,0,0
278394.875,150.563,-633.748,0,0
278655.2,147.426,-628.847,0,0
278915.525,144.855,-624,0,0
279175.85,142.774,-619.255,0,0
279436.175,141.165,-614.624,0,0
279696.5,139.868,-610.332,0,0
279956.825,138.827,-606.052,0,0
280217.15,138.048,-601.967,0,0
280477.475,137.556,-597.993,0,0
280737.8,137.386,-594.25,0,0
280998.125,137.476,-590.904,0,0
281258.45,137.599,-588.023,0,0
281518.775,137.511,-585.509,0,0
281779.1,137.184,-583.14,0,0
282039.425,136.578,-580.707,0,0
282299.75,135.916,-578.09,0,0
282560,135.225,-575.387,0,0
282820,134.601,-572.671,0,0
283081,133.893,-569.745,0,0
283341,133.383,-566.518,0,0
283601,133.07,-563.195,0,0
283862,132.931,-559.707,0,0
284122,133.212,-556.255,0,0
284382,133.895,-552.852,0,0
284643,134.756,-549.574,0,0
284903,135.898,-546.523,0,0
285163,137.163,-543.602,0,0
285424,138.713,-540.99,0,0
285684,140.392,-538.599,0,0
285944,142.068,-536.537,0,0
286205,143.824,-534.851,0,0
286465,145.313,-533.392,0,0
286725,146.869,-532.05,0,0
286986,148.271,-530.89,0,0
287246,149.59,-529.946,0,0
287506,150.744,-529.164,0,0
287767,151.64,-528.524,0,0
288027,152.147,-527.91,0,0
288287,152.612,-527.262,0,0
288548,152.668,-526.396,0,0
288808,152.745,-525.326,0,0
289068,152.761,-524.008,0,0
289329,152.849,-522.608,0,0
289589,152.925,-521.008,0,0
289849,153.201,-519.305,0,0
290109,153.446,-517.421,0,0
290370,153.841,-515.432,0,0
290630,154.524,-513.373,0,0
290890,155.499,-511.199,0,0
291151,156.718,-509.208,0,0
291411,158.15,-507.448,0,0
291671,159.503,-505.808,0,0
291932,160.813,-504.447,0,0
292192,162.037,-502.961,0,0
292452,163.252,-501.407,0,0
292713,164.667,-499.965,0,0
292973,166.178,-498.407,0,0
293233,167.778,-496.924,0,0
293494,169.515,-495.675,0,0
293754,171.203,-494.418,0,0
294014,172.927,-493.214,0,0
294275,174.676,-492.085,0,0
294535,176.417,-490.98,0,0
294795,178.138,-489.878,0,0
295056,180.019,-488.743,0,0
295316,182.042,-487.625,0,0
295576,184.199,-486.55,0,0
295837,186.388,-485.632,0,0
296097,188.755,-484.818,0,0
296357,191.03,-484.006,0,0
296618,193.549,-483.276,0,0
296878,196.085,-482.622,0,0
297138,198.862,-482.046,0,0
297399,201.699,-481.656,0,0
297659,204.721,-481.54,0,0
297919,207.672,-481.562,0,0
298180,210.673,-481.822,0,0
298440,213.754,-482.178,0,0
298700.2,216.714,-482.71,0,0
298960.525,219.665,-483.194,0,0
299220.85,222.777,-483.871,0,0
299481.175,226.066,-484.697,0,0
299741.5,229.394,-485.61,0,0
300001.825,233.011,-486.901,0,0
300262.15,236.572,-488.454,0,0
300522.475,240.171,-490.314,0,0
300782.8,243.89,-492.378,0,0
301043.125,247.6,-494.811,0,0
301303.45,251.556,-497.699,0,0
301563.775,255.312,-501.055,0,0
301824.1,259.147,-504.983,0,0
302084.425,262.881,-509.604,0,0
302344.75,266.08,-514.817,0,0
302605.075,268.873,-520.802,0,0
302865.4,270.864,-527.213,0,0
303125.725,272.022,-534.012,0,0
303386.05,272.24,-540.939,0,0
303646.375,271.571,-547.764,0,0
303906.7,270.118,-554.273,0,0
304167.025,268.057,-560.369,0,0
304427.35,265.566,-566.054,0,0
304687.675,262.684,-571.308,0,0
304948.0,259.58,-576.193,0,0
305208.325,256.298,-580.77,0,0
305468.65,252.843,-585.123,0,0
305728.975,249.08,-589.205,0,0
305989.3,245.096,-593.036,0,0
306249.625,240.838,-596.54,0,0
306509.95,236.379,-599.68,0,0
306770.275,231.743,-602.407,0,0
307030.6,226.996,-604.764,0,0
307290.925,222.222,-606.677,0,0
307551.25,217.503,-608.248,0,0
307811.575,212.808,-609.515,0,0
308071.9,208.147,-610.522,0,0
308332.225,203.517,-611.259,0,0
308592.55,198.887,-611.709,0,0
308852.875,194.301,-611.846,0,0
309113.2,189.81,-611.681,0,0
309373.525,185.374,-611.18,0,0
309633.85,181.168,-610.366,0,0
309894.175,177.223,-609.258,0,0
310154.5,173.527,-607.994,0,0
310414.825,170.174,-606.654,0,0
310675.15,167.057,-605.25,0,0
310935.475,164.156,-603.87,0,0
311195.8,161.395,-602.504,0,0
311456.125,158.743,-601.183,0,0
311716.45,156.193,-599.858,0,0
311976.775,153.713,-598.556,0,0
312237.1,151.324,-597.229,0,0
312497.425,148.966,-595.926,0,0
312757.75,146.649,-594.589,0,0
313018.075,144.341,-593.265,0,0
313278.4,142.069,-591.868,0,0
313538.725,139.803,-590.414,0,0
313799.05,137.565,-588.833,0,0
314059.375,135.431,-587.22,0,0
314319.7,133.308,-585.436,0,0
314580,131.296,-583.594,0,0
314840,129.425,-581.641,0,0
315101,127.735,-579.611,0,0
315361,126.188,-577.537,0,0
315621,124.805,-575.45,0,0
315882,123.62,-573.402,0,0
316142,122.567,-571.391,0,0
316402,121.668,-569.433,0,0
316663,120.87,-567.577,0,0
316923,120.17,-565.834,0,0
317183,119.513,-564.184,0,0
317444,118.837,-562.611,0,0
317704,118.186,-561.087,0,0
317964,117.583,-559.558,0,0
318225,117.013,-558.063,0,0
318485,116.483,-556.615,0,0
318745,115.982,-555.207,0,0
319006,115.51,-553.793,0,0
319266,115.125,-552.436,0,0
319526,114.754,-551.101,0,0
319787,114.442,-549.85,0,0
320047,114.159,-548.702,0,0
320307,113.859,-547.566,0,0
320567,113.591,-546.507,0,0
320828,113.327,-545.477,0,0
321088,113.034,-544.496,0,0
321348,112.71,-543.576,0,0
321609,112.377,-542.654,0,0
321869,112.027,-541.751,0,0
322129,111.674,-540.843,0,0
322390,111.355,-539.956,0,0
322650,111.042,-539.084,0,0
322910,110.731,-538.251,0,0
323171,110.406,-537.439,0,0
323431,110.068,-536.654,0,0
323691,109.731,-535.879,0,0
323952,109.388,-535.107,0,0
324212,109.035,-534.344,0,0
324472,108.685,-533.611,0,0
324733,108.303,-532.856,0,0
324993,107.919,-532.081,0,0
325253,107.547,-531.281,0,0
325514,107.23,-530.47,0,0
325774,106.988,-529.64,0,0
326034,106.83,-528.859,0,0
326295,106.712,-528.162,0,0
326555,106.611,-527.569,0,0
326815,106.495,-527.04,0,0
327076,106.359,-526.598,0,0
327336,106.188,-526.245,0,0
327596,105.964,-525.953,0,0
327857,105.637,-525.696,0,0
328117,105.234,-525.46,0,0
328377,104.763,-525.218,0,0
328638,104.223,-524.942,0,0
328898,103.655,-524.632,0,0
329158,103.072,-524.276,0,0
329419,102.49,-523.946,0,0
329679,101.891,-523.618,0,0
329939,101.297,-523.282,0,0
330200,100.656,-522.989,0,0
330460,99.963,-522.656,0,0
330720.15,99.1638,-522.373,0,0
330980.475,98.4526,-522.049,0,0
331240.8,97.674,-521.684,0,0
331501.125,96.8644,-521.397,0,0
331761.45,95.9336,-521.015,0,0
332021.775,95.0108,-520.627,0,0
332282.1,93.9831,-520.236,0,0
332542.425,92.9927,-519.763,0,0
332802.75,91.9324,-519.251,0,0
333063.075,90.8186,-518.672,0,0
333323.4,89.7375,-517.956,0,0
333583.725,88.6418,-517.34,0,0
333844.05,87.489,-516.577,0,0
334104.375,86.4321,-515.784,0,0
334364.7,85.3593,-514.892,0,0
334625.025,84.2794,-514.055,0,0
334885.35,83.2699,-513.079,0,0
335145.675,82.2891,-512.119,0,0
335406.0,81.2703,-511.092,0,0
335666.325,80.3546,-510.042,0,0
335926.65,79.3835,-509.054,0,0
336186.975,78.4199,-508.024,0,0
336447.3,77.4837,-506.837,0,0
336707.625,76.6206,-505.713,0,0
336967.95,75.6278,-504.485,0,0
337228.275,74.8128,-503.246,0,0
337488.6,73.9527,-501.949,0,0
337748.925,73.1917,-500.633,0,0
338009.25,72.5043,-499.295,0,0
338269.575,71.8448,-497.958,0,0
338529.9,71.1895,-496.608,0,0
338790.225,70.6336,-495.28,0,0
339050.55,70.08,-494.024,0,0
339310.875,69.4827,-492.693,0,0
339571.2,68.9287,-491.405,0,0
339831.525,68.3786,-490.025,0,0
340091.85,67.954,-488.757,0,0
340352.175,67.4754,-487.399,0,0
340612.5,67.0057,-486.058,0,0
340872.825,66.5447,-484.721,0,0
341133.15,66.1848,-483.362,0,0
341393.475,65.7719,-481.971,0,0
341653.8,65.4214,-480.496,0,0
341914.125,65.1294,-479.109,0,0
342174.45,64.8468,-477.658,0,0
342434.775,64.6967,-476.223,0,0
342695.1,64.4869,-474.809,0,0
342955.425,64.3739,-473.393,0,0
343215.75,64.2711,-471.992,0,0
343476.075,64.2206,-470.584,0,0
343736.4,64.2747,-469.287,0,0
343996.725,64.3774,-467.884,0,0
344257.05,64.4491,-466.564,0,0
344517.375,64.6704,-465.352,0,0
344777.7,64.8664,-464.125,0,0
345038.025,65.0462,-462.994,0,0
345298.35,65.2549,-461.931,0,0
345558.675,65.5707,-460.89,0,0
345819.0,65.807,-459.908,0,0
346079.325,66.0503,-459.002,0,0
346339.65,66.2566,-458.244,0,0
346599.975,66.3842,-457.481,0,0
346860,66.3868,-456.7,0,0
347121,66.4247,-456.053,0,0
347381,66.3985,-455.29,0,0
347641,66.2597,-454.577,0,0
347902,66.1246,-453.839,0,0
348162,65.8801,-453.072,0,0
348422,65.6282,-452.256,0,0
348683,65.3327,-451.384,0,0
348943,64.9856,-450.365,0,0
349203,64.7806,-449.331,0,0
349464,64.5459,-448.34,0,0
349724,64.3905,-447.184,0,0
349984,64.1591,-446.114,0,0
350245,64.0103,-445.031,0,0
350505,63.8304,-443.912,0,0
350765,63.7119,-442.773,0,0
351025,63.5888,-441.484,0,0
351286,63.4964,-440.209,0,0
351546,63.3942,-438.922,0,0
351806,63.5033,-437.549,0,0
352067,63.6272,-436.22,0,0
352327,63.8373,-434.897,0,0
352587,64.1435,-433.6,0,0
352848,64.4726,-432.357,0,0
353108,64.8752,-431.169,0,0
353368,65.3012,-430.029,0,0
353629,65.7596,-428.941,0,0
353889,66.2593,-427.953,0,0
354149,66.8236,-426.957,0,0
354410,67.2875,-426.049,0,0
354670,67.8073,-425.193,0,0
354930,68.337,-424.398,0,0
355191,68.7991,-423.632,0,0
355451,69.2906,-422.992,0,0
355711,69.8441,-422.384,0,0
355972,70.3153,-421.883,0,0
356232,70.6901,-421.397,0,0
356492,71.0107,-420.96,0,0
356753,71.2511,-420.577,0,0
357013,71.3855,-420.185,0,0
357273,71.4067,-419.817,0,0
357534,71.3568,-419.395,0,0
357794,71.2784,-418.895,0,0
358054,71.0769,-418.402,0,0
358315,70.7923,-417.753,0,0
358575,70.5337,-417.034,0,0
358835,70.2162,-416.193,0,0
359096,70.0162,-415.279,0,0
359356,69.7958,-414.297,0,0
359616,69.6207,-413.259,0,0
359877,69.5317,-412.128,0,0
360137,69.5027,-410.983,0,0
360397,69.5269,-409.855,0,0
360658,69.6012,-408.663,0,0
360918,69.7255,-407.452,0,0
361178,69.8833,-406.262,0,0
361438,70.1848,-405.051,0,0
361699,70.511,-403.812,0,0
361959,70.8433,-402.638,0,0
362219,71.2643,-401.493,0,0
362480,71.8003,-400.372,0,0
362740.1,72.3158,-399.286,0,0
363000.425,72.8467,-398.264,0,0
363260.75,73.3881,-397.266,0,0
363521.075,73.9403,-396.224,0,0
363781.4,74.5325,-395.234,0,0
364041.725,75.1555,-394.308,0,0
364302.05,75.8608,-393.328,0,0
364562.375,76.5787,-392.475,0,0
364822.7,77.3084,-391.621,0,0
365083.025,78.0609,-390.834,0,0
365343.35,78.8827,-390.097,0,0
365603.675,79.6552,-389.438,0,0
365864.0,80.4598,-388.797,0,0
366124.325,81.1974,-388.286,0,0
366384.65,81.8719,-387.8,0,0
366644.975,82.5274,-387.326,0,0
366905.3,83.114,-386.85,0,0
367165.625,83.7758,-386.291,0,0
367425.95,84.3485,-385.808,0,0
367686.275,85.0005,-385.295,0,0
367946.6,85.6651,-384.865,0,0
368206.925,86.3373,-384.423,0,0
368467.25,87.0324,-383.981,0,0
368727.575,87.6605,-383.705,0,0
368987.9,88.2868,-383.373,0,0
369248.225,88.9666,-383.124,0,0
369508.55,89.6017,-382.917,0,0
369768.875,90.2167,-382.749,0,0
370029.2,90.7185,-382.679,0,0
370289.525,91.227,-382.672,0,0
370549.85,91.5802,-382.655,0,0
370810.175,91.8798,-382.665,0,0
371070.5,92.0742,-382.708,0,0
371330.825,92.1059,-382.601,0,0
371591.15,92.1163,-382.489,0,0
371851.475,92.0508,-382.274,0,0
372111.8,91.9119,-381.914,0,0
372372.125,91.8607,-381.498,0,0
372632.45,91.8521,-380.957,0,0
372892.775,91.8524,-380.355,0,0
373153.1,91.914,-379.756,0,0
373413.425,92.0144,-379.167,0,0
373673.75,92.2263,-378.477,0,0
373934.075,92.4575,-377.839,0,0
374194.4,92.6845,-377.155,0,0
374454.725,93.0396,-376.51,0,0
374715.05,93.3968,-375.88,0,0
374975.375,93.7658,-375.315,0,0
375235.7,94.1858,-374.784,0,0
375496.025,94.5578,-374.263,0,0
375756.35,94.9918,-373.839,0,0
376016.675,95.3635,-373.436,0,0
376277.0,95.7213,-372.981,0,0
376537.325,96.019,-372.615,0,0
376797.65,96.31,-372.233,0,0
377057.975,96.5246,-371.847,0,0
377318.3,96.6887,-371.409,0,0
377578.625,96.8365,-370.893,0,0
377838.95,97.0259,-370.383,0,0
378099.275,97.2279,-369.751,0,0
378359.6,97.4408,-369.154,0,0
378619.925,97.7006,-368.487,0,0
378880,97.9562,-367.823,0,0
379141,98.3359,-367.127,0,0
379401,98.7226,-366.451,0,0
379661,99.1921,-365.801,0,0
379922,99.6659,-365.214,0,0
380182,100.152,-364.683,0,0
380442,100.591,-364.14,0,0
380703,101.017,-363.659,0,0
380963,101.41,-363.054,0,0
381223,101.835,-362.488,0,0
381483,102.284,-361.899,0,0
381744,102.741,-361.292,0,0
382004,103.271,-360.728,0,0
382264,103.776,-360.172,0,0
382525,104.297,-359.62,0,0
382785,104.881,-359.084,0,0
383045,105.453,-358.582,0,0
383306,106.008,-358.148,0,0
383566,106.543,-357.69,0,0
383826,107.046,-357.252,0,0
384087,107.56,-356.772,0,0
384347,108.085,-356.284,0,0
384607,108.582,-355.808,0,0
384868,109.154,-355.316,0,0
385128,109.722,-354.865,0,0
385388,110.281,-354.436,0,0
385649,110.818,-354.02,0,0
385909,111.378,-353.612,0,0
386169,111.862,-353.163,0,0
386430,112.392,-352.742,0,0
386690,112.871,-352.238,0,0
386950,113.412,-351.79,0,0
387211,113.909,-351.319,0,0
387471,114.427,-350.851,0,0
387731,114.877,-350.298,0,0
387992,115.405,-349.716,0,0
388252,115.869,-349.033,0,0
388512,116.426,-348.31,0,0
388773,117.153,-347.494,0,0
389033,117.923,-346.747,0,0
389293,118.832,-345.981,0,0
389554,119.828,-345.307,0,0
389814,120.903,-344.73,0,0
390074,121.96,-344.204,0,0
390335,123.059,-343.773,0,0
390595,124.126,-343.382,0,0
390855,125.195,-343.028,0,0
391116,126.259,-342.716,0,0
391376,127.342,-342.46,0,0
391636,128.427,-342.179,0,0
391896,129.496,-341.962,0,0
392157,130.591,-341.801,0,0
392417,131.675,-341.653,0,0
392677,132.728,-341.525,0,0
392938,133.776,-341.485,0,0
393198,134.779,-341.447,0,0
393458,135.745,-341.389,0,0
393719,136.649,-341.36,0,0
393979,137.524,-341.284,0,0
394239,138.35,-341.113,0,0
394500,139.231,-340.897,0,0
394760.05,140.195,-340.599,0,0
395020.375,141.233,-340.253,0,0
395280.7,142.349,-339.915,0,0
395541.025,143.537,-339.564,0,0
395801.35,144.811,-339.239,0,0
396061.675,146.177,-338.918,0,0
396322.0,147.631,-338.598,0,0
396582.325,149.212,-338.314,0,0
396842.65,150.92,-338.036,0,0
397102.975,152.788,-337.833,0,0
397363.3,154.777,-337.804,0,0
397623.625,156.877,-337.837,0,0
397883.95,159.073,-338.078,0,0
398144.275,161.416,-338.446,0,0
398404.6,163.832,-339.052,0,0
398664.925,166.325,-339.86,0,0
398925.25,168.873,-340.9,0,0
399185.575,171.457,-342.204,0,0
399445.9,174.023,-343.852,0,0
399706.225,176.597,-345.831,0,0
399966.55,178.957,-348.171,0,0
400006.6,179.306,-348.572,0,0