File: Accelerated corrosion test data/2025-10-21_06-00-04/sample_5.csv
Frequency (Hz),Impedance (ohms),Phase (Radians),Temperature (C),Humidity (%)
10000.0,3513.84,-2311.19,0,0
10260.325,3446.7,-2267.22,0,0
10520.65,3433.38,-2347.01,0,0
10780.975,3447.96,-2521.64,0,0
11041.3,3347.9,-2356.19,0,0
11301.625,3352.7,-2506.12,0,0
11561.95,3256.35,-2336.79,0,0
11822.275,3266.03,-2528.68,0,0
12082.6,3214.39,-2482.09,0,0
12342.925,3090.37,-2202.69,0,0
12603.25,3042.02,-2166.62,0,0
12863.575,3023.39,-2219.06,0,0
13123.9,2986.79,-2220.64,0,0
13384.225,2952.09,-2224.92,0,0
13644.55,2936.4,-2294.85,0,0
13904.875,2890.2,-2251.58,0,0
14165.2,2865.21,-2293.97,0,0
14425.525,2838.29,-2321.53,0,0
14685.8,2819.84,-2407.36,0,0
14946.175,2782.63,-2391.18,0,0
15206.5,2741.64,-2336.87,0,0
15466.825,2677.87,-2162.46,0,0
15727.15,2643.3,-2130.99,0,0
15987.5,2612.52,-2130.01,0,0
16247.8,2597.69,-2191.77,0,0
16508.125,2562.08,-2156.06,0,0
16768.45,2543.62,-2211.69,0,0
17028.775,2512.62,-2188.12,0,0
17289.1,2475.15,-2122.92,0,0
17549.425,2428.24,-1995.42,0,0
17809.75,2409.1,-2032.94,0,0
18070.075,2372.11,-1976.83,0,0
18330.4,2325.15,-1857.15,0,0
18590.725,2298.52,-1829.22,0,0
18851.05,2264.66,-1765.15,0,0
19111.375,2249.99,-1798.35,0,0
19371.7,2230.93,-1803.63,0,0
19632.025,2200.81,-1749.56,0,0
19892.35,2184.86,-1760.42,0,0
20152.675,2167.44,-1779.8,0,0
20413.0,2164.98,-1893.77,0,0
20673.3,2142.59,-1887.67,0,0
20933.65,2131.27,-1969.97,0,0
21193.975,2112.93,-1999.3,0,0
21454.3,2091.75,-1990.29,0,0
21714.625,2072.17,-2001.54,0,0
21974.9,2052.7,-2009.36,0,0
22235.275,2031.96,-2043.55,0,0
22495.6,2012.73,-1986.49,0,0
22755.925,1993.67,-2032.96,0,0
23016.25,1972.29,-1870.76,0,0
23276.6,1954.09,-1866.55,0,0
23536.9,1901.71,-1564.96,0,0
23797.225,1894.05,-1600.98,0,0
24057.55,1879.55,-1606.94,0,0
24317.875,1872.1,-1665.21,0,0
24578.2,1854.33,-1639.54,0,0
24838.525,1839.2,-1657.61,0,0
25098.85,1827.11,-1686.18,0,0
25359.175,1814.84,-1716.83,0,0
25619.5,1764.23,-1431.39,0,0
25879.8,1690.45,-2353.79,0,0
26140.1,1758.89,-1543.71,0,0
26400.5,1721.04,-1401.74,0,0
26660.8,1730.55,-1538.39,0,0
26921.1,1578.29,-2424.66,0,0
27181.4,1573.3,-2383.76,0,0
27441.8,1558.46,-2370.22,0,0
27702.1,1556.38,-2324.03,0,0
27962.4,1639.66,-1979.28,0,0
28222.7,1611.11,-2029.97,0,0
28483.1,1481.83,-2349.33,0,0
28743.4,1622.3,-1746.91,0,0
29003.7,1531.83,-2115.72,0,0
29264,1459.65,-2264.28,0,0
29524.4,1460.76,-2213.43,0,0
29784.7,1559.85,-1733.5,0,0
30045,1523.81,-1194.75,0,0
30305.3,1516.36,-1274.21,0,0
30565.7,1346.43,-2294.2,0,0
30826,1384.88,-2179.13,0,0
31086.3,1334.03,-2242.87,0,0
31346.6,1322.2,-2229.27,0,0
31607,1307.26,-2223.54,0,0
31867.3,1304.44,-2194.8,0,0
32127.6,1275.65,-2212.98,0,0
32387.9,1260.44,-2206.69,0,0
32648.3,1275.29,-2149.89,0,0
32908.6,1237.66,-2183.27,0,0
33168.9,1222.15,-2179.58,0,0
33429.2,1204.02,-2178.78,0,0
33689.6,1193.79,-2166.29,0,0
33949.9,1189.18,-2145.28,0,0
34210.2,1172.61,-2144.6,0,0
34470.5,1157.42,-2140.39,0,0
34730.9,1136.41,-2144.62,0,0
34991.2,1132.05,-2125.04,0,0
35251.5,1113.46,-2127.18,0,0
35511.8,1109.1,-2108.41,0,0
35772.2,1103.51,-2091.24,0,0
36032.5,1093.9,-2081.37,0,0
36292.8,1074.31,-2085.05,0,0
36553.1,1071.21,-2066.06,0,0
36813.5,1060.24,-2057.63,0,0
37073.8,1057.64,-2038.21,0,0
37334.1,1039.04,-2041.92,0,0
37594.4,1029.34,-2032.4,0,0
37854.8,1019.83,-2024.04,0,0
38115.1,1021.94,-1998.65,0,0
38375.4,1032.94,-1961.56,0,0
38635.7,1020.33,-1958.44,0,0
38896.1,1002.49,-1962.31,0,0
39156.4,988.071,-1962.01,0,0
39416.7,971.865,-1963.85,0,0
39677,962.182,-1956.37,0,0
39937.4,957.916,-1942.19,0,0
40197.7,945.532,-1938.75,0,0
40458,935.417,-1932.62,0,0
40718.3,925.016,-1927.43,0,0
40978.7,917.353,-1917.92,0,0
41239,903.981,-1916.63,0,0
41499.3,895.041,-1909.68,0,0
41759.6,918.043,-1862.17,0,0
42020,945.783,-1807.73,0,0
42280.275,916.563,-1831.87,0,0
42540.6,910.725,-1821.56,0,0
42800.925,901.111,-1816.59,0,0
43061.25,889.181,-1815.13,0,0
43321.575,880.475,-1809.53,0,0
43581.9,872.883,-1802.69,0,0
43842.225,862.874,-1798.31,0,0
44102.55,838.808,-1811.66,0,0
44362.875,831.513,-1804.83,0,0
44623.2,822.353,-1800.16,0,0
44883.525,822.914,-1784.15,0,0
45143.85,810.192,-1783.57,0,0
45404.175,801.114,-1778.93,0,0
45664.5,795.784,-1770.66,0,0
45924.825,791.487,-1761.15,0,0
46185.15,797.844,-1739.37,0,0
46445.475,776.934,-1748.95,0,0
46705.8,761.299,-1751.76,0,0
46966.125,761.39,-1738.42,0,0
47226.45,749.274,-1737.52,0,0
47486.775,745.83,-1728.1,0,0
47747.1,737.844,-1723.59,0,0
48007.425,740.387,-1708.03,0,0
48267.75,755.835,-1677.81,0,0
48528.075,715.013,-1708.58,0,0
48788.4,737.642,-1672.72,0,0
49048.725,722.388,-1675.97,0,0
49309.05,718.116,-1668.86,0,0
49569.375,705.438,-1670.12,0,0
49829.7,699.578,-1664.29,0,0
50090.025,695.27,-1657.63,0,0
50350.35,690.481,-1650.88,0,0
50610.675,689.901,-1639.97,0,0
50871.0,688.672,-1630.14,0,0
51131.325,681.647,-1626,0,0
51391.65,677.614,-1619.05,0,0
51651.975,672.056,-1613.66,0,0
51912.3,656.222,-1618.33,0,0
52172.625,652.395,-1611.2,0,0
52432.95,646.165,-1606.51,0,0
52693.275,644.04,-1597.9,0,0
52953.6,637.621,-1593.35,0,0
53213.925,637.407,-1583.25,0,0
53474.25,634.952,-1575.02,0,0
53734.575,633.719,-1565.76,0,0
53994.9,624.313,-1564.44,0,0
54255.225,639.062,-1539.82,0,0
54515.55,623.653,-1545.18,0,0
54775.875,611.05,-1547.43,0,0
55036.2,606.807,-1541.26,0,0
55296.525,597.129,-1540.54,0,0
55556.85,629.642,-1499.98,0,0
55817.175,605.43,-1514.07,0,0
56077.5,590.219,-1519.24,0,0
56337.825,605.213,-1496.28,0,0
56598.15,585.719,-1505.83,0,0
56858.475,595.38,-1487.86,0,0
57118.8,581.869,-1491.54,0,0
57379.125,580.975,-1483.44,0,0
57639.45,574.466,-1480.61,0,0
57899.775,574.448,-1471.8,0,0
58160.1,568.917,-1469.35,0,0
58420.4,576.305,-1453.78,0,0
58680.7,562.413,-1457.98,0,0
58941.1,575.404,-1437.55,0,0
59201.4,579.54,-1424.93,0,0
59461.7,572.254,-1422.57,0,0
59722,568.924,-1417.21,0,0
59982.4,564.34,-1413.26,0,0
60242.7,560.997,-1407.57,0,0
60503,557.308,-1402.09,0,0
60763.3,552.239,-1398.42,0,0
61023.7,550.619,-1391.41,0,0
61284,548.822,-1384.92,0,0
61544.3,547.363,-1378.1,0,0
61804.6,537.682,-1378.9,0,0
62065,538.365,-1369.76,0,0
62325.3,530.102,-1369.45,0,0
62585.6,535.93,-1355.74,0,0
62845.9,560.012,-1325.87,0,0
63106.3,633.089,-318.829,0,0
63366.6,631.452,-319.677,0,0
63626.9,675.474,-391.55,0,0
63887.2,687.486,-417.639,0,0
64147.6,709.92,-469.705,0,0
64407.9,738.765,-561.029,0,0
64668.2,757.628,-673.163,0,0
64928.5,758.107,-790.681,0,0
65188.9,710.533,-1007.65,0,0
65449.2,710.42,-994.666,0,0
65709.5,710.95,-980.65,0,0
65969.8,700.84,-997.341,0,0
66230.2,693.778,-1004.2,0,0
66490.5,699.97,-975.972,0,0
66750.8,692.417,-984.869,0,0
67011.1,691.771,-973.949,0,0
67271.5,684.179,-983.786,0,0
67531.8,656.765,-1038.04,0,0
67792.1,658.686,-1024.69,0,0
68052.4,661.169,-1009.56,0,0
68312.8,654.962,-1013.7,0,0
68573.1,650.666,-1013.24,0,0
68833.4,646.445,-1013.07,0,0
69093.7,645.093,-1006.08,0,0
69354.1,641.053,-1006.11,0,0
69614.4,638.315,-1002.83,0,0
69874.7,636.266,-998.146,0,0
70135,637.632,-987.074,0,0
70395.4,631.612,-991.638,0,0
70655.7,626.288,-994.387,0,0
70916,623.238,-991.398,0,0
71176.3,616.524,-997.317,0,0
71436.7,613.789,-995.366,0,0
71697,607.688,-998.84,0,0
71957.3,604.522,-996.73,0,0
72217.6,600.262,-996.439,0,0
72478,595.694,-997.325,0,0
72738.3,594.639,-991.714,0,0
72998.6,589.778,-993.243,0,0
73258.9,585.153,-994.094,0,0
73519.3,583.524,-989.983,0,0
73779.6,581.17,-986.627,0,0
74039.9,577.718,-985.499,0,0
74300.225,567.663,-997.165,0,0
74560.55,566.056,-993.039,0,0
74820.875,561.331,-994.328,0,0
75081.2,559.357,-990.743,0,0
75341.525,558.378,-985.842,0,0
75601.85,548.609,-994.63,0,0
75862.175,547.294,-990.048,0,0
76122.5,543.206,-989.511,0,0
76382.825,538.858,-989.872,0,0
76643.15,537.877,-984.804,0,0
76903.475,534.143,-983.78,0,0
77163.8,530.084,-983.186,0,0
77424.125,526.221,-982.523,0,0
77684.45,523.138,-980.37,0,0
77944.775,520.096,-978.41,0,0
78205.1,517.698,-975.941,0,0
78465.425,514.849,-973.719,0,0
78725.75,515.312,-967.117,0,0
78986.075,509.838,-968.767,0,0
79246.4,507.92,-965.672,0,0
79506.725,506.653,-961.628,0,0
79767.05,507.759,-954.014,0,0
80027.375,501.203,-957.84,0,0
80287.7,501.348,-951.758,0,0
80548.025,496.33,-953.17,0,0
80808.35,491.986,-953.473,0,0
81068.675,488.775,-952.169,0,0
81329.0,484.919,-951.638,0,0
81589.325,482.325,-949.355,0,0
81849.65,479.616,-947.279,0,0
82109.975,477.839,-944.121,0,0
82370.3,475.933,-940.596,0,0
82630.625,471.495,-940.986,0,0
82890.95,468.171,-939.595,0,0
83151.275,466.404,-936.174,0,0
83411.6,464.913,-932.44,0,0
83671.925,461.47,-931.396,0,0
83932.25,459.512,-928.52,0,0
84192.575,458.218,-924.492,0,0
84452.9,454.748,-923.54,0,0
84713.225,452.274,-921.312,0,0
84973.55,452.359,-915.935,0,0
85233.875,449.972,-913.842,0,0
85494.2,447,-912.64,0,0
85754.525,449.678,-904.025,0,0
86014.85,437.237,-914.674,0,0
86275.175,435.892,-911.333,0,0
86535.5,435.403,-906.875,0,0
86795.825,430.357,-907.875,0,0
87056.15,428.398,-905.056,0,0
87316.475,425.315,-903.282,0,0
87576.8,425.371,-898.236,0,0
87837.125,425.955,-892.234,0,0
88097.45,428.609,-883.726,0,0
88357.775,426.454,-880.993,0,0
88618.1,417.887,-886.203,0,0
88878.425,413.37,-886.35,0,0
89138.75,409.354,-886.208,0,0
89399.075,406.277,-885.155,0,0
89659.4,402.798,-884.563,0,0
89919.725,397.219,-886.169,0,0
90180,373.449,-906.537,0,0
90440.4,370.58,-905.088,0,0
90700.7,368.887,-902.828,0,0
90961,365.23,-902.296,0,0
91221.3,365.217,-898.475,0,0
91481.7,362.393,-897.241,0,0
91742,361.158,-894.371,0,0
92002.3,358.014,-893.695,0,0
92262.6,356.488,-891.383,0,0
92523,354.049,-889.823,0,0
92783.3,351.478,-888.119,0,0
93043.6,350.316,-885.223,0,0
93303.9,347.877,-883.605,0,0
93564.3,349.703,-877.8,0,0
93824.6,342.943,-879.986,0,0
94084.9,340.271,-878.172,0,0
94345.2,340.163,-874.071,0,0
94605.6,341.866,-868.498,0,0
94865.9,335.462,-870.222,0,0
95126.2,332.309,-869.051,0,0
95386.5,329.297,-867.712,0,0
95646.9,326.526,-866.368,0,0
95907.2,324.895,-863.707,0,0
96167.5,324.534,-860.328,0,0
96427.8,323.716,-857.215,0,0
96688.2,324.409,-852.759,0,0
96948.5,322.013,-850.686,0,0
97208.8,318.613,-849.876,0,0
97469.1,320.073,-844.451,0,0
97729.5,316.24,-844.139,0,0
97989.8,314.26,-841.921,0,0
98250.1,310.04,-841.443,0,0
98510.4,307.648,-839.638,0,0
98770.8,305.482,-837.489,0,0
99031.1,303.273,-835.582,0,0
99291.4,303.104,-831.964,0,0
99551.7,303.714,-827.759,0,0
99812.1,304.121,-823.642,0,0
100072,297.065,-825.653,0,0
100333,295.512,-823.446,0,0
100593,295.109,-820.52,0,0
100853,292.892,-818.972,0,0
101114,293.463,-815.358,0,0
101374,290.176,-814.758,0,0
101634,303.083,-800.44,0,0
101895,294.458,-804.526,0,0
102155,288.744,-805.969,0,0
102415,282.978,-807.195,0,0
102676,290.091,-798.005,0,0
102936,279.46,-803.211,0,0
103196,277.704,-801.657,0,0
103457,276.341,-799.359,0,0
103717,273.78,-797.947,0,0
103977,270.717,-797.002,0,0
104238,271.928,-792.728,0,0
104498,278.219,-784.53,0,0
104758,275.987,-783.017,0,0
105019,273.448,-781.713,0,0
105279,271.356,-780.06,0,0
105539,270.223,-777.416,0,0
105800,267.891,-775.789,0,0
106060,269.544,-770.975,0,0
106320.175,260.925,-774.058,0,0
106580.5,260.983,-770.508,0,0
106840.825,258.883,-768.7,0,0
107101.15,258.447,-765.372,0,0
107361.475,257.293,-762.834,0,0
107621.8,257.014,-759.572,0,0
107882.125,258.285,-755.178,0,0
108142.45,253.448,-755.424,0,0
108402.775,253.279,-752.272,0,0
108663.1,252.371,-749.643,0,0
108923.425,252.702,-745.982,0,0
109183.75,249.9,-744.758,0,0
109444.075,249.881,-741.559,0,0
109704.4,248.621,-739.277,0,0
109964.725,245.916,-737.86,0,0
110225.05,250.589,-730.92,0,0
110485.375,246.619,-730.809,0,0
110745.7,247.797,-726.454,0,0
111006.025,345.333,-616.855,0,0
111266.35,287.817,-684.847,0,0
111526.675,265.455,-702.455,0,0
111787.0,262.462,-701.274,0,0
112047.325,255.708,-703.376,0,0
112307.65,252.054,-702.951,0,0
112567.975,248.6,-702.487,0,0
112828.3,247.522,-700.122,0,0
113088.625,245.334,-698.727,0,0
113348.95,245.015,-695.991,0,0
113609.275,243.298,-694.006,0,0
113869.6,243.328,-690.974,0,0
114129.925,242.342,-688.648,0,0
114390.25,241.642,-686.296,0,0
114650.575,239.943,-684.49,0,0
114910.9,238.6,-682.493,0,0
115171.225,237.576,-679.937,0,0
115431.55,236.533,-677.449,0,0
115691.875,236.181,-674.644,0,0
115952.2,235.505,-672.122,0,0
116212.525,233.705,-670.381,0,0
116472.85,233.62,-667.303,0,0
116733.175,232.251,-665.225,0,0
116993.5,231.672,-662.664,0,0
117253.825,231.172,-660.226,0,0
117514.15,233.066,-655.804,0,0
117774.475,232.27,-653.526,0,0
118034.8,231.833,-651.117,0,0
118295.125,231.766,-648.5,0,0
118555.45,232.229,-645.504,0,0
118815.775,228.835,-645.459,0,0
119076.1,231.616,-640.468,0,0
119336.425,231.195,-638.371,0,0
119596.75,232.69,-634.714,0,0
119857.075,232.538,-632.132,0,0
120117.4,229.097,-632.199,0,0
120377.725,225.507,-632.707,0,0
120638.05,225.491,-630.083,0,0
120898.375,232.284,-621.924,0,0
121158.7,224.166,-625.898,0,0
121419.025,225.834,-621.812,0,0
121679.35,228.832,-616.621,0,0
121939.675,261.414,-582.609,0,0
122200.0,254.366,-587.378,0,0
122460,242.025,-596.768,0,0
122721,240.713,-595.109,0,0
122981,237.656,-594.997,0,0
123241,236.253,-593.059,0,0
123502,234.48,-591.661,0,0
123762,233.154,-589.771,0,0
124022,231.913,-587.777,0,0
124283,230.951,-585.549,0,0
124543,228.132,-585.151,0,0
124803,227.088,-583.144,0,0
125064,226.245,-581.002,0,0
125324,225.616,-578.813,0,0
125584,224.45,-577.207,0,0
125845,223.623,-575.317,0,0
126105,221.923,-574.062,0,0
126365,220.763,-572.433,0,0
126626,220.136,-570.322,0,0
126886,218.984,-568.67,0,0
127146,218.238,-566.676,0,0
127406,218.709,-563.546,0,0
127667,219.036,-560.627,0,0
127927,218.197,-558.572,0,0
128187,217.264,-556.602,0,0
128448,216.718,-554.257,0,0
128708,216.042,-552.001,0,0
128968,215.216,-549.97,0,0
129229,213.757,-548.343,0,0
129489,213.2,-545.903,0,0
129749,212.543,-543.594,0,0
130010,211.676,-541.398,0,0
130270,211.198,-538.808,0,0
130530,210.395,-536.499,0,0
130791,209.495,-534.27,0,0
131051,208.271,-532.206,0,0
131311,207.056,-529.945,0,0
131572,207.031,-526.678,0,0
131832,206.422,-523.919,0,0
132092,205.68,-521.251,0,0
132353,204.988,-518.575,0,0
132613,204.312,-516.054,0,0
132873,204.085,-513.117,0,0
133134,203.403,-510.601,0,0
133394,202.638,-508.057,0,0
133654,202.376,-505.011,0,0
133915,201.413,-502.858,0,0
134175,200.897,-500.377,0,0
134435,200.48,-497.844,0,0
134696,200.247,-495.094,0,0
134956,200.089,-492.275,0,0
135216,199.546,-489.701,0,0
135477,199.906,-486.365,0,0
135737,199.809,-483.533,0,0
135997,199.685,-480.635,0,0
136258,199.301,-478.025,0,0
136518,198.506,-476.059,0,0
136778,199.386,-472.495,0,0
137039,199.759,-469.58,0,0
137299,200.557,-466.298,0,0
137559,200.832,-463.429,0,0
137819,200.526,-461.234,0,0
138080,201.651,-457.609,0,0
138340.125,205.44,-451.248,0,0
138600.45,205.783,-448.654,0,0
138860.775,205.682,-446.478,0,0
139121.1,206.079,-443.728,0,0
139381.425,204.603,-443.009,0,0
139641.75,205.268,-439.814,0,0
139902.075,205.846,-436.791,0,0
140162.4,205.081,-435.351,0,0
140422.725,205.922,-432.046,0,0
140683.05,206.608,-428.915,0,0
140943.375,203.487,-430.453,0,0
141203.7,203.329,-428.363,0,0
141464.025,203.275,-426.036,0,0
141724.35,203.591,-423.395,0,0
141984.675,203.578,-421.045,0,0
142245.0,203.774,-418.495,0,0
142505.325,207.773,-411.071,0,0
142765.65,207.795,-408.642,0,0
143025.975,205.875,-408.856,0,0
143286.3,204.905,-407.847,0,0
143546.625,206.81,-402.978,0,0
143806.95,206.545,-400.938,0,0
144067.275,207.452,-397.257,0,0
144327.6,207.764,-394.301,0,0
144587.925,205.838,-394.523,0,0
144848.25,206.709,-390.762,0,0
145108.575,210.147,-383.287,0,0
145368.9,209.04,-382.492,0,0
145629.225,210.672,-377.607,0,0
145889.55,211.155,-374.585,0,0
146149.875,212.898,-369.433,0,0
146410.2,211.54,-368.893,0,0
146670.525,210.21,-368.843,0,0
146930.85,212.685,-362.673,0,0
147191.175,211.477,-362.499,0,0
147451.5,211.413,-360.354,0,0
147711.825,211.789,-357.756,0,0
147972.15,211.997,-355.565,0,0
148232.475,213.261,-351.469,0,0
148492.8,218.769,-338.988,0,0
148753.125,216.843,-340.957,0,0
149013.45,217.522,-337.82,0,0
149273.775,218.035,-335.258,0,0
149534.1,217.277,-335.158,0,0
149794.425,219.07,-329.56,0,0
150054.75,219.155,-327.71,0,0
150315.075,220.113,-324.104,0,0
150575.4,221.172,-320.528,0,0
150835.725,221.943,-318.13,0,0
151096.05,222.868,-315.549,0,0
151356.375,224.359,-311.8,0,0
151616.7,227.317,-303.925,0,0
151877.025,228.522,-301.387,0,0
152137.35,230.328,-296.894,0,0
152397.675,232.894,-289.85,0,0
152658.0,234.268,-288.204,0,0
152918.325,236.264,-284.418,0,0
153178.65,237.953,-282.793,0,0
153438.975,239.78,-281.034,0,0
153699.3,242.083,-276.911,0,0
153959.625,244.492,-272.548,0,0
154219.95,246.809,-269.197,0,0
154480,250.39,-246.98,0,0
154741,252.672,-245.933,0,0
155001,255.083,-242.393,0,0
155261,257.589,-239.114,0,0
155522,260.214,-235.649,0,0
155782,263.097,-233.808,0,0
156042,266.105,-231.565,0,0
156303,269.187,-228.963,0,0
156563,272.309,-226.018,0,0
156823,275.619,-224.526,0,0
157084,278.879,-223.597,0,0
157344,282.161,-223.476,0,0
157604,285.46,-222.918,0,0
157864,288.809,-221.897,0,0
158125,292.541,-222.409,0,0
158385,296.038,-220.857,0,0
158645,299.522,-218.892,0,0
158906,303.009,-216.308,0,0
159166,306.593,-213.841,0,0
159426,310.393,-211.641,0,0
159687,314.091,-209.043,0,0
159947,318.056,-206.831,0,0
160207,322.01,-204.583,0,0
160468,325.974,-202.148,0,0
160728,329.965,-199.724,0,0
160988,334.525,-198.311,0,0
161249,338.821,-196.214,0,0
161509,341.997,-192.243,0,0
161769,347.154,-191.829,0,0
162030,350.649,-188.699,0,0
162290,355.084,-187.298,0,0
162550,359.608,-186.023,0,0
162811,364.075,-184.768,0,0
163071,368.766,-183.882,0,0
163331,373.423,-183.164,0,0
163592,377.813,-182.44,0,0
163852,382.129,-181.871,0,0
164112,387.028,-182.315,0,0
164373,390.959,-181.806,0,0
164633,395.59,-182.283,0,0
164893,399.768,-182.426,0,0
165154,404.394,-183.2,0,0
165414,408.036,-183.008,0,0
165674,412.091,-183.32,0,0
165935,415.253,-182.753,0,0
166195,419.075,-182.912,0,0
166455,422.82,-183.163,0,0
166716,426.256,-182.953,0,0
166976,430.175,-183.324,0,0
167236,433.932,-183.578,0,0
167497,437.644,-183.987,0,0
167757,440.977,-184.102,0,0
168017,444.544,-184.55,0,0
168277,447.733,-184.71,0,0
168538,450.328,-184.235,0,0
168798,454.188,-185.24,0,0
169058,457.175,-185.25,0,0
169319,460.48,-185.618,0,0
169579,463.898,-185.959,0,0
169839,469.029,-188.035,0,0
170100,472.632,-188.852,0,0
170360.075,478.236,-191.61,0,0
170620.4,481.346,-191.872,0,0
170880.725,483.798,-191.808,0,0
171141.05,487.491,-192.945,0,0
171401.375,490.665,-193.866,0,0
171661.7,493.792,-194.685,0,0
171922.025,496.132,-194.764,0,0
172182.35,499.571,-195.853,0,0
172442.675,501.683,-196.039,0,0
172703.0,504.201,-196.625,0,0
172963.325,506.56,-197.113,0,0
173223.65,509.185,-197.927,0,0
173483.975,511.109,-198.273,0,0
173744.3,513.122,-198.591,0,0
174004.625,515.226,-199.081,0,0
174264.95,519.925,-201.971,0,0
174525.275,522.656,-202.792,0,0
174785.6,525.336,-203.537,0,0
175045.925,529.111,-205.383,0,0
175306.25,531.752,-206.032,0,0
175566.575,532.863,-205.298,0,0
175826.9,537.409,-207.843,0,0
176087.225,540.066,-208.625,0,0
176347.55,542.499,-209.095,0,0
176607.875,544.906,-209.529,0,0
176868.2,548.878,-211.319,0,0
177128.525,551.155,-211.511,0,0
177388.85,552.79,-211.209,0,0
177649.175,555.021,-211.724,0,0
177909.5,559.27,-214.135,0,0
178169.825,561.129,-214.399,0,0
178430.15,563.658,-215.384,0,0
178690.475,567.823,-218.125,0,0
178950.8,570.549,-219.498,0,0
179211.125,572.764,-220.457,0,0
179471.45,574.641,-221.136,0,0
179731.775,578.389,-223.549,0,0
179992.1,581.148,-225.217,0,0
180252.425,585.856,-228.647,0,0
180512.75,587.426,-228.963,0,0
180773.075,590.057,-230.26,0,0
181033.4,590.617,-229.538,0,0
181293.725,593.389,-230.494,0,0
181554.05,596.376,-231.632,0,0
181814.375,599.289,-232.669,0,0
182074.7,602.966,-234.181,0,0
182335.025,605.71,-234.944,0,0
182595.35,610.03,-237.064,0,0
182855.675,612.371,-237.329,0,0
183116.0,614.488,-237.741,0,0
183376.325,617.275,-238.669,0,0
183636.65,620.85,-240.391,0,0
183896.975,621.541,-239.518,0,0
184157.3,625.536,-241.72,0,0
184417.625,627.991,-242.75,0,0
184677.95,632.306,-245.492,0,0
184938.275,568.707,-188.149,0,0
185198.6,619.695,-231.011,0,0
185458.925,624.605,-234.237,0,0
185719.25,630.245,-237.915,0,0
185979.575,633.69,-239.687,0,0
186239.9,636.509,-240.843,0,0
186500,645.254,-247.25,0,0
186761,649.903,-249.868,0,0
187021,652.682,-250.733,0,0
187281,656.404,-252.374,0,0
187542,659.844,-253.517,0,0
187802,663.27,-254.438,0,0
188062,666.126,-254.75,0,0
188322,670.327,-255.947,0,0
188583,675.184,-257.739,0,0
188843,678.905,-258.363,0,0
189103,683.233,-259.443,0,0
189364,687.593,-260.582,0,0
189624,692.2,-261.842,0,0
189884,697.094,-263.455,0,0
190145,702.054,-265.182,0,0
190405,706.759,-266.542,0,0
190665,712.871,-269.376,0,0
190926,719.198,-272.301,0,0
191186,724.16,-274.323,0,0
191446,729.812,-277.019,0,0
191707,734.809,-279.435,0,0
191967,740.991,-282.982,0,0
192227,746.77,-286.51,0,0
192488,752.828,-290.498,0,0
192748,759.772,-295.609,0,0
193008,764.719,-299.15,0,0
193269,766.163,-299.808,0,0
193529,773.274,-306.026,0,0
193789,787.182,-319.292,0,0
194050,792.219,-324.503,0,0
194310,799.718,-332.718,0,0
194570,807.191,-341.241,0,0
194831,813.607,-349.166,0,0
195091,819.604,-357.164,0,0
195351,825.389,-365.601,0,0
195612,831.272,-374.428,0,0
195872,836.181,-382.889,0,0
196132,842.941,-394.002,0,0
196393,843.657,-398.596,0,0
196653,844.049,-402.861,0,0
196913,853.286,-419.088,0,0
197174,859.823,-432.971,0,0
197434,864.206,-444.861,0,0
197694,869.367,-458.51,0,0
197955,871.295,-468.127,0,0
198215,873.272,-478.613,0,0
198475,874.246,-488.083,0,0
198735,876.796,-501.066,0,0
198996,875.04,-506.445,0,0
199256,876.366,-518.508,0,0
199516,874.339,-524.742,0,0
199777,878.604,-544.439,0,0
200037,874.081,-546.891,0,0
200297,873.858,-558.622,0,0
200558,871.719,-566.715,0,0
200818,868.816,-573.844,0,0
201078,867.338,-585.09,0,0
201339,865.209,-595.504,0,0
201599,862.959,-606.045,0,0
201859,859.552,-614.737,0,0
202120,856.014,-623.971,0,0
202380.025,851.561,-629.625,0,0
202640.35,845.458,-630.445,0,0
202900.675,838.984,-630.433,0,0
203161.0,835.425,-640.502,0,0
203421.325,835.221,-667.809,0,0
203681.65,799.776,-561.722,0,0
203941.975,802.08,-587.273,0,0
204202.3,801.531,-606.34,0,0
204462.625,796.342,-609.426,0,0
204722.95,794.27,-626.839,0,0
204983.275,789.824,-635.152,0,0
205243.6,785.86,-647.241,0,0
205503.925,782.993,-668.307,0,0
205764.25,778.702,-685.186,0,0
206024.575,772.804,-691.966,0,0
206284.9,766.813,-698.703,0,0
206545.225,760.455,-701.708,0,0
206805.55,753.95,-707.182,0,0
207065.875,747.699,-715.585,0,0
207326.2,741.206,-722.052,0,0
207586.525,734.508,-724.95,0,0
207846.85,727.756,-731.172,0,0
208107.175,721.155,-734.41,0,0
208367.5,714.223,-741.149,0,0
208627.825,707.418,-743.067,0,0
208888.15,700.624,-747.956,0,0
209148.475,693.721,-751.617,0,0
209408.8,686.782,-755.511,0,0
209669.125,679.711,-760.721,0,0
209929.45,672.911,-763.664,0,0
210189.775,665.679,-766.556,0,0
210450.1,659.085,-766.86,0,0
210710.425,651.608,-771.484,0,0
210970.75,644.059,-776.034,0,0
211231.075,636.372,-781.055,0,0
211491.4,629.828,-781.417,0,0
211751.725,622.394,-785.484,0,0
212012.05,615.399,-786.84,0,0
212272.375,607.626,-790.93,0,0
212532.7,600.181,-795.167,0,0
212793.025,594.465,-792.621,0,0
213053.35,587.393,-794.771,0,0
213313.675,580.718,-795.447,0,0
213574.0,573.909,-796.637,0,0
213834.325,567.533,-796.375,0,0
214094.65,561.432,-795.888,0,0
214354.975,555.218,-795.568,0,0
214615.3,548.597,-797.204,0,0
214875.625,541.916,-798.163,0,0
215135.95,536.223,-795.853,0,0
215396.275,530.387,-795.811,0,0
215656.6,517.109,-810.923,0,0
215916.925,507.191,-818.08,0,0
216177.25,497.767,-823.729,0,0
216437.575,493.354,-819.866,0,0
216697.9,484.568,-824.141,0,0
216958.225,478.566,-823.366,0,0
217218.55,472.791,-822.25,0,0
217478.875,467.098,-821.113,0,0
217739.2,461.169,-820.19,0,0
217999.525,456.239,-817.842,0,0
218259.85,450.862,-816.28,0,0
218520,455.293,-799.362,0,0
218780,440.29,-813.143,0,0
219041,434.144,-812.718,0,0
219301,438.809,-796.207,0,0
219561,438.748,-786.827,0,0
219822,431.097,-789.191,0,0
220082,424.954,-789.165,0,0
220342,421.658,-785.583,0,0
220603,418.5,-781.553,0,0
220863,416.582,-775.783,0,0
221123,413.472,-771.815,0,0
221384,407.513,-772.246,0,0
221644,416.376,-750.686,0,0
221904,407.64,-756.257,0,0
222165,398.815,-761.279,0,0
222425,396.322,-757.401,0,0
222685,394.113,-753.298,0,0
222946,375.519,-770.956,0,0
223206,372.413,-768.241,0,0
223466,390.899,-736.555,0,0
223727,392.16,-728.041,0,0
223987,364.624,-759.003,0,0
224247,362.31,-755.89,0,0
224508,360.232,-752.575,0,0
224768,357.862,-749.918,0,0
225028,372.807,-724.634,0,0
225289,363.892,-730.958,0,0
225549,352.003,-740.79,0,0
225809,350.284,-737.777,0,0
226070,348.616,-734.958,0,0
226330,347.109,-732.013,0,0
226590,345.491,-729.4,0,0
226851,359.345,-707.178,0,0
227111,342.878,-723.823,0,0
227371,341.569,-721.087,0,0
227632,340.38,-718.496,0,0
227892,356.796,-693.341,0,0
228152,360.768,-683.635,0,0
228413,350.93,-693.296,0,0
228673,362.227,-673.816,0,0
228933,357.619,-676.665,0,0
229193,354.424,-677.67,0,0
229454,351.589,-678.43,0,0
229714,352.587,-673.585,0,0
229974,353.484,-669.205,0,0
230235,350.493,-670.11,0,0
230495,350.019,-667.944,0,0
230755,349.638,-665.51,0,0
231016,349.331,-663.12,0,0
231276,348.211,-661.85,0,0
231536,346.254,-661.833,0,0
231797,346.324,-659.23,0,0
232057,345.789,-657.433,0,0
232317,343.81,-657.923,0,0
232578,342.589,-657.373,0,0
232838,342.747,-655.079,0,0
233098,341.799,-654.457,0,0
233359,351.859,-637.538,0,0
233619,413.49,-480.677,0,0
233879,401.607,-525.921,0,0
234140,396.635,-538.512,0,0
234400,394.018,-543.894,0,0
234660.3,386.287,-562.153,0,0
234920.625,388.253,-555.398,0,0
235180.95,390.774,-547.28,0,0
235441.275,389.673,-548.712,0,0
235701.6,387.028,-554.152,0,0
235961.925,390.031,-544.908,0,0
236222.25,389.57,-544.579,0,0
236482.575,390.114,-542.153,0,0
236742.9,390.28,-540.68,0,0
237003.225,390.748,-538.674,0,0
237263.55,391.195,-536.875,0,0
237523.875,390.496,-538.536,0,0
237784.2,390.409,-538.255,0,0
238044.525,391.636,-534.642,0,0
238304.85,390.823,-537.264,0,0
238565.175,392.337,-532.93,0,0
238825.5,392.686,-532.221,0,0
239085.825,392.727,-532.546,0,0
239346.15,392.608,-533.158,0,0
239606.475,393.399,-531.982,0,0
239866.8,391.85,-536.916,0,0
240127.125,391.145,-539.805,0,0
240387.45,392.262,-537.312,0,0
240647.775,392.887,-536.06,0,0
240908.1,392.541,-537.606,0,0
241168.425,392.038,-539.599,0,0
241428.75,393.82,-535.349,0,0
241689.075,391.999,-541.659,0,0
241949.4,392.087,-541.735,0,0
242209.725,390.233,-547.574,0,0
242470.05,388.951,-551.682,0,0
242730.375,389.673,-550.392,0,0
242990.7,387.645,-555.955,0,0
243251.025,389.728,-550.743,0,0
243511.35,389.114,-552.798,0,0
243771.675,387.083,-558.123,0,0
244032.0,384.28,-564.707,0,0
244292.325,379.014,-577.138,0,0
244552.65,380.261,-573.652,0,0
244812.975,377.661,-579.137,0,0
245073.3,374.793,-584.645,0,0
245333.625,370.139,-593.301,0,0
245593.95,370.46,-591.971,0,0
245854.275,370.354,-591.171,0,0
246114.6,368.68,-593.654,0,0
246374.925,367.139,-595.451,0,0
246635.25,366.964,-594.34,0,0
246895.575,366.516,-593.599,0,0
247155.9,364.571,-595.613,0,0
247416.225,362.524,-597.718,0,0
247676.55,362.104,-596.673,0,0
247936.875,360.815,-596.701,0,0
248197.2,360.104,-596.102,0,0
248457.525,358.419,-597.025,0,0
248717.85,357.414,-596.607,0,0
248978.175,357.133,-594.859,0,0
249238.5,357.535,-592.147,0,0
249498.825,356.874,-591.562,0,0
249759.15,358.259,-587.594,0,0
250019.475,359.236,-585.003,0,0
250279.8,359.218,-584.573,0,0
250540,359.197,-585.682,0,0
250800,361.088,-583.28,0,0
251061,362.932,-581.636,0,0
251321,363.323,-583.71,0,0
251581,364.683,-584.585,0,0
251842,366.431,-585.262,0,0
252102,368.187,-586.25,0,0
252362,369.614,-588.231,0,0
252623,370.559,-591.14,0,0
252883,372.137,-592.589,0,0
253143,373.384,-594.69,0,0
253404,374.937,-595.607,0,0
253664,375.893,-597.572,0,0
253924,376.501,-599.786,0,0
254185,376.372,-602.931,0,0
254445,376.079,-606.044,0,0
254705,376.459,-607.15,0,0
254966,376.154,-609.378,0,0
255226,375.737,-611.471,0,0
255486,374.201,-615.009,0,0
255747,372.834,-617.785,0,0
256007,371.168,-620.679,0,0
256267,370.132,-621.876,0,0
256528,367.725,-625.055,0,0
256788,365.37,-627.794,0,0
257048,363.279,-629.836,0,0
257309,360.727,-632.255,0,0
257569,358.806,-633.337,0,0
257829,355.428,-636.519,0,0
258090,353.472,-637.183,0,0
258350,350.218,-639.562,0,0
258610,347.607,-640.744,0,0
258871,344.526,-642.513,0,0
259131,341.023,-644.703,0,0
259391,339.157,-644.182,0,0
259651,335.615,-645.949,0,0
259912,333.218,-646.192,0,0
260172,328.937,-648.526,0,0
260432,326.687,-648.492,0,0
260693,324.11,-648.561,0,0
260953,320.372,-650.449,0,0
261213,317.39,-650.945,0,0
261474,314.662,-651.142,0,0
261734,312.103,-651.019,0,0
261994,310.281,-650.039,0,0
262255,306.848,-651.008,0,0
262515,304.973,-650.074,0,0
262775,302.301,-650.063,0,0
263036,298.612,-651.247,0,0
263296,295.353,-651.871,0,0
263556,292.23,-652.26,0,0
263817,290.53,-651.252,0,0
264077,288.533,-650.317,0,0
264337,285.917,-650.189,0,0
264598,284.467,-648.807,0,0
264858,283.066,-647.558,0,0
265118,279.989,-648.011,0,0
265379,277.691,-647.465,0,0
265639,276.28,-646.465,0,0
265899,274.087,-645.668,0,0
266160,272.979,-644.236,0,0
266420,269.394,-645.206,0,0
266680.25,266.614,-645.501,0,0
266940.575,265.621,-644.002,0,0
267200.9,263.339,-643.739,0,0
267461.225,260.67,-643.889,0,0
267721.55,257.856,-644.189,0,0
267981.875,256.738,-643.037,0,0
268242.2,255.558,-641.748,0,0
268502.525,253.708,-641.334,0,0
268762.85,251.112,-641.515,0,0
269023.175,248.974,-641.271,0,0
269283.5,251.74,-636.774,0,0
269543.825,251.424,-634.878,0,0
269804.15,247.952,-635.96,0,0
270064.475,244.796,-636.755,0,0
270324.8,242.326,-636.964,0,0
270585.125,241.64,-635.517,0,0
270845.45,240.687,-634.116,0,0
271105.775,240.568,-632.07,0,0
271366.1,238.374,-631.865,0,0
271626.425,235.187,-632.478,0,0
271886.75,235.405,-629.988,0,0
272147.075,232.431,-630.448,0,0
272407.4,231.144,-629.265,0,0
272667.725,228.986,-628.882,0,0
272928.05,227.162,-628.165,0,0
273188.375,227.146,-626.02,0,0
273448.7,225.082,-625.421,0,0
273709.025,223.48,-624.55,0,0
273969.35,224.042,-621.809,0,0
274229.675,221.976,-621.214,0,0
274490.0,220.067,-620.476,0,0
274750.325,216.802,-620.927,0,0
275010.65,215.213,-619.755,0,0
275270.975,215.093,-617.634,0,0
275531.3,214.825,-615.584,0,0
275791.625,211.987,-615.532,0,0
276051.95,208.415,-615.903,0,0
276312.275,208,-613.984,0,0
276572.6,206.926,-612.531,0,0
276832.925,203.785,-612.536,0,0
277093.25,202.221,-611.371,0,0
277353.575,202.308,-608.968,0,0
277613.9,198.844,-609.18,0,0
277874.225,197.682,-607.771,0,0
278134.55,197.94,-605.208,0,0
278394.875,176.958,-616.777,0,0
278655.2,174.908,-615.871,0,0
278915.525,191.061,-603.317,0,0
279175.85,193.551,-599.438,0,0
279436.175,178.929,-606.81,0,0
279696.5,174.136,-607.668,0,0
279956.825,159.895,-613.683,0,0
280217.15,187.821,-594.703,0,0
280477.475,154.091,-612.837,0,0
280737.8,175.484,-598.698,0,0
280998.125,175.722,-596.731,0,0
281258.45,152.479,-608.304,0,0
281518.775,169.934,-596.774,0,0
281779.1,151.725,-605.393,0,0
282039.425,167.128,-595.322,0,0
282299.75,166.874,-593.941,0,0
282560,163.634,-594.46,0,0
282820,163.33,-593.228,0,0
283081,163.241,-591.867,0,0
283341,161.362,-591.598,0,0
283601,166.996,-586.856,0,0
283862,165.629,-586.482,0,0
284122,165.204,-585.424,0,0
284382,165.328,-584.083,0,0
284643,165.083,-583.033,0,0
284903,164.2,-582.281,0,0
285163,162.749,-581.774,0,0
285424,163.747,-579.942,0,0
285684,161.94,-579.828,0,0
285944,162.031,-578.518,0,0
286205,161.508,-577.661,0,0
286465,160.362,-577.081,0,0
286725,159.803,-576.155,0,0
286986,159.512,-575.16,0,0
287246,159.123,-574.24,0,0
287506,157.869,-573.825,0,0
287767,158.169,-572.527,0,0
288027,157.924,-571.619,0,0
288287,157.368,-570.925,0,0
288548,156.044,-570.696,0,0
288808,156.262,-569.541,0,0
289068,155.905,-568.75,0,0
289329,155.747,-567.943,0,0
289589,155.072,-567.445,0,0
289849,154.763,-566.772,0,0
290109,154.536,-565.869,0,0
290370,153.671,-565.518,0,0
290630,153.174,-564.894,0,0
290890,152.663,-564.304,0,0
291151,152.266,-563.567,0,0
291411,152.195,-562.569,0,0
291671,151.899,-561.8,0,0
291932,151.026,-561.24,0,0
292192,150.439,-560.498,0,0
292452,149.538,-559.916,0,0
292713,149.052,-559.187,0,0
292973,148.003,-558.636,0,0
293233,147.963,-557.54,0,0
293494,146.979,-556.987,0,0
293754,145.64,-556.638,0,0
294014,148.168,-554.048,0,0
294275,145.013,-554.623,0,0
294535,144.515,-553.76,0,0
294795,144.234,-552.644,0,0
295056,142.639,-552.33,0,0
295316,143.159,-550.774,0,0
295576,142.241,-550.061,0,0
295837,141.352,-549.309,0,0
296097,140.423,-548.521,0,0
296357,140.284,-547.378,0,0
296618,139.176,-546.688,0,0
296878,138.9,-545.608,0,0
297138,139.527,-544.035,0,0
297399,138.917,-543.159,0,0
297659,139.426,-541.716,0,0
297919,139.103,-540.749,0,0
298180,138.578,-539.913,0,0
298440,138.223,-539.086,0,0
298700.2,136.964,-538.761,0,0
298960.525,136.95,-537.906,0,0
299220.85,136.821,-537.039,0,0
299481.175,137.177,-536.096,0,0
299741.5,136.659,-535.488,0,0
300001.825,137.28,-534.414,0,0
300262.15,136.794,-533.894,0,0
300522.475,136.515,-533.389,0,0
300782.8,136.258,-532.768,0,0
301043.125,135.836,-532.353,0,0
301303.45,135.65,-531.782,0,0
301563.775,135.227,-531.27,0,0
301824.1,135.153,-530.663,0,0
302084.425,134.97,-530.026,0,0
302344.75,134.712,-529.559,0,0
302605.075,134.534,-528.868,0,0
302865.4,134.719,-528.088,0,0
303125.725,134.377,-527.57,0,0
303386.05,134.305,-526.891,0,0
303646.375,134.203,-526.215,0,0
303906.7,134.043,-525.54,0,0
304167.025,133.713,-524.937,0,0
304427.35,132.808,-524.552,0,0
304687.675,132.373,-524.075,0,0
304948.0,132.227,-523.257,0,0
305208.325,131.932,-522.61,0,0
305468.65,130.862,-522.412,0,0
305728.975,130.359,-521.814,0,0
305989.3,129.926,-521.216,0,0
306249.625,130.442,-520.054,0,0
306509.95,129.078,-519.95,0,0
306770.275,128.969,-519.098,0,0
307030.6,128.133,-518.672,0,0
307290.925,129.138,-517.241,0,0
307551.25,128.945,-516.443,0,0
307811.575,128.496,-515.759,0,0
308071.9,128.592,-514.8,0,0
308332.225,127.045,-514.756,0,0
308592.55,126.674,-514.046,0,0
308852.875,126.726,-513.089,0,0
309113.2,126.519,-512.263,0,0
309373.525,125.386,-511.892,0,0
309633.85,125.625,-510.929,0,0
309894.175,124.54,-510.547,0,0
310154.5,124.913,-509.437,0,0
310414.825,124.22,-508.9,0,0
310675.15,124.416,-507.961,0,0
310935.475,124.131,-507.281,0,0
311195.8,124.25,-506.272,0,0
311456.125,123.264,-505.861,0,0
311716.45,123.347,-504.901,0,0
311976.775,122.656,-504.434,0,0
312237.1,122.069,-503.836,0,0
312497.425,121.243,-503.326,0,0
312757.75,121.395,-502.357,0,0
313018.075,121.075,-501.708,0,0
313278.4,120.135,-501.198,0,0
313538.725,120.597,-500.123,0,0
313799.05,120.337,-499.37,0,0
314059.375,120.116,-498.549,0,0
314319.7,119.289,-498.072,0,0
314580,120.404,-496.73,0,0
314840,123.281,-494.406,0,0
315101,119.404,-495.532,0,0
315361,114.095,-497.141,0,0
315621,112.885,-496.866,0,0
315882,113.856,-495.588,0,0
316142,114.429,-494.459,0,0
316402,114.052,-493.794,0,0
316663,114.514,-492.733,0,0
316923,113.291,-492.54,0,0
317183,113.074,-491.891,0,0
317444,112.985,-491.022,0,0
317704,111.719,-490.773,0,0
317964,111.751,-489.971,0,0
318225,111.532,-489.261,0,0
318485,111.585,-488.531,0,0
318745,111.095,-487.911,0,0
319006,110.492,-487.528,0,0
319266,110.109,-486.783,0,0
319526,110.031,-486.027,0,0
319787,107.791,-486.378,0,0
320047,107.114,-485.925,0,0
320307,106.889,-485.307,0,0
320567,106.506,-484.738,0,0
320828,105.916,-484.221,0,0
321088,105.407,-483.795,0,0
321348,105.535,-483.012,0,0
321609,105.543,-482.222,0,0
321869,105.128,-481.776,0,0
322129,105.108,-481.062,0,0
322390,104.528,-480.641,0,0
322650,102.209,-480.921,0,0
322910,105.287,-478.905,0,0
323171,104.431,-478.656,0,0
323431,104.578,-477.911,0,0
323691,105.085,-476.927,0,0
323952,104.794,-476.405,0,0
324212,104.961,-475.64,0,0
324472,104.815,-474.971,0,0
324733,104.929,-474.2,0,0
324993,103.848,-474.013,0,0
325253,104.135,-473.158,0,0
325514,103.926,-472.537,0,0
325774,103.556,-472.026,0,0
326034,103.354,-471.308,0,0
326295,102.195,-471.129,0,0
326555,101.649,-470.589,0,0
326815,102.231,-469.616,0,0
327076,101.275,-469.301,0,0
327336,101.564,-468.423,0,0
327596,99.9635,-468.346,0,0
327857,100.417,-467.452,0,0
328117,99.3946,-467.091,0,0
328377,99.728,-466.154,0,0
328638,99.5375,-465.498,0,0
328898,99.0284,-464.942,0,0
329158,99.2237,-464.123,0,0
329419,98.4898,-463.678,0,0
329679,98.1765,-463.001,0,0
329939,97.723,-462.428,0,0
330200,98.6165,-461.294,0,0
330460,98.3062,-460.637,0,0
330720.15,97.5564,-460.279,0,0
330980.475,96.9019,-459.823,0,0
331240.8,96.6096,-459.201,0,0
331501.125,96.3921,-458.521,0,0
331761.45,95.8581,-457.972,0,0
332021.775,95.8345,-457.215,0,0
332282.1,95.6618,-456.543,0,0
332542.425,95.5082,-455.89,0,0
332802.75,95.1895,-455.303,0,0
333063.075,94.6813,-454.779,0,0
333323.4,94.4921,-454.119,0,0
333583.725,94.4141,-453.509,0,0
333844.05,94.1061,-452.888,0,0
334104.375,94.0812,-452.183,0,0
334364.7,93.951,-451.571,0,0
334625.025,93.6589,-450.938,0,0
334885.35,93.1483,-450.419,0,0
335145.675,93.0179,-449.812,0,0
335406.0,92.8206,-449.192,0,0
335666.325,92.896,-448.51,0,0
335926.65,92.5477,-447.947,0,0
336186.975,92.421,-447.334,0,0
336447.3,92.4673,-446.606,0,0
336707.625,92.0759,-446.073,0,0
336967.95,91.6696,-445.567,0,0
337228.275,91.4904,-444.931,0,0
337488.6,91.5642,-444.308,0,0
337748.925,91.064,-443.731,0,0
338009.25,91.0805,-443.14,0,0
338269.575,90.7002,-442.587,0,0
338529.9,90.7878,-441.825,0,0
338790.225,90.4064,-441.335,0,0
339050.55,90.1845,-440.782,0,0
339310.875,89.9404,-440.218,0,0
339571.2,89.6351,-439.681,0,0
339831.525,89.5834,-438.999,0,0
340091.85,89.4055,-438.385,0,0
340352.175,89.2561,-437.83,0,0
340612.5,88.8594,-437.379,0,0
340872.825,89.3473,-436.441,0,0
341133.15,89.2502,-435.817,0,0
341393.475,88.1213,-435.654,0,0
341653.8,87.8907,-435.127,0,0
341914.125,87.5247,-434.607,0,0
342174.45,87.2602,-434.081,0,0
342434.775,87.1079,-433.451,0,0
342695.1,86.8527,-432.907,0,0
342955.425,86.7523,-432.289,0,0
343215.75,86.3933,-431.862,0,0
343476.075,86.0203,-431.313,0,0
343736.4,86.0684,-430.644,0,0
343996.725,85.9725,-430.116,0,0
344257.05,85.5081,-429.649,0,0
344517.375,85.3634,-428.992,0,0
344777.7,85.1995,-428.444,0,0
345038.025,84.9403,-427.953,0,0
345298.35,84.7716,-427.394,0,0
345558.675,84.5739,-426.867,0,0
345819.0,84.3859,-426.314,0,0
346079.325,84.4607,-425.713,0,0
346339.65,84.3203,-425.083,0,0
346599.975,84.1915,-424.553,0,0
346860,83.1786,-424.355,0,0
347121,83.2779,-423.688,0,0
347381,83.3494,-423.04,0,0
347641,83.0917,-422.567,0,0
347902,82.8851,-422.021,0,0
348162,82.6583,-421.499,0,0
348422,80.5839,-421.727,0,0
348683,82.1099,-420.484,0,0
348943,81.8688,-419.955,0,0
349203,81.7121,-419.39,0,0
349464,81.5621,-418.821,0,0
349724,81.1172,-418.404,0,0
349984,81.0085,-417.858,0,0
350245,81.0031,-417.243,0,0
350505,80.7948,-416.703,0,0
350765,80.6725,-416.145,0,0
351025,80.5846,-415.567,0,0
351286,80.3547,-414.994,0,0
351546,80.0974,-414.506,0,0
351806,79.8546,-414.015,0,0
352067,79.8378,-413.437,0,0
352327,79.6872,-412.84,0,0
352587,79.6441,-412.195,0,0
352848,79.4282,-411.713,0,0
353108,79.4854,-411.064,0,0
353368,79.3789,-410.519,0,0
353629,78.9054,-410.044,0,0
353889,78.9295,-409.447,0,0
354149,78.8747,-408.892,0,0
354410,78.5297,-408.399,0,0
354670,78.3418,-407.818,0,0
354930,78.2778,-407.194,0,0
355191,78.245,-406.602,0,0
355451,78.051,-406.038,0,0
355711,77.4607,-405.667,0,0
355972,77.3613,-405.123,0,0
356232,77.5925,-404.382,0,0
356492,76.7288,-404.065,0,0
356753,77.0757,-403.352,0,0
357013,76.7794,-402.82,0,0
357273,76.7302,-402.195,0,0
357534,76.1208,-401.848,0,0
357794,76.2029,-401.155,0,0
358054,75.5611,-400.831,0,0
358315,77.0085,-399.616,0,0
358575,75.8433,-399.448,0,0
358835,75.6959,-398.872,0,0
359096,75.3529,-398.403,0,0
359356,74.9958,-397.945,0,0
359616,75.6349,-397.028,0,0
359877,74.3728,-396.818,0,0
360137,74.4343,-396.211,0,0
360397,74.8724,-395.416,0,0
360658,74.5263,-394.909,0,0
360918,74.4082,-394.312,0,0
361178,74.4289,-393.703,0,0
361438,72.8063,-393.678,0,0
361699,73.4924,-392.79,0,0
361959,73.5057,-392.173,0,0
362219,73.5133,-391.536,0,0
362480,73.3226,-390.993,0,0
362740.1,73.1332,-390.417,0,0
363000.425,73.1333,-389.815,0,0
363260.75,72.9626,-389.27,0,0
363521.075,72.9296,-388.636,0,0
363781.4,72.7771,-388.061,0,0
364041.725,72.6948,-387.45,0,0
364302.05,72.6322,-386.888,0,0
364562.375,72.5529,-386.251,0,0
364822.7,72.5279,-385.673,0,0
365083.025,72.6109,-384.972,0,0
365343.35,72.3519,-384.493,0,0
365603.675,72.2902,-383.884,0,0
365864.0,72.1982,-383.292,0,0
366124.325,72.3309,-382.606,0,0
366384.65,72.1693,-382.028,0,0
366644.975,71.9998,-381.515,0,0
366905.3,71.8926,-380.95,0,0
367165.625,71.9056,-380.32,0,0
367425.95,71.6121,-379.784,0,0
367686.275,71.9448,-379.1,0,0
367946.6,72.0013,-378.444,0,0
368206.925,71.9153,-377.883,0,0
368467.25,71.9639,-377.295,0,0
368727.575,72.0371,-376.657,0,0
368987.9,71.9577,-376.09,0,0
369248.225,71.9274,-375.495,0,0
369508.55,71.8577,-374.966,0,0
369768.875,71.8375,-374.391,0,0
370029.2,71.8614,-373.784,0,0
370289.525,71.8224,-373.241,0,0
370549.85,71.9685,-372.612,0,0
370810.175,71.8262,-372.113,0,0
371070.5,71.9946,-371.488,0,0
371330.825,72.0341,-370.93,0,0
371591.15,71.9675,-370.398,0,0
371851.475,72.019,-369.835,0,0
372111.8,72.0283,-369.342,0,0
372372.125,72.0828,-368.775,0,0
372632.45,72.1066,-368.279,0,0
372892.775,72.207,-367.737,0,0
373153.1,72.2288,-367.196,0,0
373413.425,72.2233,-366.701,0,0
373673.75,72.4004,-366.158,0,0
373934.075,72.348,-365.698,0,0
374194.4,72.5351,-365.192,0,0
374454.725,72.5937,-364.709,0,0
374715.05,72.4909,-364.297,0,0
374975.375,72.5777,-363.845,0,0
375235.7,72.6473,-363.421,0,0
375496.025,72.6135,-363.003,0,0
375756.35,72.6667,-362.516,0,0
376016.675,72.7084,-362.148,0,0
376277.0,72.7765,-361.726,0,0
376537.325,72.8854,-361.254,0,0
376797.65,72.6993,-360.904,0,0
377057.975,72.6595,-360.512,0,0
377318.3,72.7155,-360.074,0,0
377578.625,72.6006,-359.663,0,0
377838.95,72.6962,-359.203,0,0
378099.275,72.6725,-358.74,0,0
378359.6,72.6733,-358.296,0,0
378619.925,72.445,-357.884,0,0
378880,72.3931,-357.428,0,0
379141,72.3201,-356.934,0,0
379401,72.2753,-356.458,0,0
379661,72.1779,-355.936,0,0
379922,72.0537,-355.424,0,0
380182,71.8589,-354.974,0,0
380442,71.7575,-354.486,0,0
380703,71.6852,-353.932,0,0
380963,71.7253,-353.407,0,0
381223,71.6962,-352.814,0,0
381483,71.483,-352.417,0,0
381744,71.5261,-351.827,0,0
382004,71.5012,-351.384,0,0
382264,71.6692,-350.789,0,0
382525,71.5693,-350.358,0,0
382785,71.5405,-349.871,0,0
383045,71.4844,-349.414,0,0
383306,71.4346,-348.952,0,0
383566,71.4335,-348.451,0,0
383826,71.3263,-347.978,0,0
384087,71.2538,-347.509,0,0
384347,71.2498,-346.972,0,0
384607,71.1328,-346.503,0,0
384868,71.0157,-346.038,0,0
385128,70.8971,-345.541,0,0
385388,70.7693,-345.035,0,0
385649,70.6403,-344.554,0,0
385909,70.4851,-344.011,0,0
386169,70.6381,-343.394,0,0
386430,70.5472,-342.831,0,0
386690,70.5628,-342.297,0,0
386950,70.4168,-341.773,0,0
387211,70.3724,-341.22,0,0
387471,70.3382,-340.676,0,0
387731,70.2726,-340.122,0,0
387992,70.203,-339.598,0,0
388252,70.2197,-338.987,0,0
388512,70.1472,-338.448,0,0
388773,70.0003,-337.928,0,0
389033,69.7662,-337.435,0,0
389293,69.971,-336.732,0,0
389554,69.728,-336.249,0,0
389814,69.9057,-335.64,0,0
390074,69.8774,-335.053,0,0
390335,69.7474,-334.512,0,0
390595,69.7503,-333.951,0,0
390855,69.7628,-333.319,0,0
391116,69.7647,-332.76,0,0
391376,69.8054,-332.179,0,0
391636,70.6239,-331.254,0,0
391896,70.511,-330.732,0,0
392157,70.5164,-330.152,0,0
392417,70.8314,-329.442,0,0
392677,69.2062,-329.543,0,0
392938,71.6417,-327.939,0,0
393198,71.4176,-327.454,0,0
393458,71.2877,-326.956,0,0
393719,71.1832,-326.419,0,0
393979,71.1023,-325.851,0,0
394239,71.2577,-325.231,0,0
394500,71.4688,-324.576,0,0
394760.05,70.6472,-324.369,0,0
395020.375,71.4945,-323.427,0,0
395280.7,71.6668,-322.787,0,0
395541.025,72.189,-322.024,0,0
395801.35,72.5411,-321.228,0,0
396061.675,72.2754,-320.833,0,0
396322.0,72.0974,-320.351,0,0
396582.325,72.2741,-319.687,0,0
396842.65,71.9736,-319.284,0,0
397102.975,72.1446,-318.614,0,0
397363.3,72.3076,-317.966,0,0
397623.625,72.3553,-317.367,0,0
397883.95,72.0486,-316.981,0,0
398144.275,72.2516,-316.318,0,0
398404.6,72.4308,-315.67,0,0
398664.925,72.6169,-315.026,0,0
398925.25,72.5314,-314.531,0,0
399185.575,72.47,-314.007,0,0
399445.9,72.6407,-313.365,0,0
399706.225,72.6866,-312.77,0,0
399966.55,72.831,-312.148,0,0
400006.6,72.7976,-312.114,0,0