File: Accelerated corrosion test data/2025-10-21_06-00-04/sample_8.csv
Frequency (Hz),Impedance (ohms),Phase (Radians),Temperature (C),Humidity (%)
10000.0,303.402,-10994.6,0,0
10260.325,295.862,-10719,0,0
10520.65,288.766,-10456.6,0,0
10780.975,281.637,-10207.1,0,0
11041.3,275.33,-9969.04,0,0
11301.625,269.1,-9743.1,0,0
11561.95,263.381,-9525.03,0,0
11822.275,257.848,-9318.05,0,0
12082.6,256.231,-9117.55,0,0
12342.925,253.003,-8931.21,0,0
12603.25,248.126,-8749.43,0,0
12863.575,244.893,-8578.56,0,0
13123.9,236.705,-8413.08,0,0
13384.225,231.093,-8251.4,0,0
13644.55,228.127,-8095.63,0,0
13904.875,220.521,-7946.76,0,0
14165.2,214.476,-7802.07,0,0
14425.525,211.966,-7661.49,0,0
14685.8,207.046,-7527.41,0,0
14946.175,203.877,-7396.85,0,0
15206.5,200.471,-7271.35,0,0
15466.825,197.313,-7150.48,0,0
15727.15,194.098,-7033.04,0,0
15987.5,190.907,-6920.02,0,0
16247.8,187.846,-6810.07,0,0
16508.125,185.056,-6703.5,0,0
16768.45,181.888,-6600.27,0,0
17028.775,179.406,-6500.29,0,0
17289.1,176.704,-6402.65,0,0
17549.425,173.891,-6308.19,0,0
17809.75,172.495,-6216.36,0,0
18070.075,169.86,-6128.04,0,0
18330.4,166.878,-6040.43,0,0
18590.725,165.196,-5954.89,0,0
18851.05,166.128,-5871.47,0,0
19111.375,164.705,-5792.11,0,0
19371.7,166.373,-5716.91,0,0
19632.025,163.59,-5643.97,0,0
19892.35,160.462,-5572.98,0,0
20152.675,158.114,-5499.99,0,0
20413.0,158.345,-5430.26,0,0
20673.3,158.506,-5363.54,0,0
20933.65,154.686,-5301.08,0,0
21193.975,150.853,-5236.82,0,0
21454.3,148.597,-5172.39,0,0
21714.625,146.846,-5109.64,0,0
21974.9,146.165,-5049.41,0,0
22235.275,146.144,-4990.83,0,0
22495.6,145.238,-4934.49,0,0
22755.925,143.956,-4880.77,0,0
23016.25,141.608,-4825.79,0,0
23276.6,137.51,-4773.63,0,0
23536.9,135.95,-4720.36,0,0
23797.225,133.271,-4668.94,0,0
24057.55,131.32,-4617.89,0,0
24317.875,130.014,-4568.75,0,0
24578.2,127.832,-4520.29,0,0
24838.525,127.123,-4472.14,0,0
25098.85,125.431,-4425.59,0,0
25359.175,123.923,-4380.11,0,0
25619.5,123.477,-4334.94,0,0
25879.8,122.136,-4290.6,0,0
26140.1,121.737,-4248.75,0,0
26400.5,119.826,-4206.42,0,0
26660.8,118.915,-4165.58,0,0
26921.1,118.306,-4124.1,0,0
27181.4,118.642,-4084.45,0,0
27441.8,117.908,-4045.81,0,0
27702.1,116.741,-4008.43,0,0
27962.4,114.451,-3971.13,0,0
28222.7,115.62,-3933.83,0,0
28483.1,114.194,-3897.72,0,0
28743.4,114.043,-3862.42,0,0
29003.7,113.242,-3828.52,0,0
29264,113.312,-3793.72,0,0
29524.4,111.963,-3760.87,0,0
29784.7,111.892,-3727.54,0,0
30045,111.228,-3695.87,0,0
30305.3,110.516,-3664.76,0,0
30565.7,109.246,-3633.66,0,0
30826,107.793,-3602.84,0,0
31086.3,106.899,-3572.14,0,0
31346.6,105.748,-3541.43,0,0
31607,105.676,-3512.36,0,0
31867.3,104.71,-3483.09,0,0
32127.6,103.935,-3454.34,0,0
32387.9,103.901,-3425.87,0,0
32648.3,103.7,-3397.72,0,0
32908.6,104.048,-3370.46,0,0
33168.9,103.716,-3343.58,0,0
33429.2,104.246,-3317.18,0,0
33689.6,104.405,-3291.41,0,0
33949.9,104.716,-3266.26,0,0
34210.2,105.173,-3241.05,0,0
34470.5,105.167,-3216.69,0,0
34730.9,105.437,-3192.4,0,0
34991.2,106.363,-3168.77,0,0
35251.5,107.256,-3145.92,0,0
35511.8,108.15,-3124.01,0,0
35772.2,108.516,-3102.77,0,0
36032.5,108.697,-3081.91,0,0
36292.8,108.648,-3061.34,0,0
36553.1,108.157,-3041.78,0,0
36813.5,106.743,-3021.88,0,0
37073.8,106.337,-3001.71,0,0
37334.1,104.744,-2982.49,0,0
37594.4,102.901,-2963.54,0,0
37854.8,100.836,-2944,0,0
38115.1,98.447,-2924.7,0,0
38375.4,96.3942,-2905.17,0,0
38635.7,94.3649,-2885.58,0,0
38896.1,92.5334,-2865.87,0,0
39156.4,90.6746,-2846.29,0,0
39416.7,89.432,-2826.67,0,0
39677,87.9796,-2807.5,0,0
39937.4,86.8485,-2788.13,0,0
40197.7,86.2077,-2768.81,0,0
40458,86.3435,-2750.33,0,0
40718.3,85.616,-2732.83,0,0
40978.7,85.0639,-2715.1,0,0
41239,84.1175,-2697.68,0,0
41499.3,83.4523,-2679.94,0,0
41759.6,83.2229,-2663.19,0,0
42020,82.2022,-2646.3,0,0
42280.275,81.3164,-2629.16,0,0
42540.6,81.2704,-2612.41,0,0
42800.925,81.0485,-2595.9,0,0
43061.25,81.3109,-2579.78,0,0
43321.575,81.3655,-2564.69,0,0
43581.9,81.2645,-2549.76,0,0
43842.225,80.2312,-2535.01,0,0
44102.55,79.1647,-2519.95,0,0
44362.875,78.2314,-2504.65,0,0
44623.2,77.4598,-2489.67,0,0
44883.525,76.6757,-2474.85,0,0
45143.85,76.2452,-2460.21,0,0
45404.175,75.5523,-2445.64,0,0
45664.5,75.04,-2431.06,0,0
45924.825,74.4364,-2417,0,0
46185.15,73.7956,-2402.97,0,0
46445.475,73.3924,-2388.96,0,0
46705.8,73.0079,-2375.1,0,0
46966.125,72.5635,-2361.16,0,0
47226.45,72.2161,-2347.82,0,0
47486.775,71.9479,-2334.48,0,0
47747.1,71.5386,-2321.43,0,0
48007.425,71.1842,-2308.5,0,0
48267.75,70.8276,-2295.5,0,0
48528.075,70.4154,-2282.95,0,0
48788.4,69.9072,-2270.33,0,0
49048.725,69.5635,-2257.64,0,0
49309.05,69.0497,-2245.22,0,0
49569.375,68.6899,-2232.95,0,0
49829.7,68.2962,-2220.77,0,0
50090.025,67.927,-2208.68,0,0
50350.35,67.5714,-2196.58,0,0
50610.675,67.3471,-2184.79,0,0
50871.0,67.166,-2173.11,0,0
51131.325,66.8334,-2161.45,0,0
51391.65,66.5986,-2149.94,0,0
51651.975,66.691,-2138.43,0,0
51912.3,66.5339,-2127.33,0,0
52172.625,66.3235,-2116.22,0,0
52432.95,66.1438,-2105.26,0,0
52693.275,66.117,-2094.28,0,0
52953.6,66.2613,-2083.53,0,0
53213.925,66.3332,-2073.03,0,0
53474.25,66.6819,-2062.72,0,0
53734.575,66.6481,-2053.19,0,0
53994.9,65.8651,-2043.71,0,0
54255.225,65.1937,-2033.44,0,0
54515.55,64.8873,-2023.53,0,0
54775.875,64.2074,-2013.65,0,0
55036.2,63.6894,-2003.86,0,0
55296.525,62.8984,-1994.04,0,0
55556.85,62.2593,-1984.04,0,0
55817.175,61.6867,-1974.19,0,0
56077.5,61.1962,-1964.34,0,0
56337.825,60.799,-1954.43,0,0
56598.15,60.5179,-1944.71,0,0
56858.475,60.2252,-1935.18,0,0
57118.8,60.0783,-1925.63,0,0
57379.125,59.8413,-1916.25,0,0
57639.45,59.729,-1906.95,0,0
57899.775,59.5247,-1897.69,0,0
58160.1,59.4222,-1888.62,0,0
58420.4,59.3163,-1879.69,0,0
58680.7,59.0724,-1870.77,0,0
58941.1,58.8896,-1861.81,0,0
59201.4,58.7756,-1853.28,0,0
59461.7,58.453,-1844.75,0,0
59722,58.1656,-1836.12,0,0
59982.4,57.889,-1827.52,0,0
60242.7,57.5891,-1818.88,0,0
60503,57.398,-1810.27,0,0
60763.3,57.3658,-1801.67,0,0
61023.7,57.3219,-1793.37,0,0
61284,57.3198,-1785.19,0,0
61544.3,57.3241,-1777.14,0,0
61804.6,57.1205,-1769.05,0,0
62065,56.8581,-1760.84,0,0
62325.3,56.8217,-1752.73,0,0
62585.6,56.8623,-1744.68,0,0
62845.9,57.042,-1736.76,0,0
63106.3,57.2991,-1729.13,0,0
63366.6,57.5348,-1721.53,0,0
63626.9,57.5582,-1714.15,0,0
63887.2,57.6256,-1706.95,0,0
64147.6,57.4858,-1699.71,0,0
64407.9,57.3312,-1692.35,0,0
64668.2,57.1361,-1685.25,0,0
64928.5,57.1048,-1677.96,0,0
65188.9,56.9407,-1670.99,0,0
65449.2,56.7322,-1663.95,0,0
65709.5,56.5071,-1656.74,0,0
65969.8,56.4625,-1649.86,0,0
66230.2,56.1819,-1643.09,0,0
66490.5,55.767,-1636.28,0,0
66750.8,55.2746,-1629.35,0,0
67011.1,54.9577,-1622.18,0,0
67271.5,54.868,-1615.31,0,0
67531.8,54.6734,-1608.34,0,0
67792.1,54.4379,-1601.68,0,0
68052.4,54.3291,-1594.81,0,0
68312.8,54.009,-1588.06,0,0
68573.1,53.7819,-1581.31,0,0
68833.4,53.6667,-1574.56,0,0
69093.7,53.5801,-1567.78,0,0
69354.1,53.5956,-1561.11,0,0
69614.4,53.6288,-1554.53,0,0
69874.7,53.7821,-1548.17,0,0
70135,53.8292,-1541.83,0,0
70395.4,53.7721,-1535.57,0,0
70655.7,53.7852,-1529.38,0,0
70916,53.6759,-1523.07,0,0
71176.3,53.7084,-1516.95,0,0
71436.7,53.7709,-1510.88,0,0
71697,53.7743,-1504.96,0,0
71957.3,53.5725,-1499.06,0,0
72217.6,53.5246,-1493.1,0,0
72478,53.3267,-1487.29,0,0
72738.3,53.0286,-1481.45,0,0
72998.6,52.6945,-1475.48,0,0
73258.9,52.5515,-1469.45,0,0
73519.3,52.5998,-1463.5,0,0
73779.6,52.5501,-1457.89,0,0
74039.9,52.3191,-1452.1,0,0
74300.225,52.1517,-1446.35,0,0
74560.55,51.9949,-1440.65,0,0
74820.875,51.8167,-1434.8,0,0
75081.2,51.8314,-1429.13,0,0
75341.525,51.7037,-1423.51,0,0
75601.85,51.6115,-1417.84,0,0
75862.175,51.5403,-1412.21,0,0
76122.5,51.5437,-1406.64,0,0
76382.825,51.5115,-1401.1,0,0
76643.15,51.5267,-1395.71,0,0
76903.475,51.4453,-1390.43,0,0
77163.8,51.2856,-1385.06,0,0
77424.125,51.2129,-1379.73,0,0
77684.45,51.061,-1374.39,0,0
77944.775,50.9841,-1369.03,0,0
78205.1,50.8308,-1363.78,0,0
78465.425,50.673,-1358.58,0,0
78725.75,50.465,-1353.23,0,0
78986.075,50.428,-1347.99,0,0
79246.4,50.2456,-1342.77,0,0
79506.725,50.1056,-1337.5,0,0
79767.05,49.9817,-1332.24,0,0
80027.375,49.8709,-1327.02,0,0
80287.7,49.8258,-1321.75,0,0
80548.025,49.7924,-1316.55,0,0
80808.35,49.7736,-1311.34,0,0
81068.675,49.8111,-1306.13,0,0
81329.0,49.9444,-1300.95,0,0
81589.325,50.0609,-1295.91,0,0
81849.65,50.2262,-1290.89,0,0
82109.975,50.3513,-1285.89,0,0
82370.3,50.4039,-1280.9,0,0
82630.625,50.5444,-1275.87,0,0
82890.95,50.8938,-1270.97,0,0
83151.275,51.1972,-1266.24,0,0
83411.6,51.3395,-1261.47,0,0
83671.925,51.6079,-1256.69,0,0
83932.25,52.0516,-1251.98,0,0
84192.575,52.3806,-1247.71,0,0
84452.9,52.4915,-1243.38,0,0
84713.225,52.5082,-1239.36,0,0
84973.55,51.9731,-1235.01,0,0
85233.875,51.5776,-1230.26,0,0
85494.2,51.3446,-1225.46,0,0
85754.525,51.3182,-1220.79,0,0
86014.85,51.2638,-1215.93,0,0
86275.175,51.3351,-1211.21,0,0
86535.5,51.3947,-1206.45,0,0
86795.825,51.5635,-1201.76,0,0
87056.15,51.7934,-1197.26,0,0
87316.475,52.0232,-1192.76,0,0
87576.8,52.0207,-1188.26,0,0
87837.125,52.0611,-1183.67,0,0
88097.45,52.3094,-1179.11,0,0
88357.775,52.4383,-1174.67,0,0
88618.1,52.4859,-1170.18,0,0
88878.425,52.6484,-1165.63,0,0
89138.75,52.7485,-1161.01,0,0
89399.075,52.995,-1156.36,0,0
89659.4,53.2398,-1151.73,0,0
89919.725,53.7057,-1147.07,0,0
90180,54.2061,-1142.38,0,0
90440.4,54.9025,-1137.85,0,0
90700.7,55.6192,-1133.38,0,0
90961,56.5579,-1129.02,0,0
91221.3,57.5993,-1125.11,0,0
91481.7,58.4412,-1121.41,0,0
91742,58.8918,-1117.86,0,0
92002.3,59.1409,-1114.16,0,0
92262.6,59.2406,-1110.33,0,0
92523,59.404,-1106.21,0,0
92783.3,59.7195,-1101.95,0,0
93043.6,60.3712,-1097.81,0,0
93303.9,61.0527,-1093.91,0,0
93564.3,61.6365,-1089.98,0,0
93824.6,62.2649,-1086.27,0,0
94084.9,62.9101,-1082.65,0,0
94345.2,63.3866,-1079.18,0,0
94605.6,63.4089,-1075.59,0,0
94865.9,63.6835,-1071.72,0,0
95126.2,63.978,-1067.96,0,0
95386.5,64.2716,-1063.97,0,0
95646.9,64.7101,-1060.14,0,0
95907.2,65.0426,-1056.3,0,0
96167.5,65.5502,-1052.24,0,0
96427.8,66.0792,-1048.21,0,0
96688.2,66.97,-1044.24,0,0
96948.5,67.7865,-1040.57,0,0
97208.8,68.4821,-1036.86,0,0
97469.1,69.2296,-1033.05,0,0
97729.5,70.1312,-1029.24,0,0
97989.8,71.2244,-1025.52,0,0
98250.1,72.3986,-1022,0,0
98510.4,73.5575,-1018.65,0,0
98770.8,74.8536,-1015.41,0,0
99031.1,75.9682,-1012.58,0,0
99291.4,76.7553,-1009.68,0,0
99551.7,77.4774,-1006.66,0,0
99812.1,78.3374,-1003.52,0,0
100072,79.3239,-1000.37,0,0
100333,80.4773,-997.398,0,0
100593,81.6401,-994.716,0,0
100853,82.6867,-992.128,0,0
101114,83.6979,-989.718,0,0
101374,84.4901,-987.478,0,0
101634,85.256,-985.192,0,0
101895,85.9143,-983.138,0,0
102155,86.2637,-981.039,0,0
102415,86.5359,-978.897,0,0
102676,86.6932,-976.691,0,0
102936,86.71,-974.402,0,0
103196,86.7665,-971.98,0,0
103457,86.8666,-969.577,0,0
103717,86.9984,-967.212,0,0
103977,87.0406,-964.988,0,0
104238,86.944,-962.738,0,0
104498,86.6263,-960.512,0,0
104758,86.1817,-958.081,0,0
105019,85.6158,-955.38,0,0
105279,85.2363,-952.431,0,0
105539,85.1184,-949.499,0,0
105800,85.008,-946.634,0,0
106060,84.9428,-943.658,0,0
106320.175,85.0657,-940.785,0,0
106580.5,85.2049,-938.074,0,0
106840.825,85.17,-935.512,0,0
107101.15,85.0398,-932.762,0,0
107361.475,85.0458,-929.999,0,0
107621.8,84.9098,-927.423,0,0
107882.125,84.6023,-924.577,0,0
108142.45,84.4307,-921.527,0,0
108402.775,84.3836,-918.425,0,0
108663.1,84.6117,-915.262,0,0
108923.425,84.9906,-912.237,0,0
109183.75,85.3933,-909.442,0,0
109444.075,85.8803,-906.768,0,0
109704.4,86.2263,-904.168,0,0
109964.725,86.5327,-901.671,0,0
110225.05,86.7667,-899.228,0,0
110485.375,86.8859,-896.705,0,0
110745.7,87.0293,-894.239,0,0
111006.025,87.1193,-891.793,0,0
111266.35,87.1316,-889.153,0,0
111526.675,87.4098,-886.567,0,0
111787.0,87.6837,-884.05,0,0
112047.325,87.915,-881.668,0,0
112307.65,88.0537,-879.255,0,0
112567.975,88.1971,-876.927,0,0
112828.3,88.3041,-874.675,0,0
113088.625,88.3106,-872.442,0,0
113348.95,88.2199,-870.123,0,0
113609.275,88.1177,-867.741,0,0
113869.6,88.0335,-865.348,0,0
114129.925,87.8999,-862.899,0,0
114390.25,87.8853,-860.362,0,0
114650.575,87.8675,-857.988,0,0
114910.9,87.8121,-855.541,0,0
115171.225,87.9207,-853.191,0,0
115431.55,87.9564,-851.003,0,0
115691.875,87.7444,-848.915,0,0
115952.2,87.2946,-846.616,0,0
116212.525,86.9769,-844.131,0,0
116472.85,86.6383,-841.576,0,0
116733.175,86.3803,-838.916,0,0
116993.5,86.2827,-836.292,0,0
117253.825,86.1828,-833.72,0,0
117514.15,86.1054,-831.158,0,0
117774.475,86.0707,-828.588,0,0
118034.8,86.0219,-826.084,0,0
118295.125,85.9567,-823.604,0,0
118555.45,85.9054,-821.081,0,0
118815.775,85.9514,-818.639,0,0
119076.1,85.9428,-816.282,0,0
119336.425,85.8279,-813.939,0,0
119596.75,85.5735,-811.56,0,0
119857.075,85.4145,-809.083,0,0
120117.4,85.2294,-806.623,0,0
120377.725,84.9913,-804.12,0,0
120638.05,84.7925,-801.506,0,0
120898.375,84.7444,-798.851,0,0
121158.7,84.8183,-796.314,0,0
121419.025,84.8407,-793.953,0,0
121679.35,84.7288,-791.636,0,0
121939.675,84.5705,-789.25,0,0
122200.0,84.4249,-786.789,0,0
122460,84.2477,-784.378,0,0
122721,84.0673,-781.948,0,0
122981,83.8354,-779.502,0,0
123241,83.6333,-776.983,0,0
123502,83.4746,-774.467,0,0
123762,83.3159,-772,0,0
124022,83.1405,-769.543,0,0
124283,82.9399,-767.072,0,0
124543,82.6976,-764.602,0,0
124803,82.399,-762.12,0,0
125064,82.1188,-759.528,0,0
125324,81.7923,-756.931,0,0
125584,81.5337,-754.316,0,0
125845,81.2587,-751.625,0,0
126105,80.9937,-748.914,0,0
126365,80.7586,-746.126,0,0
126626,80.6153,-743.368,0,0
126886,80.4829,-740.66,0,0
127146,80.2834,-737.861,0,0
127406,80.2236,-735.038,0,0
127667,80.0794,-732.235,0,0
127927,80.0089,-729.32,0,0
128187,80.0969,-726.468,0,0
128448,80.2031,-723.649,0,0
128708,80.3405,-720.987,0,0
128968,80.3499,-718.288,0,0
129229,80.3848,-715.572,0,0
129489,80.3066,-712.87,0,0
129749,80.207,-710.115,0,0
130010,80.1797,-707.145,0,0
130270,80.209,-704.134,0,0
130530,80.4998,-701.087,0,0
130791,80.9138,-698.226,0,0
131051,81.3109,-695.522,0,0
131311,81.7083,-692.843,0,0
131572,82.0298,-690.375,0,0
131832,82.1668,-687.826,0,0
132092,82.237,-685.195,0,0
132353,82.3924,-682.491,0,0
132613,82.6238,-679.812,0,0
132873,82.863,-677.247,0,0
133134,82.9488,-674.662,0,0
133394,82.9316,-671.968,0,0
133654,83.018,-669.17,0,0
133915,83.1248,-666.317,0,0
134175,83.3031,-663.434,0,0
134435,83.6294,-660.553,0,0
134696,83.9787,-657.74,0,0
134956,84.3228,-654.924,0,0
135216,84.7423,-652.12,0,0
135477,85.182,-649.421,0,0
135737,85.6877,-646.768,0,0
135997,86.2373,-644.273,0,0
136258,86.5863,-641.969,0,0
136518,86.7124,-639.585,0,0
136778,86.8524,-637.134,0,0
137039,86.8005,-634.66,0,0
137299,86.6686,-632.063,0,0
137559,86.4884,-629.342,0,0
137819,86.2789,-626.464,0,0
138080,86.1257,-623.454,0,0
138340.125,86.0313,-620.236,0,0
138600.45,86.1547,-616.9,0,0
138860.775,86.4713,-613.613,0,0
139121.1,86.884,-610.39,0,0
139381.425,87.3196,-607.277,0,0
139641.75,87.728,-604.165,0,0
139902.075,88.1651,-601.018,0,0
140162.4,88.6656,-597.911,0,0
140422.725,89.0455,-594.86,0,0
140683.05,89.4072,-591.74,0,0
140943.375,89.8077,-588.448,0,0
141203.7,90.4042,-585.157,0,0
141464.025,90.9937,-582.025,0,0
141724.35,91.3759,-578.9,0,0
141984.675,91.7317,-575.477,0,0
142245.0,92.2843,-571.935,0,0
142505.325,93.0326,-568.425,0,0
142765.65,93.778,-564.958,0,0
143025.975,94.5365,-561.408,0,0
143286.3,95.4354,-557.781,0,0
143546.625,96.5575,-554.222,0,0
143806.95,97.6009,-550.862,0,0
144067.275,98.5144,-547.368,0,0
144327.6,99.5032,-543.751,0,0
144587.925,100.633,-539.991,0,0
144848.25,102.017,-536.176,0,0
145108.575,103.513,-532.473,0,0
145368.9,105.114,-528.926,0,0
145629.225,106.788,-525.377,0,0
145889.55,108.439,-521.926,0,0
146149.875,110.085,-518.349,0,0
146410.2,111.954,-514.674,0,0
146670.525,114.124,-511.151,0,0
146930.85,116.362,-507.975,0,0
147191.175,118.445,-505.028,0,0
147451.5,120.274,-502.126,0,0
147711.825,121.871,-499.111,0,0
147972.15,123.376,-495.744,0,0
148232.475,125.014,-492.108,0,0
148492.8,126.861,-488.168,0,0
148753.125,129.154,-484.136,0,0
149013.45,131.751,-480.213,0,0
149273.775,134.428,-476.345,0,0
149534.1,137.26,-472.366,0,0
149794.425,140.439,-468.12,0,0
150054.75,144.552,-463.95,0,0
150315.075,148.923,-460.422,0,0
150575.4,153.572,-457.086,0,0
150835.725,158.438,-454.17,0,0
151096.05,163.791,-451.68,0,0
151356.375,169.325,-449.842,0,0
151616.7,174.899,-448.961,0,0
151877.025,179.993,-448.75,0,0
152137.35,184.605,-448.962,0,0
152397.675,188.975,-449.446,0,0
152658.0,192.676,-450.179,0,0
152918.325,196.023,-450.958,0,0
153178.65,199.158,-451.905,0,0
153438.975,201.62,-453.018,0,0
153699.3,203.464,-453.732,0,0
153959.625,205.098,-453.677,0,0
154219.95,207.512,-453.608,0,0
154480,209.336,-454.007,0,0
154741,210.992,-453.49,0,0
155001,213.756,-452.595,0,0
155261,217.216,-452.637,0,0
155522,220.503,-453.886,0,0
155782,223.453,-455.939,0,0
156042,225.197,-458.788,0,0
156303,225.965,-461.574,0,0
156563,225.265,-464.097,0,0
156823,223.598,-465.731,0,0
157084,221.506,-465.955,0,0
157344,219.504,-464.965,0,0
157604,218.268,-462.668,0,0
157864,218.446,-460.063,0,0
158125,219.512,-457.942,0,0
158385,220.963,-456.474,0,0
158645,222.543,-455.464,0,0
158906,223.758,-454.947,0,0
159166,225.092,-454.175,0,0
159426,226.999,-454.266,0,0
159687,227.963,-455.447,0,0
159947,227.366,-456.66,0,0
160207,225.912,-456.922,0,0
160468,224.053,-456.387,0,0
160728,221.967,-454.78,0,0
160988,220.304,-451.958,0,0
161249,219.614,-448.321,0,0
161509,219.905,-444.492,0,0
161769,221.234,-440.674,0,0
162030,223.19,-437.468,0,0
162290,225.961,-434.765,0,0
162550,229.015,-433.06,0,0
162811,231.724,-432.341,0,0
163071,233.79,-432.042,0,0
163331,235.569,-431.844,0,0
163592,236.979,-431.978,0,0
163852,237.7,-431.664,0,0
164112,238.481,-431.098,0,0
164373,239.465,-430.318,0,0
164633,240.642,-429.902,0,0
164893,241.825,-429.703,0,0
165154,243.005,-429.891,0,0
165414,243.777,-430.81,0,0
165674,243.629,-431.803,0,0
165935,242.719,-432.669,0,0
166195,241.342,-432.784,0,0
166455,240.079,-432.746,0,0
166716,238.17,-432.879,0,0
166976,235.491,-432.321,0,0
167236,232.667,-430.568,0,0
167497,230.426,-428.222,0,0
167757,228.49,-425.807,0,0
168017,226.461,-423.185,0,0
168277,224.607,-420.262,0,0
168538,222.811,-417.168,0,0
168798,220.693,-413.772,0,0
169058,218.886,-409.562,0,0
169319,217.685,-404.96,0,0
169579,216.962,-400.538,0,0
169839,216.205,-396.059,0,0
170100,215.587,-391.385,0,0
170360.075,215.31,-386.409,0,0
170620.4,215.284,-381.452,0,0
170880.725,215.559,-376.459,0,0
171141.05,215.945,-371.563,0,0
171401.375,216.132,-366.419,0,0
171661.7,216.61,-360.654,0,0
171922.025,217.955,-354.704,0,0
172182.35,219.746,-349.106,0,0
172442.675,221.945,-343.839,0,0
172703.0,224.01,-338.753,0,0
172963.325,226.343,-333.63,0,0
173223.65,228.786,-328.685,0,0
173483.975,231.331,-323.833,0,0
173744.3,234.11,-319.149,0,0
174004.625,236.787,-314.691,0,0
174264.95,239.596,-310.275,0,0
174525.275,242.32,-306.359,0,0
174785.6,244.229,-302.412,0,0
175045.925,245.825,-297.764,0,0
175306.25,247.656,-292.517,0,0
175566.575,249.797,-286.741,0,0
175826.9,252.56,-280.723,0,0
176087.225,256.03,-274.752,0,0
176347.55,259.799,-269.038,0,0
176607.875,263.712,-263.625,0,0
176868.2,267.577,-258.405,0,0
177128.525,271.242,-253.117,0,0
177388.85,274.715,-247.558,0,0
177649.175,278.323,-241.221,0,0
177909.5,282.559,-234.331,0,0
178169.825,287.696,-227.109,0,0
178430.15,293.816,-220.331,0,0
178690.475,300.266,-213.877,0,0
178950.8,307.141,-207.504,0,0
179211.125,314.753,-201.508,0,0
179471.45,322.404,-196.323,0,0
179731.775,329.792,-190.091,0,0
179992.1,338.548,-184.363,0,0
180252.425,347.983,-179.826,0,0
180512.75,356.83,-176.128,0,0
180773.075,365.372,-172.248,0,0
181033.4,374.242,-168.192,0,0
181293.725,383.395,-164.204,0,0
181554.05,393.06,-160.018,0,0
181814.375,403.95,-155.978,0,0
182074.7,415.868,-153.023,0,0
182335.025,428.354,-151.673,0,0
182595.35,440.52,-151.755,0,0
182855.675,451.745,-153.178,0,0
183116.0,461.996,-154.929,0,0
183376.325,471.622,-157.019,0,0
183636.65,480.12,-159.33,0,0
183896.975,487.572,-161.169,0,0
184157.3,494.294,-161.7,0,0
184417.625,501.907,-160.707,0,0
184677.95,511.266,-159.608,0,0
184938.275,521.603,-159.395,0,0
185198.6,532.322,-160.293,0,0
185458.925,543.197,-162.192,0,0
185719.25,553.317,-165.14,0,0
185979.575,562.553,-167.932,0,0
186239.9,572.293,-170.527,0,0
186500,582.149,-174.17,0,0
186761,591.115,-178.295,0,0
187021,599.745,-182.299,0,0
187281,608.09,-186.49,0,0
187542,616.08,-190.719,0,0
187802,623.765,-194.805,0,0
188062,631.485,-198.507,0,0
188322,639.683,-202.455,0,0
188583,647.598,-207.206,0,0
188843,654.773,-212.07,0,0
189103,661.487,-216.683,0,0
189364,667.781,-220.912,0,0
189624,674.123,-224.413,0,0
189884,681.014,-227.617,0,0
190145,687.996,-230.913,0,0
190405,695.094,-233.754,0,0
190665,703.017,-236.25,0,0
190926,712.04,-238.847,0,0
191186,722.277,-242.822,0,0
191446,731.932,-248.566,0,0
191707,740.294,-254.908,0,0
191967,747.535,-261.106,0,0
192227,753.846,-266.299,0,0
192488,760.379,-270.094,0,0
192748,767.713,-272.865,0,0
193008,776.497,-274.711,0,0
193269,787.223,-276.771,0,0
193529,799.386,-279.679,0,0
193789,813.185,-283.317,0,0
194050,828.53,-289.003,0,0
194310,843.969,-296.748,0,0
194570,859.694,-305.992,0,0
194831,875.366,-317.408,0,0
195091,890.154,-330.317,0,0
195351,904.461,-344.186,0,0
195612,918.737,-359.194,0,0
195872,933.204,-375.979,0,0
196132,946.769,-395.278,0,0
196393,958.598,-416.492,0,0
196653,968.431,-438.741,0,0
196913,976.925,-461.805,0,0
197174,984.288,-486.085,0,0
197434,989.846,-512.004,0,0
197694,992.633,-538.707,0,0
197955,992.801,-565.826,0,0
198215,990.238,-592.673,0,0
198475,985.541,-618.88,0,0
198735,978.818,-644.441,0,0
198996,970.295,-669.463,0,0
199256,959.532,-693.846,0,0
199516,946.255,-716.928,0,0
199777,930.48,-737.897,0,0
200037,913.48,-755.742,0,0
200297,896.462,-770.788,0,0
200558,879.687,-783.878,0,0
200818,863.654,-795.376,0,0
201078,848.369,-806.032,0,0
201339,833.876,-816.648,0,0
201599,818.933,-827.412,0,0
201859,802.844,-837.961,0,0
202120,785.153,-848.06,0,0
202380.025,765.246,-856.05,0,0
202640.35,744.591,-860.501,0,0
202900.675,725.244,-861.697,0,0
203161.0,707.818,-861.161,0,0
203421.325,692.103,-859.512,0,0
203681.65,678.007,-857,0,0
203941.975,665.699,-854.859,0,0
204202.3,653.937,-853.167,0,0
204462.625,642.157,-851.519,0,0
204722.95,630.133,-849.718,0,0
204983.275,618.08,-846.805,0,0
205243.6,606.245,-842.933,0,0
205503.925,595.039,-837.726,0,0
205764.25,585.09,-831.439,0,0
206024.575,576.531,-824.568,0,0
206284.9,569.169,-817.252,0,0
206545.225,563.522,-809.59,0,0
206805.55,559.553,-802.316,0,0
207065.875,556.959,-795.992,0,0
207326.2,554.769,-790.502,0,0
207586.525,553.154,-785.685,0,0
207846.85,552.114,-781.342,0,0
208107.175,551.468,-777.857,0,0
208367.5,550.77,-775.067,0,0
208627.825,549.931,-772.812,0,0
208888.15,548.953,-770.718,0,0
209148.475,547.851,-768.724,0,0
209408.8,546.689,-766.602,0,0
209669.125,545.759,-764.003,0,0
209929.45,545.519,-761.401,0,0
210189.775,546.053,-759.015,0,0
210450.1,547.027,-757.007,0,0
210710.425,548.381,-755.526,0,0
210970.75,550.152,-754.669,0,0
211231.075,552.076,-754.392,0,0
211491.4,554.173,-754.584,0,0
211751.725,556.538,-755.43,0,0
212012.05,558.851,-757.217,0,0
212272.375,560.657,-759.618,0,0
212532.7,562.247,-762.449,0,0
212793.025,563.602,-765.612,0,0
213053.35,564.646,-769.34,0,0
213313.675,565.098,-773.458,0,0
213574.0,565.027,-777.814,0,0
213834.325,564.368,-782.045,0,0
214094.65,563.454,-786.256,0,0
214354.975,562.243,-790.251,0,0
214615.3,561.012,-794.262,0,0
214875.625,559.761,-798.386,0,0
215135.95,558.242,-802.716,0,0
215396.275,556.557,-806.959,0,0
215656.6,554.684,-811.511,0,0
215916.925,552.552,-816.272,0,0
216177.25,549.383,-820.891,0,0
216437.575,546.386,-825.435,0,0
216697.9,542.917,-830.024,0,0
216958.225,539.233,-834.435,0,0
217218.55,535.361,-838.664,0,0
217478.875,531.274,-842.776,0,0
217739.2,527.07,-846.843,0,0
217999.525,522.618,-850.89,0,0
218259.85,517.829,-854.932,0,0
218520,512.817,-858.829,0,0
218780,507.223,-862.598,0,0
219041,501.317,-865.965,0,0
219301,495.126,-868.951,0,0
219561,488.848,-871.458,0,0
219822,482.457,-873.881,0,0
220082,475.932,-875.783,0,0
220342,468.905,-877.403,0,0
220603,461.901,-878.146,0,0
220863,455.07,-878.334,0,0
221123,448.521,-878.014,0,0
221384,442.343,-877.232,0,0
221644,436.674,-876.238,0,0
221904,431.157,-875.023,0,0
222165,426.015,-873.804,0,0
222425,421.182,-872.443,0,0
222685,416.551,-870.826,0,0
222946,412.129,-869.03,0,0
223206,408.095,-867.072,0,0
223466,404.799,-865.121,0,0
223727,401.834,-863.263,0,0
223987,399.262,-862.057,0,0
224247,396.671,-860.89,0,0
224508,394.245,-859.877,0,0
224768,391.898,-858.858,0,0
225028,390.174,-858.214,0,0
225289,388.268,-858.018,0,0
225549,386.398,-858.361,0,0
225809,384.386,-859.003,0,0
226070,382.052,-859.724,0,0
226330,379.527,-860.672,0,0
226590,376.871,-861.865,0,0
226851,373.732,-863.194,0,0
227111,370.262,-864.436,0,0
227371,366.482,-865.48,0,0
227632,362.381,-866.34,0,0
227892,358.033,-866.668,0,0
228152,354.019,-866.576,0,0
228413,350.27,-866.39,0,0
228673,346.895,-866.113,0,0
228933,343.794,-866.249,0,0
229193,340.675,-866.725,0,0
229454,337.223,-867.468,0,0
229714,333.465,-868.496,0,0
229974,329.58,-869.233,0,0
230235,325.279,-870.186,0,0
230495,320.52,-870.868,0,0
230755,315.577,-871.474,0,0
231016,310.601,-871.733,0,0
231276,305.419,-871.793,0,0
231536,300.119,-871.703,0,0
231797,294.65,-871.212,0,0
232057,289.251,-870.527,0,0
232317,283.835,-869.702,0,0
232578,278.342,-868.727,0,0
232838,272.746,-867.525,0,0
233098,267.094,-866.013,0,0
233359,261.296,-864.256,0,0
233619,255.557,-862.077,0,0
233879,249.887,-859.471,0,0
234140,244.34,-856.527,0,0
234400,238.995,-853.375,0,0
234660.3,233.755,-849.845,0,0
234920.625,228.903,-846.011,0,0
235180.95,224.432,-841.839,0,0
235441.275,220.324,-837.606,0,0
235701.6,216.483,-833.237,0,0
235961.925,212.993,-828.846,0,0
236222.25,209.804,-824.465,0,0
236482.575,206.862,-820.058,0,0
236742.9,204.188,-815.771,0,0
237003.225,201.74,-811.45,0,0
237263.55,199.465,-807.158,0,0
237523.875,197.388,-802.992,0,0
237784.2,195.482,-798.848,0,0
238044.525,193.631,-794.654,0,0
238304.85,191.956,-790.415,0,0
238565.175,190.632,-786.1,0,0
238825.5,189.766,-781.842,0,0
239085.825,189.213,-777.788,0,0
239346.15,188.954,-773.999,0,0
239606.475,188.907,-770.53,0,0
239866.8,188.907,-767.411,0,0
240127.125,188.88,-764.587,0,0
240387.45,188.998,-762,0,0
240647.775,189.039,-759.62,0,0
240908.1,189.115,-757.55,0,0
241168.425,189.056,-755.843,0,0
241428.75,188.705,-754.382,0,0
241689.075,187.994,-752.993,0,0
241949.4,186.992,-751.578,0,0
242209.725,185.818,-749.99,0,0
242470.05,184.556,-748.268,0,0
242730.375,183.21,-746.365,0,0
242990.7,181.935,-744.326,0,0
243251.025,180.746,-742.236,0,0
243511.35,179.468,-740.172,0,0
243771.675,178.189,-737.999,0,0
244032.0,176.968,-735.58,0,0
244292.325,175.866,-733.173,0,0
244552.65,174.997,-730.71,0,0
244812.975,174.167,-728.319,0,0
245073.3,173.377,-726.008,0,0
245333.625,172.528,-723.634,0,0
245593.95,171.653,-721.071,0,0
245854.275,171.141,-718.448,0,0
246114.6,170.857,-715.919,0,0
246374.925,170.708,-713.547,0,0
246635.25,170.662,-711.428,0,0
246895.575,170.52,-709.513,0,0
247155.9,170.3,-707.669,0,0
247416.225,169.904,-705.875,0,0
247676.55,169.413,-704.018,0,0
247936.875,169.017,-702.039,0,0
248197.2,168.608,-700.114,0,0
248457.525,168.33,-698.212,0,0
248717.85,168.027,-696.278,0,0
248978.175,167.606,-694.327,0,0
249238.5,167.334,-692.36,0,0
249498.825,167.162,-690.348,0,0
249759.15,167.053,-688.303,0,0
250019.475,166.768,-686.356,0,0
250279.8,166.671,-684.386,0,0
250540,166.744,-682.34,0,0
250800,166.841,-680.34,0,0
251061,167.034,-678.357,0,0
251321,167.456,-676.478,0,0
251581,167.906,-674.752,0,0
251842,168.473,-673.123,0,0
252102,169.042,-671.673,0,0
252362,169.67,-670.32,0,0
252623,170.297,-669.115,0,0
252883,170.956,-668.153,0,0
253143,171.545,-667.427,0,0
253404,171.929,-666.857,0,0
253664,172.146,-666.504,0,0
253924,172.117,-666.145,0,0
254185,171.885,-665.807,0,0
254445,171.381,-665.405,0,0
254705,170.834,-664.944,0,0
254966,170.128,-664.451,0,0
255226,169.143,-663.662,0,0
255486,168.108,-662.84,0,0
255747,167.048,-661.846,0,0
256007,165.957,-660.662,0,0
256267,164.866,-659.33,0,0
256528,163.761,-657.867,0,0
256788,162.695,-656.214,0,0
257048,161.599,-654.379,0,0
257309,160.694,-652.312,0,0
257569,159.97,-650.115,0,0
257829,159.405,-647.798,0,0
258090,159.052,-645.421,0,0
258350,158.889,-642.999,0,0
258610,158.919,-640.603,0,0
258871,159.146,-638.194,0,0
259131,159.59,-635.843,0,0
259391,160.288,-633.607,0,0
259651,161.163,-631.578,0,0
259912,162.117,-629.784,0,0
260172,162.928,-628.217,0,0
260432,163.75,-626.799,0,0
260693,164.504,-625.278,0,0
260953,165.235,-623.834,0,0
261213,166.056,-622.495,0,0
261474,166.763,-621.262,0,0
261734,167.471,-620.051,0,0
261994,168.197,-618.861,0,0
262255,168.831,-617.791,0,0
262515,169.319,-616.7,0,0
262775,169.668,-615.453,0,0
263036,170.084,-614.012,0,0
263296,170.63,-612.473,0,0
263556,171.282,-610.985,0,0
263817,171.968,-609.491,0,0
264077,172.622,-607.932,0,0
264337,173.446,-606.262,0,0
264598,174.267,-604.597,0,0
264858,175.237,-602.762,0,0
265118,176.336,-600.874,0,0
265379,177.564,-598.841,0,0
265639,179.153,-596.809,0,0
265899,180.999,-594.733,0,0
266160,183.15,-592.634,0,0
266420,185.683,-590.662,0,0
266680.25,188.566,-588.919,0,0
266940.575,191.788,-587.431,0,0
267200.9,195.291,-586.225,0,0
267461.225,199.059,-585.417,0,0
267721.55,202.997,-585.076,0,0
267981.875,206.985,-585.155,0,0
268242.2,211.086,-585.762,0,0
268502.525,215.02,-586.807,0,0
268762.85,218.884,-588.197,0,0
269023.175,222.55,-589.874,0,0
269283.5,226.145,-591.872,0,0
269543.825,229.641,-594.113,0,0
269804.15,233.191,-596.548,0,0
270064.475,236.727,-599.544,0,0
270324.8,240.123,-603.173,0,0
270585.125,243.216,-607.249,0,0
270845.45,245.791,-611.796,0,0
271105.775,247.927,-616.653,0,0
271366.1,249.521,-621.768,0,0
271626.425,250.665,-626.974,0,0
271886.75,251.359,-632.334,0,0
272147.075,251.712,-637.838,0,0
272407.4,251.621,-643.614,0,0
272667.725,250.982,-649.613,0,0
272928.05,249.678,-655.75,0,0
273188.375,247.559,-661.916,0,0
273448.7,244.578,-668.065,0,0
273709.025,240.795,-673.711,0,0
273969.35,236.303,-678.843,0,0
274229.675,231.312,-683.344,0,0
274490.0,225.968,-687.092,0,0
274750.325,220.332,-690.178,0,0
275010.65,214.73,-692.658,0,0
275270.975,208.963,-694.536,0,0
275531.3,203.337,-695.889,0,0
275791.625,197.739,-696.734,0,0
276051.95,192.298,-697.202,0,0
276312.275,187.025,-697.208,0,0
276572.6,181.892,-696.896,0,0
276832.925,176.947,-696.273,0,0
277093.25,172.179,-695.329,0,0
277353.575,167.604,-694.158,0,0
277613.9,163.226,-692.734,0,0
277874.225,159.055,-691.155,0,0
278134.55,155.043,-689.381,0,0
278394.875,151.195,-687.418,0,0
278655.2,147.495,-685.189,0,0
278915.525,144.037,-682.793,0,0
279175.85,140.837,-680.147,0,0
279436.175,137.978,-677.402,0,0
279696.5,135.436,-674.501,0,0
279956.825,133.28,-671.643,0,0
280217.15,131.303,-668.772,0,0
280477.475,129.711,-665.883,0,0
280737.8,128.393,-663.144,0,0
280998.125,127.3,-660.547,0,0
281258.45,126.374,-658.153,0,0
281518.775,125.576,-655.867,0,0
281779.1,124.822,-653.745,0,0
282039.425,124.143,-651.694,0,0
282299.75,123.603,-649.748,0,0
282560,123.125,-647.966,0,0
282820,122.693,-646.34,0,0
283081,122.138,-644.856,0,0
283341,121.519,-643.401,0,0
283601,120.866,-641.865,0,0
283862,120.247,-640.297,0,0
284122,119.716,-638.694,0,0
284382,119.322,-637.059,0,0
284643,118.967,-635.481,0,0
284903,118.721,-633.896,0,0
285163,118.564,-632.384,0,0
285424,118.529,-630.82,0,0
285684,118.681,-629.38,0,0
285944,118.955,-628.08,0,0
286205,119.378,-626.85,0,0
286465,119.937,-625.771,0,0
286725,120.677,-624.905,0,0
286986,121.547,-624.354,0,0
287246,122.469,-624.167,0,0
287506,123.29,-624.401,0,0
287767,123.903,-624.968,0,0
288027,124.244,-625.82,0,0
288287,124.296,-626.935,0,0
288548,123.947,-628.17,0,0
288808,123.194,-629.476,0,0
289068,122.047,-630.747,0,0
289329,120.562,-631.883,0,0
289589,118.745,-632.801,0,0
289849,116.654,-633.494,0,0
290109,114.397,-633.837,0,0
290370,112.08,-633.881,0,0
290630,109.832,-633.637,0,0
290890,107.68,-633.257,0,0
291151,105.556,-632.722,0,0
291411,103.49,-632.159,0,0
291671,101.46,-631.471,0,0
291932,99.3599,-630.702,0,0
292192,97.2645,-629.817,0,0
292452,95.1997,-628.787,0,0
292713,93.163,-627.626,0,0
292973,91.2278,-626.377,0,0
293233,89.3268,-625.045,0,0
293494,87.4836,-623.655,0,0
293754,85.7118,-622.145,0,0
294014,83.9632,-620.552,0,0
294275,82.3055,-618.913,0,0
294535,80.7043,-617.165,0,0
294795,79.2664,-615.283,0,0
295056,77.8859,-613.472,0,0
295316,76.7091,-611.532,0,0
295576,75.5805,-609.675,0,0
295837,74.5401,-607.803,0,0
296097,73.6444,-605.99,0,0
296357,72.7481,-604.196,0,0
296618,71.9106,-602.454,0,0
296878,71.0752,-600.708,0,0
297138,70.2816,-598.966,0,0
297399,69.5078,-597.248,0,0
297659,68.7607,-595.483,0,0
297919,68.053,-593.758,0,0
298180,67.3659,-591.98,0,0
298440,66.7394,-590.208,0,0
298700.2,66.1371,-588.426,0,0
298960.525,65.5859,-586.601,0,0
299220.85,65.1065,-584.802,0,0
299481.175,64.6274,-582.947,0,0
299741.5,64.2659,-581.161,0,0
300001.825,63.9514,-579.365,0,0
300262.15,63.6689,-577.55,0,0
300522.475,63.488,-575.742,0,0
300782.8,63.3353,-573.939,0,0
301043.125,63.2338,-572.172,0,0
301303.45,63.2147,-570.406,0,0
301563.775,63.2886,-568.665,0,0
301824.1,63.4235,-566.99,0,0
302084.425,63.6241,-565.379,0,0
302344.75,63.8541,-563.826,0,0
302605.075,64.1208,-562.34,0,0
302865.4,64.4169,-560.896,0,0
303125.725,64.7069,-559.493,0,0
303386.05,65.0604,-558.155,0,0
303646.375,65.4458,-556.867,0,0
303906.7,65.8369,-555.626,0,0
304167.025,66.2539,-554.456,0,0
304427.35,66.6319,-553.352,0,0
304687.675,67.0652,-552.257,0,0
304948.0,67.4646,-551.24,0,0
305208.325,67.9129,-550.286,0,0
305468.65,68.3582,-549.405,0,0
305728.975,68.8234,-548.578,0,0
305989.3,69.2135,-547.812,0,0
306249.625,69.5753,-547.097,0,0
306509.95,69.922,-546.406,0,0
306770.275,70.2267,-545.75,0,0
307030.6,70.5094,-545.095,0,0
307290.925,70.8108,-544.489,0,0
307551.25,71.1018,-543.9,0,0
307811.575,71.4021,-543.346,0,0
308071.9,71.7011,-542.896,0,0
308332.225,71.9554,-542.511,0,0
308592.55,72.1519,-542.223,0,0
308852.875,72.2348,-541.977,0,0
309113.2,72.1915,-541.719,0,0
309373.525,72.0732,-541.457,0,0
309633.85,71.8242,-541.094,0,0
309894.175,71.602,-540.679,0,0
310154.5,71.3686,-540.204,0,0
310414.825,71.1771,-539.682,0,0
310675.15,70.9828,-539.167,0,0
310935.475,70.7924,-538.628,0,0
311195.8,70.6269,-538.074,0,0
311456.125,70.4708,-537.552,0,0
311716.45,70.3242,-537.058,0,0
311976.775,70.1704,-536.583,0,0
312237.1,69.9826,-536.134,0,0
312497.425,69.7463,-535.683,0,0
312757.75,69.5007,-535.239,0,0
313018.075,69.2193,-534.77,0,0
313278.4,68.9231,-534.306,0,0
313538.725,68.5738,-533.818,0,0
313799.05,68.2275,-533.309,0,0
314059.375,67.8815,-532.771,0,0
314319.7,67.5116,-532.231,0,0
314580,67.1494,-531.668,0,0
314840,66.7814,-531.084,0,0
315101,66.3713,-530.443,0,0
315361,65.9646,-529.84,0,0
315621,65.5964,-529.178,0,0
315882,65.1919,-528.469,0,0
316142,64.8558,-527.751,0,0
316402,64.5448,-526.937,0,0
316663,64.2556,-526.189,0,0
316923,63.9899,-525.458,0,0
317183,63.7277,-524.755,0,0
317444,63.5013,-524.024,0,0
317704,63.2735,-523.279,0,0
317964,63.0331,-522.662,0,0
318225,62.8021,-521.89,0,0
318485,62.5162,-521.192,0,0
318745,62.2871,-520.437,0,0
319006,62.1167,-519.69,0,0
319266,61.9784,-518.839,0,0
319526,61.8483,-518.118,0,0
319787,61.8173,-517.299,0,0
320047,61.7748,-516.65,0,0
320307,61.7402,-516.1,0,0
320567,61.7056,-515.582,0,0
320828,61.6008,-514.988,0,0
321088,61.5362,-514.467,0,0
321348,61.3621,-513.948,0,0
321609,61.326,-513.486,0,0
321869,61.1697,-512.956,0,0
322129,61.0002,-512.496,0,0
322390,60.8472,-512.058,0,0
322650,60.6712,-511.669,0,0
322910,60.4388,-511.281,0,0
323171,60.1928,-510.947,0,0
323431,59.854,-510.501,0,0
323691,59.5448,-510.134,0,0
323952,59.045,-509.678,0,0
324212,58.7009,-509.233,0,0
324472,58.2536,-508.705,0,0
324733,57.815,-508.186,0,0
324993,57.3016,-507.64,0,0
325253,56.8775,-507.094,0,0
325514,56.3704,-506.482,0,0
325774,55.9298,-505.832,0,0
326034,55.4801,-505.139,0,0
326295,55.0626,-504.463,0,0
326555,54.644,-503.774,0,0
326815,54.2837,-503.054,0,0
327076,53.8845,-502.26,0,0
327336,53.5897,-501.622,0,0
327596,53.1341,-500.878,0,0
327857,52.8808,-500.142,0,0
328117,52.4952,-499.463,0,0
328377,52.1434,-498.771,0,0
328638,51.8022,-498.07,0,0
328898,51.4125,-497.317,0,0
329158,51.073,-496.619,0,0
329419,50.6504,-495.826,0,0
329679,50.3135,-495.091,0,0
329939,49.9364,-494.291,0,0
330200,49.5937,-493.489,0,0
330460,49.2785,-492.629,0,0
330720.15,48.9416,-491.891,0,0
330980.475,48.6118,-491.068,0,0
331240.8,48.2944,-490.256,0,0
331501.125,48.0491,-489.383,0,0
331761.45,47.7201,-488.536,0,0
332021.775,47.4299,-487.639,0,0
332282.1,47.1918,-486.786,0,0
332542.425,46.9976,-485.877,0,0
332802.75,46.7828,-484.948,0,0
333063.075,46.5703,-484.035,0,0
333323.4,46.4332,-483.13,0,0
333583.725,46.3059,-482.187,0,0
333844.05,46.193,-481.265,0,0
334104.375,46.1135,-480.287,0,0
334364.7,46.0785,-479.423,0,0
334625.025,46.0334,-478.565,0,0
334885.35,46.1175,-477.674,0,0
335145.675,46.2004,-476.911,0,0
335406.0,46.2988,-476.1,0,0
335666.325,46.3955,-475.351,0,0
335926.65,46.4423,-474.621,0,0
336186.975,46.5086,-474.02,0,0
336447.3,46.57,-473.385,0,0
336707.625,46.5956,-472.754,0,0
336967.95,46.6434,-472.168,0,0
337228.275,46.6254,-471.617,0,0
337488.6,46.6169,-471.076,0,0
337748.925,46.5344,-470.492,0,0
338009.25,46.4976,-469.987,0,0
338269.575,46.3665,-469.469,0,0
338529.9,46.2597,-468.866,0,0
338790.225,46.1271,-468.357,0,0
339050.55,45.9397,-467.834,0,0
339310.875,45.7898,-467.249,0,0
339571.2,45.6246,-466.668,0,0
339831.525,45.4009,-466.074,0,0
340091.85,45.1642,-465.446,0,0
340352.175,45.0016,-464.849,0,0
340612.5,44.7882,-464.261,0,0
340872.825,44.5854,-463.584,0,0
341133.15,44.3082,-462.949,0,0
341393.475,44.0966,-462.284,0,0
341653.8,43.8725,-461.586,0,0
341914.125,43.6123,-460.818,0,0
342174.45,43.351,-460.156,0,0
342434.775,43.1334,-459.361,0,0
342695.1,42.9503,-458.649,0,0
342955.425,42.7594,-457.835,0,0
343215.75,42.5722,-457.08,0,0
343476.075,42.3578,-456.276,0,0
343736.4,42.2061,-455.439,0,0
343996.725,42.078,-454.593,0,0
344257.05,41.941,-453.806,0,0
344517.375,41.8107,-452.93,0,0
344777.7,41.7375,-452.135,0,0
345038.025,41.6545,-451.297,0,0
345298.35,41.5961,-450.408,0,0
345558.675,41.5641,-449.591,0,0
345819.0,41.5078,-448.734,0,0
346079.325,41.5165,-447.874,0,0
346339.65,41.5521,-447.056,0,0
346599.975,41.5787,-446.256,0,0
346860,41.6398,-445.411,0,0
347121,41.6475,-444.598,0,0
347381,41.7289,-443.761,0,0
347641,41.7583,-442.983,0,0
347902,41.8156,-442.188,0,0
348162,41.9476,-441.417,0,0
348422,42.0752,-440.672,0,0
348683,42.1662,-439.845,0,0
348943,42.2841,-439.028,0,0
349203,42.3848,-438.276,0,0
349464,42.5129,-437.514,0,0
349724,42.688,-436.762,0,0
349984,42.8293,-436.015,0,0
350245,43.0291,-435.227,0,0
350505,43.2578,-434.517,0,0
350765,43.4721,-433.808,0,0
351025,43.7352,-433.099,0,0
351286,43.9817,-432.472,0,0
351546,44.2392,-431.785,0,0
351806,44.4778,-431.185,0,0
352067,44.6972,-430.601,0,0
352327,44.9288,-429.957,0,0
352587,45.2098,-429.432,0,0
352848,45.3969,-428.853,0,0
353108,45.6548,-428.298,0,0
353368,45.8874,-427.785,0,0
353629,46.075,-427.241,0,0
353889,46.3028,-426.709,0,0
354149,46.4877,-426.263,0,0
354410,46.7471,-425.751,0,0
354670,46.9095,-425.256,0,0
354930,47.1375,-424.782,0,0
355191,47.3069,-424.283,0,0
355451,47.5343,-423.829,0,0
355711,47.7106,-423.366,0,0
355972,47.9131,-422.927,0,0
356232,48.0768,-422.543,0,0
356492,48.2139,-422.101,0,0
356753,48.3794,-421.688,0,0
357013,48.4857,-421.255,0,0
357273,48.6141,-420.849,0,0
357534,48.7335,-420.432,0,0
357794,48.8662,-420.016,0,0
358054,48.9836,-419.595,0,0
358315,49.1074,-419.151,0,0
358575,49.2049,-418.753,0,0
358835,49.282,-418.336,0,0
359096,49.4457,-417.922,0,0
359356,49.509,-417.514,0,0
359616,49.6109,-417.096,0,0
359877,49.7322,-416.679,0,0
360137,49.8435,-416.261,0,0
360397,49.9471,-415.858,0,0
360658,50.0784,-415.45,0,0
360918,50.1607,-415.038,0,0
361178,50.2875,-414.622,0,0
361438,50.4217,-414.224,0,0
361699,50.4616,-413.859,0,0
361959,50.6047,-413.484,0,0
362219,50.6961,-413.11,0,0
362480,50.7767,-412.762,0,0
362740.1,50.852,-412.393,0,0
363000.425,50.9146,-412.074,0,0
363260.75,50.9764,-411.692,0,0
363521.075,51.0199,-411.349,0,0
363781.4,51.0481,-410.972,0,0
364041.725,51.1154,-410.603,0,0
364302.05,51.1882,-410.225,0,0
364562.375,51.2305,-409.875,0,0
364822.7,51.2834,-409.512,0,0
365083.025,51.2832,-409.132,0,0
365343.35,51.3446,-408.798,0,0
365603.675,51.3809,-408.397,0,0
365864.0,51.3609,-408.085,0,0
366124.325,51.3616,-407.695,0,0
366384.65,51.3966,-407.296,0,0
366644.975,51.4127,-406.951,0,0
366905.3,51.3792,-406.526,0,0
367165.625,51.4067,-406.107,0,0
367425.95,51.4113,-405.717,0,0
367686.275,51.4321,-405.31,0,0
367946.6,51.4641,-404.904,0,0
368206.925,51.4998,-404.45,0,0
368467.25,51.5145,-404.05,0,0
368727.575,51.5542,-403.612,0,0
368987.9,51.5992,-403.123,0,0
369248.225,51.6893,-402.623,0,0
369508.55,51.8102,-402.147,0,0
369768.875,51.9742,-401.698,0,0
370029.2,52.1326,-401.262,0,0
370289.525,52.3568,-400.884,0,0
370549.85,52.5661,-400.532,0,0
370810.175,52.7644,-400.207,0,0
371070.5,53.0158,-399.936,0,0
371330.825,53.2113,-399.695,0,0
371591.15,53.3671,-399.472,0,0
371851.475,53.5661,-399.318,0,0
372111.8,53.6643,-399.173,0,0
372372.125,53.8022,-399.043,0,0
372632.45,53.8136,-398.907,0,0
372892.775,53.91,-398.817,0,0
373153.1,53.8806,-398.687,0,0
373413.425,53.8606,-398.589,0,0
373673.75,53.7648,-398.476,0,0
373934.075,53.6879,-398.353,0,0
374194.4,53.5667,-398.216,0,0
374454.725,53.4194,-398.08,0,0
374715.05,53.1416,-397.905,0,0
374975.375,52.9577,-397.697,0,0
375235.7,52.6923,-397.429,0,0
375496.025,52.4289,-397.105,0,0
375756.35,52.2316,-396.808,0,0
376016.675,52.0478,-396.414,0,0
376277.0,51.8446,-396.008,0,0
376537.325,51.7171,-395.593,0,0
376797.65,51.6057,-395.202,0,0
377057.975,51.5244,-394.821,0,0
377318.3,51.4894,-394.463,0,0
377578.625,51.4202,-394.152,0,0
377838.95,51.3228,-393.886,0,0
378099.275,51.1786,-393.598,0,0
378359.6,50.9738,-393.33,0,0
378619.925,50.772,-392.992,0,0
378880,50.5315,-392.623,0,0
379141,50.2776,-392.266,0,0
379401,50.0063,-391.809,0,0
379661,49.7579,-391.261,0,0
379922,49.5793,-390.682,0,0
380182,49.4502,-390.069,0,0
380442,49.4272,-389.479,0,0
380703,49.4914,-388.84,0,0
380963,49.5847,-388.317,0,0
381223,49.7721,-387.847,0,0
381483,49.9956,-387.442,0,0
381744,50.141,-387.141,0,0
382004,50.2756,-386.928,0,0
382264,50.3665,-386.762,0,0
382525,50.3639,-386.622,0,0
382785,50.3041,-386.453,0,0
383045,50.2238,-386.331,0,0
383306,50.0477,-386.146,0,0
383566,49.9279,-385.997,0,0
383826,49.7283,-385.832,0,0
384087,49.454,-385.619,0,0
384347,49.1901,-385.373,0,0
384607,48.8877,-385.161,0,0
384868,48.5271,-384.852,0,0
385128,48.2369,-384.508,0,0
385388,47.8911,-384.143,0,0
385649,47.5189,-383.746,0,0
385909,47.1888,-383.28,0,0
386169,46.8918,-382.857,0,0
386430,46.5718,-382.371,0,0
386690,46.2583,-381.857,0,0
386950,45.9082,-381.298,0,0
387211,45.6437,-380.754,0,0
387471,45.3493,-380.166,0,0
387731,45.0719,-379.588,0,0
387992,44.8347,-378.935,0,0
388252,44.655,-378.301,0,0
388512,44.4566,-377.651,0,0
388773,44.2983,-376.975,0,0
389033,44.1723,-376.336,0,0
389293,44.0399,-375.676,0,0
389554,44.0105,-375.03,0,0
389814,43.9695,-374.383,0,0
390074,43.9077,-373.741,0,0
390335,43.8459,-373.167,0,0
390595,43.8373,-372.597,0,0
390855,43.8071,-372.003,0,0
391116,43.7788,-371.44,0,0
391376,43.7524,-370.846,0,0
391636,43.719,-370.246,0,0
391896,43.6843,-369.719,0,0
392157,43.6874,-369.141,0,0
392417,43.6981,-368.638,0,0
392677,43.6606,-368.081,0,0
392938,43.632,-367.521,0,0
393198,43.5925,-366.963,0,0
393458,43.5427,-366.404,0,0
393719,43.505,-365.848,0,0
393979,43.4812,-365.249,0,0
394239,43.4495,-364.649,0,0
394500,43.3872,-364.07,0,0
394760.05,43.4178,-363.478,0,0
395020.375,43.4461,-362.892,0,0
395280.7,43.4972,-362.263,0,0
395541.025,43.5084,-361.672,0,0
395801.35,43.5635,-361.05,0,0
396061.675,43.6642,-360.454,0,0
396322.0,43.6998,-359.9,0,0
396582.325,43.7807,-359.308,0,0
396842.65,43.8743,-358.762,0,0
397102.975,43.969,-358.218,0,0
397363.3,44.0299,-357.695,0,0
397623.625,44.1035,-357.173,0,0
397883.95,44.1929,-356.636,0,0
398144.275,44.2287,-356.096,0,0
398404.6,44.3321,-355.547,0,0
398664.925,44.3956,-355.024,0,0
398925.25,44.5159,-354.515,0,0
399185.575,44.5808,-354.015,0,0
399445.9,44.6462,-353.497,0,0
399706.225,44.7315,-352.988,0,0
399966.55,44.7925,-352.478,0,0
400006.6,44.8234,-352.414,0,0