File: Accelerated corrosion test data/2025-10-21_06-00-04/sample_2.csv
Frequency (Hz),Impedance (ohms),Phase (Radians),Temperature (C),Humidity (%)
10000.0,224.118,-11497.2,0,0
10260.325,218.811,-11208,0,0
10520.65,213.818,-10932.5,0,0
10780.975,208.689,-10670.3,0,0
11041.3,203.983,-10421,0,0
11301.625,199.382,-10182.1,0,0
11561.95,196.514,-9952.93,0,0
11822.275,194.442,-9743.52,0,0
12082.6,188.924,-9531.16,0,0
12342.925,184.191,-9333.82,0,0
12603.25,179.747,-9141.03,0,0
12863.575,176.456,-8955.86,0,0
13123.9,173.944,-8781.58,0,0
13384.225,170.388,-8609.67,0,0
13644.55,167.863,-8443.68,0,0
13904.875,183.637,-8286.29,0,0
14165.2,163.129,-8143.99,0,0
14425.525,158.728,-7994.5,0,0
14685.8,161.648,-7846.31,0,0
14946.175,156.56,-7717.27,0,0
15206.5,164.151,-7596.09,0,0
15466.825,156.768,-7459.73,0,0
15727.15,149.074,-7345.51,0,0
15987.5,146.038,-7223.15,0,0
16247.8,145.75,-7107.94,0,0
16508.125,140.431,-6997.41,0,0
16768.45,138.264,-6888.78,0,0
17028.775,137.005,-6783.9,0,0
17289.1,135.94,-6682.38,0,0
17549.425,131.969,-6583.06,0,0
17809.75,130.528,-6486.99,0,0
18070.075,128.648,-6393.14,0,0
18330.4,127.14,-6301.36,0,0
18590.725,125.961,-6212.53,0,0
18851.05,124.662,-6126.46,0,0
19111.375,126.557,-6044.55,0,0
19371.7,126.051,-5967.21,0,0
19632.025,120.618,-5887.73,0,0
19892.35,118.337,-5809.43,0,0
20152.675,116.692,-5733.05,0,0
20413.0,116.203,-5658.23,0,0
20673.3,115.451,-5585.35,0,0
20933.65,116.219,-5513.26,0,0
21193.975,123.702,-5444.65,0,0
21454.3,129.893,-5383.14,0,0
21714.625,126.969,-5328.55,0,0
21974.9,119.555,-5263.77,0,0
22235.275,117.212,-5208.49,0,0
22495.6,113.581,-5147.64,0,0
22755.925,109.982,-5085.74,0,0
23016.25,111.176,-5030.34,0,0
23276.6,111.708,-4974.93,0,0
23536.9,106.689,-4920.3,0,0
23797.225,105.766,-4865.31,0,0
24057.55,105.076,-4813.93,0,0
24317.875,101.702,-4763.2,0,0
24578.2,99.1585,-4710.96,0,0
24838.525,98.7364,-4661,0,0
25098.85,97.5359,-4612.2,0,0
25359.175,96.2647,-4564.17,0,0
25619.5,95.4808,-4517.18,0,0
25879.8,94.7469,-4471.79,0,0
26140.1,95.3402,-4425.89,0,0
26400.5,94.3215,-4382.93,0,0
26660.8,94.8462,-4340.55,0,0
26921.1,93.3499,-4298.26,0,0
27181.4,92.1388,-4258.34,0,0
27441.8,90.6973,-4217.4,0,0
27702.1,88.6056,-4177.29,0,0
27962.4,88.1563,-4136.13,0,0
28222.7,88.7541,-4097.55,0,0
28483.1,88.3118,-4059.45,0,0
28743.4,88.0685,-4021.84,0,0
29003.7,89.6837,-3984.1,0,0
29264,89.5521,-3948.86,0,0
29524.4,92.4591,-3912.42,0,0
29784.7,96.6683,-3883.3,0,0
30045,92.2839,-3852.17,0,0
30305.3,92.8146,-3818.97,0,0
30565.7,90.1513,-3790.95,0,0
30826,86.6729,-3758.33,0,0
31086.3,85.4838,-3725.17,0,0
31346.6,83.6251,-3694.65,0,0
31607,84.3146,-3662.81,0,0
31867.3,82.0254,-3633.9,0,0
32127.6,80.7744,-3602.95,0,0
32387.9,81.4298,-3572.19,0,0
32648.3,82.7146,-3544.35,0,0
32908.6,82.6937,-3518.33,0,0
33168.9,81.0565,-3491.38,0,0
33429.2,78.6875,-3464.07,0,0
33689.6,77.9682,-3437.04,0,0
33949.9,77.4071,-3410.35,0,0
34210.2,76.0716,-3384.29,0,0
34470.5,74.892,-3357.89,0,0
34730.9,74.5339,-3332.24,0,0
34991.2,74.2372,-3306.91,0,0
35251.5,73.5415,-3282.41,0,0
35511.8,72.7003,-3257.85,0,0
35772.2,72.7754,-3233.68,0,0
36032.5,72.049,-3210.31,0,0
36292.8,71.4645,-3186.8,0,0
36553.1,70.972,-3163.47,0,0
36813.5,70.3432,-3140.7,0,0
37073.8,70.1519,-3118.15,0,0
37334.1,69.9648,-3095.79,0,0
37594.4,69.6487,-3074.43,0,0
37854.8,69.3617,-3052.67,0,0
38115.1,68.9571,-3031.89,0,0
38375.4,68.2917,-3011,0,0
38635.7,67.8392,-2990.28,0,0
38896.1,67.5125,-2969.81,0,0
39156.4,67.2266,-2949.71,0,0
39416.7,66.7272,-2929.92,0,0
39677,66.375,-2910.31,0,0
39937.4,65.7815,-2890.99,0,0
40197.7,65.5766,-2871.61,0,0
40458,65.2691,-2852.71,0,0
40718.3,65.1725,-2833.74,0,0
40978.7,64.9834,-2815.85,0,0
41239,64.8527,-2797.52,0,0
41499.3,64.7579,-2779.52,0,0
41759.6,64.3524,-2761.98,0,0
42020,64.1394,-2744.24,0,0
42280.275,64.2794,-2726.95,0,0
42540.6,63.8375,-2710.36,0,0
42800.925,63.3538,-2693.6,0,0
43061.25,62.9718,-2676.99,0,0
43321.575,62.807,-2660.36,0,0
43581.9,62.5854,-2644.14,0,0
43842.225,62.3939,-2628.07,0,0
44102.55,62.0125,-2611.81,0,0
44362.875,61.9044,-2596.21,0,0
44623.2,61.6563,-2580.98,0,0
44883.525,61.28,-2565.42,0,0
45143.85,61.2479,-2550.12,0,0
45404.175,61.2575,-2534.98,0,0
45664.5,60.8257,-2520.22,0,0
45924.825,61.0101,-2504.98,0,0
46185.15,61.3247,-2491.17,0,0
46445.475,60.5548,-2477.29,0,0
46705.8,60.0408,-2462.67,0,0
46966.125,60.243,-2448.35,0,0
47226.45,59.9971,-2434.2,0,0
47486.775,60.3228,-2420.93,0,0
47747.1,59.5666,-2407.29,0,0
48007.425,59.8759,-2393.57,0,0
48267.75,60.2803,-2379.59,0,0
48528.075,61.1474,-2368.14,0,0
48788.4,60.4532,-2355.7,0,0
49048.725,59.867,-2343.3,0,0
49309.05,59.3308,-2330.73,0,0
49569.375,58.4802,-2318.1,0,0
49829.7,58.0473,-2305.5,0,0
50090.025,57.5861,-2292.88,0,0
50350.35,57.069,-2280.75,0,0
50610.675,56.8842,-2268.02,0,0
50871.0,56.9826,-2256.14,0,0
51131.325,56.6929,-2244.52,0,0
51391.65,56.4489,-2232.83,0,0
51651.975,55.9318,-2221.13,0,0
51912.3,55.41,-2209.53,0,0
52172.625,54.96,-2197.81,0,0
52432.95,54.795,-2186.22,0,0
52693.275,54.6544,-2174.83,0,0
52953.6,54.2867,-2163.61,0,0
53213.925,54.1777,-2152.28,0,0
53474.25,54.0129,-2141.36,0,0
53734.575,53.9088,-2130.27,0,0
53994.9,53.644,-2119.37,0,0
54255.225,53.4751,-2108.58,0,0
54515.55,53.5835,-2097.83,0,0
54775.875,53.5939,-2087.35,0,0
55036.2,53.449,-2076.93,0,0
55296.525,53.2854,-2066.57,0,0
55556.85,53.1576,-2056.29,0,0
55817.175,53.3509,-2046.05,0,0
56077.5,53.2086,-2035.97,0,0
56337.825,53.2304,-2025.99,0,0
56598.15,53.1768,-2016.02,0,0
56858.475,53.2074,-2006.32,0,0
57118.8,53.1928,-1996.49,0,0
57379.125,53.2562,-1986.85,0,0
57639.45,53.2541,-1977.26,0,0
57899.775,53.4866,-1967.89,0,0
58160.1,53.4958,-1958.64,0,0
58420.4,53.2907,-1949.35,0,0
58680.7,53.2536,-1940.01,0,0
58941.1,53.506,-1930.6,0,0
59201.4,53.6375,-1921.6,0,0
59461.7,53.946,-1912.42,0,0
59722,54.2763,-1903.35,0,0
59982.4,54.8232,-1894.38,0,0
60242.7,55.6556,-1886.04,0,0
60503,55.713,-1878.17,0,0
60763.3,55.9023,-1869.73,0,0
61023.7,55.9146,-1861.38,0,0
61284,56.4774,-1852.87,0,0
61544.3,57.5003,-1844.89,0,0
61804.6,58.2408,-1837.59,0,0
62065,58.4189,-1831.26,0,0
62325.3,57.3989,-1823.88,0,0
62585.6,56.9964,-1816.11,0,0
62845.9,56.9488,-1808.65,0,0
63106.3,56.367,-1802.13,0,0
63366.6,54.8785,-1794.14,0,0
63626.9,54.7626,-1786.34,0,0
63887.2,54.0546,-1778.82,0,0
64147.6,53.4655,-1771.2,0,0
64407.9,52.7205,-1763.59,0,0
64668.2,52.4188,-1755.76,0,0
64928.5,52.0043,-1748.44,0,0
65188.9,50.8836,-1740.86,0,0
65449.2,50.087,-1732.62,0,0
65709.5,50.0764,-1724.35,0,0
65969.8,50.2884,-1716.63,0,0
66230.2,50.1837,-1709.09,0,0
66490.5,50.4171,-1701.41,0,0
66750.8,50.4906,-1694.21,0,0
67011.1,50.3827,-1686.68,0,0
67271.5,50.6515,-1679,0,0
67531.8,51.263,-1671.65,0,0
67792.1,51.8857,-1664.73,0,0
68052.4,52.7623,-1657.81,0,0
68312.8,53.2315,-1651.79,0,0
68573.1,52.8884,-1645.05,0,0
68833.4,53.4897,-1638.19,0,0
69093.7,54.1484,-1631.8,0,0
69354.1,54.634,-1626.05,0,0
69614.4,54.7662,-1620.08,0,0
69874.7,55.1358,-1614.31,0,0
70135,55.0909,-1609.05,0,0
70395.4,54.7827,-1603.52,0,0
70655.7,53.9406,-1598.41,0,0
70916,52.7586,-1592.39,0,0
71176.3,52.0891,-1586.26,0,0
71436.7,51.3007,-1580.18,0,0
71697,50.7667,-1574.17,0,0
71957.3,49.7842,-1568.49,0,0
72217.6,48.4019,-1562.22,0,0
72478,47.2499,-1555.6,0,0
72738.3,46.5555,-1548.88,0,0
72998.6,45.9697,-1542.09,0,0
73258.9,45.6786,-1535.58,0,0
73519.3,45.0897,-1529.2,0,0
73779.6,44.5657,-1522.46,0,0
74039.9,44.4493,-1515.61,0,0
74300.225,44.4881,-1508.99,0,0
74560.55,44.5354,-1502.7,0,0
74820.875,44.5628,-1496.28,0,0
75081.2,44.6755,-1489.87,0,0
75341.525,44.9984,-1483.64,0,0
75601.85,45.2635,-1477.48,0,0
75862.175,45.4798,-1471.31,0,0
76122.5,45.9862,-1465.21,0,0
76382.825,46.4986,-1459.41,0,0
76643.15,46.8953,-1453.61,0,0
76903.475,47.2992,-1447.87,0,0
77163.8,47.8656,-1442.11,0,0
77424.125,48.5282,-1436.42,0,0
77684.45,49.312,-1431.06,0,0
77944.775,49.977,-1425.76,0,0
78205.1,50.7166,-1420.67,0,0
78465.425,51.5774,-1415.85,0,0
78725.75,51.9923,-1411.28,0,0
78986.075,52.5062,-1406.62,0,0
79246.4,52.8554,-1402.35,0,0
79506.725,52.8583,-1398.1,0,0
79767.05,52.6395,-1393.96,0,0
80027.375,52.1226,-1389.59,0,0
80287.7,51.3373,-1385.03,0,0
80548.025,50.7553,-1380.07,0,0
80808.35,50.078,-1375.29,0,0
81068.675,49.5234,-1370.23,0,0
81329.0,49.0363,-1365.01,0,0
81589.325,48.6898,-1359.99,0,0
81849.65,48.309,-1354.86,0,0
82109.975,47.9841,-1349.68,0,0
82370.3,47.7776,-1344.52,0,0
82630.625,47.511,-1339.34,0,0
82890.95,47.4738,-1334.08,0,0
83151.275,47.5343,-1328.93,0,0
83411.6,47.7697,-1323.91,0,0
83671.925,47.8548,-1318.93,0,0
83932.25,48.0457,-1314.09,0,0
84192.575,48.2465,-1309.31,0,0
84452.9,48.3603,-1304.53,0,0
84713.225,48.4572,-1299.9,0,0
84973.55,48.4591,-1295.23,0,0
85233.875,48.5835,-1290.5,0,0
85494.2,48.8178,-1285.73,0,0
85754.525,49.0776,-1281.15,0,0
86014.85,49.2954,-1276.62,0,0
86275.175,49.4758,-1272.19,0,0
86535.5,49.7191,-1267.75,0,0
86795.825,49.7412,-1263.33,0,0
87056.15,49.951,-1258.9,0,0
87316.475,50.0968,-1254.65,0,0
87576.8,50.2229,-1250.49,0,0
87837.125,50.2759,-1246.23,0,0
88097.45,50.2792,-1241.93,0,0
88357.775,50.2331,-1237.46,0,0
88618.1,50.5974,-1233.25,0,0
88878.425,50.497,-1229.16,0,0
89138.75,50.5318,-1224.68,0,0
89399.075,50.8658,-1220.55,0,0
89659.4,50.743,-1216.38,0,0
89919.725,51.0079,-1212.07,0,0
90180,51.3454,-1208.04,0,0
90440.4,51.0469,-1204.42,0,0
90700.7,50.5378,-1200.1,0,0
90961,50.5795,-1195.3,0,0
91221.3,51.125,-1190.7,0,0
91481.7,51.7287,-1186.6,0,0
91742,52.1471,-1182.57,0,0
92002.3,52.4619,-1178.52,0,0
92262.6,52.9988,-1174.41,0,0
92523,53.6955,-1170.77,0,0
92783.3,54.0733,-1167.18,0,0
93043.6,54.3418,-1163.6,0,0
93303.9,54.743,-1159.87,0,0
93564.3,55.2994,-1156.35,0,0
93824.6,55.786,-1153.16,0,0
94084.9,55.6905,-1150.39,0,0
94345.2,55.3118,-1147.21,0,0
94605.6,54.6462,-1143.53,0,0
94865.9,54.5665,-1139.67,0,0
95126.2,54.3638,-1136.29,0,0
95386.5,53.7337,-1132.44,0,0
95646.9,53.4609,-1128.12,0,0
95907.2,53.7496,-1123.71,0,0
96167.5,54.3931,-1119.69,0,0
96427.8,55.2104,-1116.06,0,0
96688.2,55.808,-1112.79,0,0
96948.5,56.3893,-1109.44,0,0
97208.8,57.0838,-1106.37,0,0
97469.1,57.6734,-1103.79,0,0
97729.5,57.3358,-1101.53,0,0
97989.8,56.8177,-1098.45,0,0
98250.1,56.6602,-1095.31,0,0
98510.4,56.52,-1092.47,0,0
98770.8,56.1931,-1089.65,0,0
99031.1,55.5143,-1086.71,0,0
99291.4,54.8165,-1083.9,0,0
99551.7,53.7785,-1080.78,0,0
99812.1,52.695,-1077.17,0,0
100072,52.1507,-1073.28,0,0
100333,51.9491,-1069.64,0,0
100593,51.6147,-1066.45,0,0
100853,50.9059,-1063.33,0,0
101114,49.9829,-1059.86,0,0
101374,49.1707,-1056.34,0,0
101634,48.0009,-1052.59,0,0
101895,47.042,-1048.28,0,0
102155,46.5865,-1043.84,0,0
102415,46.5627,-1039.67,0,0
102676,46.2743,-1035.86,0,0
102936,45.7554,-1031.77,0,0
103196,45.5031,-1027.43,0,0
103457,45.4189,-1022.98,0,0
103717,45.6482,-1018.63,0,0
103977,45.9485,-1014.38,0,0
104238,46.3998,-1010.1,0,0
104498,47.1508,-1005.86,0,0
104758,48.083,-1002,0,0
105019,49.0079,-998.417,0,0
105279,49.6044,-994.943,0,0
105539,50.2106,-991.192,0,0
105800,51.2337,-987.54,0,0
106060,52.3176,-984.228,0,0
106320.175,53.3659,-981.014,0,0
106580.5,54.5913,-978.088,0,0
106840.825,55.6868,-975.461,0,0
107101.15,56.6071,-973.095,0,0
107361.475,57.4701,-971.025,0,0
107621.8,57.6536,-969.23,0,0
107882.125,57.4449,-967.005,0,0
108142.45,57.3976,-964.758,0,0
108402.775,56.9355,-962.491,0,0
108663.1,56.4314,-959.901,0,0
108923.425,55.9778,-957.368,0,0
109183.75,55.242,-954.69,0,0
109444.075,54.5195,-951.707,0,0
109704.4,53.9093,-948.687,0,0
109964.725,53.2263,-945.631,0,0
110225.05,52.4918,-942.328,0,0
110485.375,51.8,-938.746,0,0
110745.7,51.4008,-935.151,0,0
111006.025,51.2238,-931.508,0,0
111266.35,50.9923,-927.969,0,0
111526.675,51.023,-924.349,0,0
111787.0,51.0253,-920.883,0,0
112047.325,51.0046,-917.386,0,0
112307.65,51.0938,-913.852,0,0
112567.975,51.1889,-910.429,0,0
112828.3,51.2165,-906.96,0,0
113088.625,51.3792,-903.39,0,0
113348.95,51.6007,-899.828,0,0
113609.275,51.962,-896.371,0,0
113869.6,52.3055,-893.053,0,0
114129.925,52.6123,-889.65,0,0
114390.25,52.9649,-886.21,0,0
114650.575,53.5224,-882.815,0,0
114910.9,53.8836,-879.471,0,0
115171.225,54.5265,-876.153,0,0
115431.55,55.1076,-872.904,0,0
115691.875,55.6174,-869.772,0,0
115952.2,56.1638,-866.593,0,0
116212.525,56.7442,-863.342,0,0
116472.85,57.4066,-860.136,0,0
116733.175,58.1485,-857.058,0,0
116993.5,58.8777,-854.064,0,0
117253.825,59.5346,-851.088,0,0
117514.15,60.2418,-848.032,0,0
117774.475,61.1013,-844.958,0,0
118034.8,62.1096,-842.138,0,0
118295.125,62.9944,-839.5,0,0
118555.45,63.7688,-836.846,0,0
118815.775,64.6207,-834.174,0,0
119076.1,65.5469,-831.677,0,0
119336.425,66.3269,-829.369,0,0
119596.75,67.0493,-826.916,0,0
119857.075,67.9169,-824.64,0,0
120117.4,68.67,-822.567,0,0
120377.725,69.2273,-820.629,0,0
120638.05,69.517,-818.639,0,0
120898.375,69.7744,-816.631,0,0
121158.7,69.7824,-814.665,0,0
121419.025,69.7538,-812.419,0,0
121679.35,69.7192,-810.164,0,0
121939.675,69.625,-807.868,0,0
122200.0,69.4985,-805.439,0,0
122460,69.3574,-802.934,0,0
122721,69.2688,-800.393,0,0
122981,69.234,-797.749,0,0
123241,69.21,-795.092,0,0
123502,69.2935,-792.442,0,0
123762,69.3848,-789.844,0,0
124022,69.4223,-787.276,0,0
124283,69.3939,-784.72,0,0
124543,69.3656,-782.133,0,0
124803,69.2771,-779.515,0,0
125064,69.0832,-776.731,0,0
125324,68.9746,-773.912,0,0
125584,68.9488,-770.972,0,0
125845,68.9438,-768.024,0,0
126105,69.0486,-765.082,0,0
126365,69.0955,-762.078,0,0
126626,69.2313,-759.021,0,0
126886,69.4953,-755.895,0,0
127146,69.8091,-752.791,0,0
127406,70.2316,-749.765,0,0
127667,70.7137,-746.743,0,0
127927,71.2633,-743.769,0,0
128187,71.8038,-740.873,0,0
128448,72.3469,-737.941,0,0
128708,72.9675,-735.045,0,0
128968,73.6642,-732.176,0,0
129229,74.4086,-729.45,0,0
129489,75.0752,-726.802,0,0
129749,75.7026,-724.177,0,0
130010,76.3126,-721.392,0,0
130270,77.1597,-718.71,0,0
130530,78.0155,-716.194,0,0
130791,78.839,-713.832,0,0
131051,79.5702,-711.664,0,0
131311,80.0729,-709.482,0,0
131572,80.5058,-707.24,0,0
131832,80.8324,-704.962,0,0
132092,81.1267,-702.638,0,0
132353,81.3845,-700.225,0,0
132613,81.6696,-697.783,0,0
132873,81.9522,-695.303,0,0
133134,82.1764,-692.85,0,0
133394,82.4541,-690.332,0,0
133654,82.7926,-687.803,0,0
133915,83.0363,-685.333,0,0
134175,83.1776,-682.91,0,0
134435,83.2295,-680.342,0,0
134696,83.2712,-677.653,0,0
134956,83.3894,-674.833,0,0
135216,83.5507,-671.938,0,0
135477,83.7889,-669.009,0,0
135737,84.1127,-666.145,0,0
135997,84.3791,-663.223,0,0
136258,84.7281,-660.216,0,0
136518,85.1913,-657.25,0,0
136778,85.6323,-654.338,0,0
137039,86.0535,-651.352,0,0
137299,86.5964,-648.3,0,0
137559,87.2109,-645.335,0,0
137819,87.825,-642.438,0,0
138080,88.4643,-639.651,0,0
138340.125,88.8515,-636.958,0,0
138600.45,89.1526,-633.991,0,0
138860.775,89.5244,-630.893,0,0
139121.1,89.9903,-627.781,0,0
139381.425,90.4613,-624.652,0,0
139641.75,90.87,-621.488,0,0
139902.075,91.1943,-618.198,0,0
140162.4,91.5803,-614.601,0,0
140422.725,92.1972,-610.814,0,0
140683.05,93.1212,-607.006,0,0
140943.375,94.2316,-603.327,0,0
141203.7,95.3411,-599.658,0,0
141464.025,96.5975,-595.87,0,0
141724.35,98.136,-592.107,0,0
141984.675,99.9261,-588.498,0,0
142245.0,101.819,-585.208,0,0
142505.325,103.604,-582.129,0,0
142765.65,105.254,-579.162,0,0
143025.975,106.757,-576.1,0,0
143286.3,108.265,-572.907,0,0
143546.625,109.856,-569.631,0,0
143806.95,111.63,-566.366,0,0
144067.275,113.498,-563.223,0,0
144327.6,115.261,-560.159,0,0
144587.925,117.006,-556.977,0,0
144848.25,118.875,-553.66,0,0
145108.575,120.93,-550.412,0,0
145368.9,123.07,-547.294,0,0
145629.225,125.177,-544.22,0,0
145889.55,127.293,-541.146,0,0
146149.875,129.401,-538.033,0,0
146410.2,131.586,-534.796,0,0
146670.525,133.898,-531.567,0,0
146930.85,136.311,-528.317,0,0
147191.175,138.776,-525.023,0,0
147451.5,141.398,-521.615,0,0
147711.825,144.263,-518.217,0,0
147972.15,147.251,-514.824,0,0
148232.475,150.421,-511.329,0,0
148492.8,153.975,-507.793,0,0
148753.125,157.867,-504.397,0,0
149013.45,162.028,-501.028,0,0
149273.775,166.789,-497.799,0,0
149534.1,172.009,-495.187,0,0
149794.425,177.25,-493.076,0,0
150054.75,182.589,-491.228,0,0
150315.075,188.234,-489.696,0,0
150575.4,194.166,-488.799,0,0
150835.725,200.111,-488.689,0,0
151096.05,205.717,-489.327,0,0
151356.375,210.866,-490.309,0,0
151616.7,215.86,-491.504,0,0
151877.025,220.775,-493.215,0,0
152137.35,225.283,-495.607,0,0
152397.675,229.052,-498.416,0,0
152658.0,232.094,-501.295,0,0
152918.325,234.594,-504.077,0,0
153178.65,236.73,-506.665,0,0
153438.975,238.657,-509.357,0,0
153699.3,240.003,-512.152,0,0
153959.625,240.818,-514.668,0,0
154219.95,241.28,-516.835,0,0
154480,241.519,-518.614,0,0
154741,241.787,-520.129,0,0
155001,241.994,-521.45,0,0
155261,242.155,-522.585,0,0
155522,242.591,-523.591,0,0
155782,243.072,-524.895,0,0
156042,243.108,-526.419,0,0
156303,242.584,-527.82,0,0
156563,242.038,-528.688,0,0
156823,241.37,-529.375,0,0
157084,240.763,-529.97,0,0
157344,239.96,-530.464,0,0
157604,238.852,-530.53,0,0
157864,238.132,-530.287,0,0
158125,237.669,-530.176,0,0
158385,236.874,-530.159,0,0
158645,235.947,-529.786,0,0
158906,235.035,-529.307,0,0
159166,233.998,-528.301,0,0
159426,233.317,-526.959,0,0
159687,232.94,-525.544,0,0
159947,232.959,-523.961,0,0
160207,233.397,-522.638,0,0
160468,233.669,-521.875,0,0
160728,233.592,-520.912,0,0
160988,233.515,-519.195,0,0
161249,234.49,-517.212,0,0
161509,236.419,-515.713,0,0
161769,238.829,-515.379,0,0
162030,241.085,-515.99,0,0
162290,242.717,-517.81,0,0
162550,243.11,-520.151,0,0
162811,242.193,-522.062,0,0
163071,241.226,-523.385,0,0
163331,239.846,-524.813,0,0
163592,237.877,-526.072,0,0
163852,235.468,-526.635,0,0
164112,233.035,-526.853,0,0
164373,230.28,-526.897,0,0
164633,227.315,-526.453,0,0
164893,224.273,-525.65,0,0
165154,220.943,-524.384,0,0
165414,217.709,-522.244,0,0
165674,214.919,-519.598,0,0
165935,212.608,-516.707,0,0
166195,210.536,-513.905,0,0
166455,208.583,-511.092,0,0
166716,206.556,-508.173,0,0
166976,204.723,-504.906,0,0
167236,203.245,-501.673,0,0
167497,201.597,-498.729,0,0
167757,199.387,-495.33,0,0
168017,197.384,-491.166,0,0
168277,195.865,-486.518,0,0
168538,195.1,-481.724,0,0
168798,194.731,-477.251,0,0
169058,194.399,-472.955,0,0
169319,194.084,-468.567,0,0
169579,193.861,-463.896,0,0
169839,194.016,-459.123,0,0
170100,194.713,-454.495,0,0
170360.075,195.433,-450.184,0,0
170620.4,196.033,-446.101,0,0
170880.725,196.397,-441.827,0,0
171141.05,197.004,-437.122,0,0
171401.375,197.929,-432.373,0,0
171661.7,199.079,-427.713,0,0
171922.025,200.284,-423.012,0,0
172182.35,201.889,-418.34,0,0
172442.675,203.558,-413.776,0,0
172703.0,205.375,-409.238,0,0
172963.325,207.291,-404.829,0,0
173223.65,209.197,-400.533,0,0
173483.975,210.969,-396.042,0,0
173744.3,212.909,-391.182,0,0
174004.625,215.355,-386.277,0,0
174264.95,218.067,-381.57,0,0
174525.275,220.881,-376.873,0,0
174785.6,224.032,-372.151,0,0
175045.925,227.376,-367.633,0,0
175306.25,230.844,-363.086,0,0
175566.575,234.689,-358.424,0,0
175826.9,239.099,-354.122,0,0
176087.225,243.55,-350.429,0,0
176347.55,247.746,-346.662,0,0
176607.875,252.443,-342.867,0,0
176868.2,257.382,-339.468,0,0
177128.525,262.613,-336.249,0,0
177388.85,268.294,-333.614,0,0
177649.175,273.844,-331.718,0,0
177909.5,279.113,-330.371,0,0
178169.825,283.886,-329.372,0,0
178430.15,288.444,-328.171,0,0
178690.475,293.28,-327.236,0,0
178950.8,298.109,-327.036,0,0
179211.125,302.248,-327.54,0,0
179471.45,304.915,-326.688,0,0
179731.775,308.193,-327.195,0,0
179992.1,310.304,-327.893,0,0
180252.425,311.461,-327.756,0,0
180512.75,312.52,-326.824,0,0
180773.075,313.481,-325.441,0,0
181033.4,314.221,-323.483,0,0
181293.725,314.951,-320.738,0,0
181554.05,316.096,-317.211,0,0
181814.375,317.972,-313.156,0,0
182074.7,320.481,-309.186,0,0
182335.025,323.487,-305.489,0,0
182595.35,326.264,-302.149,0,0
182855.675,328.782,-298.449,0,0
183116.0,331.373,-294.076,0,0
183376.325,334.751,-289.061,0,0
183636.65,339.027,-284.137,0,0
183896.975,343.652,-279.508,0,0
184157.3,348.714,-275.14,0,0
184417.625,354.043,-270.768,0,0
184677.95,359.815,-266.806,0,0
184938.275,365.722,-263.162,0,0
185198.6,371.548,-259.706,0,0
185458.925,377.527,-256.208,0,0
185719.25,383.799,-252.999,0,0
185979.575,389.897,-249.968,0,0
186239.9,396.022,-246.543,0,0
186500,402.898,-243.118,0,0
186761,410.03,-240.306,0,0
187021,416.984,-237.41,0,0
187281,424.531,-234.396,0,0
187542,432.511,-231.856,0,0
187802,440.621,-229.84,0,0
188062,448.732,-228.191,0,0
188322,456.979,-226.942,0,0
188583,464.999,-226.303,0,0
188843,472.476,-225.729,0,0
189103,479.432,-224.901,0,0
189364,486.388,-223.395,0,0
189624,493.796,-221.614,0,0
189884,501.522,-219.776,0,0
190145,509.591,-217.688,0,0
190405,518.304,-215.41,0,0
190665,527.703,-213.399,0,0
190926,537.414,-211.569,0,0
191186,547.743,-209.738,0,0
191446,558.852,-208.132,0,0
191707,570.572,-207.355,0,0
191967,582.503,-206.999,0,0
192227,594.937,-207.001,0,0
192488,607.872,-207.645,0,0
192748,621.175,-208.844,0,0
193008,635.107,-210.539,0,0
193269,649.765,-213.37,0,0
193529,664.572,-217.589,0,0
193789,679.181,-223.017,0,0
194050,693.436,-229.568,0,0
194310,706.958,-236.936,0,0
194570,720.093,-244.638,0,0
194831,733.248,-252.872,0,0
195091,746.328,-262.15,0,0
195351,758.59,-272.501,0,0
195612,769.915,-283.344,0,0
195872,780.433,-294.12,0,0
196132,790.939,-304.9,0,0
196393,801.491,-316.24,0,0
196653,811.479,-328.405,0,0
196913,820.727,-340.681,0,0
197174,829.936,-353.039,0,0
197434,839.147,-365.863,0,0
197694,848.394,-379.548,0,0
197955,857.103,-394.417,0,0
198215,864.659,-410.276,0,0
198475,871.035,-426.323,0,0
198735,876.417,-442.501,0,0
198996,881.29,-458.71,0,0
199256,885.395,-475.233,0,0
199516,888.66,-491.547,0,0
199777,891.637,-507.87,0,0
200037,893.992,-525.105,0,0
200297,895.497,-542.53,0,0
200558,896.068,-559.813,0,0
200818,895.744,-577.325,0,0
201078,894.651,-595.167,0,0
201339,891.91,-613.13,0,0
201599,887.952,-630.705,0,0
201859,882.576,-647.151,0,0
202120,876.792,-662.602,0,0
202380.025,870.801,-677.137,0,0
202640.35,864.683,-691.557,0,0
202900.675,858.136,-706.035,0,0
203161.0,850.658,-720.003,0,0
203421.325,842.453,-733.216,0,0
203681.65,833.85,-745.614,0,0
203941.975,825.041,-756.962,0,0
204202.3,816.69,-767.673,0,0
204462.625,808.589,-778.27,0,0
204722.95,800.667,-789.54,0,0
204983.275,791.897,-801.355,0,0
205243.6,781.558,-812.942,0,0
205503.925,769.668,-823.59,0,0
205764.25,757.136,-832.465,0,0
206024.575,744.581,-839.599,0,0
206284.9,732.792,-845.579,0,0
206545.225,721.733,-851.298,0,0
206805.55,710.527,-856.928,0,0
207065.875,699.02,-861.854,0,0
207326.2,687.281,-865.791,0,0
207586.525,676.084,-868.426,0,0
207846.85,665.671,-870.188,0,0
208107.175,656.468,-871.328,0,0
208367.5,648.466,-872.684,0,0
208627.825,640.925,-874.587,0,0
208888.15,633.757,-876.64,0,0
209148.475,627.122,-879.227,0,0
209408.8,620.607,-882.745,0,0
209669.125,613.477,-886.903,0,0
209929.45,605.352,-891.32,0,0
210189.775,596.303,-895.117,0,0
210450.1,587.176,-898.353,0,0
210710.425,578.08,-901.116,0,0
210970.75,568.796,-904.054,0,0
211231.075,558.702,-906.687,0,0
211491.4,547.898,-908.579,0,0
211751.725,536.89,-909.297,0,0
212012.05,526.085,-908.687,0,0
212272.375,516.133,-907.092,0,0
212532.7,507.071,-905.237,0,0
212793.025,498.498,-903.36,0,0
213053.35,490.235,-901.265,0,0
213313.675,482.401,-899.095,0,0
213574.0,474.796,-896.758,0,0
213834.325,467.477,-894.279,0,0
214094.65,460.557,-891.685,0,0
214354.975,453.864,-889.002,0,0
214615.3,447.334,-886.378,0,0
214875.625,441.101,-883.537,0,0
215135.95,434.987,-880.656,0,0
215396.275,428.936,-877.607,0,0
215656.6,423.087,-874.373,0,0
215916.925,417.579,-870.799,0,0
216177.25,412.543,-867.199,0,0
216437.575,407.967,-863.51,0,0
216697.9,403.541,-860.024,0,0
216958.225,399.373,-856.37,0,0
217218.55,395.537,-852.76,0,0
217478.875,392.096,-849.247,0,0
217739.2,388.847,-845.953,0,0
217999.525,385.745,-842.795,0,0
218259.85,382.678,-839.769,0,0
218520,379.658,-836.589,0,0
218780,376.895,-833.346,0,0
219041,374.485,-830.154,0,0
219301,372.227,-827.21,0,0
219561,370.091,-824.383,0,0
219822,368.061,-821.653,0,0
220082,366.127,-819.017,0,0
220342,364.18,-816.491,0,0
220603,362.192,-813.848,0,0
220863,360.386,-811.133,0,0
221123,358.975,-808.278,0,0
221384,357.986,-805.626,0,0
221644,357.152,-803.324,0,0
221904,356.351,-801.403,0,0
222165,355.525,-799.523,0,0
222425,354.782,-797.846,0,0
222685,353.991,-796.292,0,0
222946,353.238,-794.917,0,0
223206,352.407,-793.681,0,0
223466,351.393,-792.492,0,0
223727,350.388,-791.29,0,0
223987,349.501,-789.938,0,0
224247,348.795,-788.518,0,0
224508,348.084,-787.526,0,0
224768,347.366,-786.568,0,0
225028,346.567,-785.549,0,0
225289,345.944,-784.601,0,0
225549,345.367,-783.742,0,0
225809,344.903,-782.803,0,0
226070,344.411,-782.123,0,0
226330,344.064,-781.362,0,0
226590,343.71,-780.805,0,0
226851,343.542,-780.342,0,0
227111,343.364,-780.06,0,0
227371,343.236,-779.847,0,0
227632,343.28,-779.78,0,0
227892,343.436,-779.956,0,0
228152,343.631,-780.509,0,0
228413,343.706,-781.472,0,0
228673,343.505,-782.768,0,0
228933,343.048,-784.23,0,0
229193,342.327,-785.868,0,0
229454,341.202,-787.553,0,0
229714,339.931,-789.361,0,0
229974,338.296,-790.905,0,0
230235,336.435,-792.46,0,0
230495,334.316,-793.832,0,0
230755,332.284,-795.128,0,0
231016,330.109,-796.423,0,0
231276,327.963,-797.616,0,0
231536,325.684,-798.856,0,0
231797,323.28,-800.095,0,0
232057,320.726,-801.337,0,0
232317,317.914,-802.519,0,0
232578,315.009,-803.608,0,0
232838,311.92,-804.505,0,0
233098,308.708,-805.241,0,0
233359,305.503,-805.802,0,0
233619,302.308,-806.179,0,0
233879,299.125,-806.587,0,0
234140,295.78,-806.821,0,0
234400,292.489,-806.909,0,0
234660.3,289.108,-806.811,0,0
234920.625,285.886,-806.681,0,0
235180.95,282.603,-806.535,0,0
235441.275,279.327,-806.332,0,0
235701.6,276.157,-805.917,0,0
235961.925,272.884,-805.471,0,0
236222.25,269.784,-805.059,0,0
236482.575,266.604,-804.579,0,0
236742.9,263.326,-804.089,0,0
237003.225,259.926,-803.566,0,0
237263.55,256.451,-802.826,0,0
237523.875,253.079,-801.851,0,0
237784.2,249.671,-800.688,0,0
238044.525,246.346,-799.417,0,0
238304.85,243.316,-797.962,0,0
238565.175,240.339,-796.696,0,0
238825.5,237.471,-795.337,0,0
239085.825,234.558,-794.113,0,0
239346.15,231.644,-792.745,0,0
239606.475,228.754,-791.323,0,0
239866.8,225.719,-789.709,0,0
240127.125,222.814,-788.09,0,0
240387.45,219.875,-786.415,0,0
240647.775,217.167,-784.531,0,0
240908.1,214.547,-782.587,0,0
241168.425,211.968,-780.604,0,0
241428.75,209.466,-778.652,0,0
241689.075,206.993,-776.525,0,0
241949.4,204.699,-774.326,0,0
242209.725,202.548,-772.063,0,0
242470.05,200.62,-769.776,0,0
242730.375,198.895,-767.546,0,0
242990.7,197.322,-765.46,0,0
243251.025,195.852,-763.448,0,0
243511.35,194.458,-761.54,0,0
243771.675,193.141,-759.833,0,0
244032.0,191.815,-758.164,0,0
244292.325,190.586,-756.623,0,0
244552.65,189.297,-755.234,0,0
244812.975,188.104,-753.92,0,0
245073.3,186.783,-752.849,0,0
245333.625,185.44,-751.938,0,0
245593.95,183.926,-751.149,0,0
245854.275,182.291,-750.51,0,0
246114.6,180.315,-749.869,0,0
246374.925,178.256,-749.377,0,0
246635.25,175.816,-748.728,0,0
246895.575,173.133,-747.923,0,0
247155.9,170.295,-746.865,0,0
247416.225,167.311,-745.608,0,0
247676.55,164.335,-744,0,0
247936.875,161.373,-742.176,0,0
248197.2,158.511,-740.253,0,0
248457.525,155.753,-738.158,0,0
248717.85,152.981,-735.966,0,0
248978.175,150.25,-733.646,0,0
249238.5,147.575,-731.192,0,0
249498.825,144.969,-728.575,0,0
249759.15,142.342,-725.881,0,0
250019.475,139.917,-722.997,0,0
250279.8,137.465,-720.022,0,0
250540,135.13,-716.828,0,0
250800,132.975,-713.497,0,0
251061,131.014,-710.08,0,0
251321,129.219,-706.536,0,0
251581,127.675,-702.938,0,0
251842,126.303,-699.292,0,0
252102,125.174,-695.715,0,0
252362,124.135,-692.125,0,0
252623,123.338,-688.618,0,0
252883,122.671,-685.21,0,0
253143,122.027,-681.887,0,0
253404,121.469,-678.635,0,0
253664,120.989,-675.395,0,0
253924,120.559,-672.207,0,0
254185,120.191,-669.013,0,0
254445,119.827,-665.789,0,0
254705,119.532,-662.705,0,0
254966,119.341,-659.485,0,0
255226,119.216,-656.189,0,0
255486,119.245,-652.911,0,0
255747,119.427,-649.661,0,0
256007,119.75,-646.469,0,0
256267,120.173,-643.315,0,0
256528,120.755,-640.297,0,0
256788,121.4,-637.362,0,0
257048,122.095,-634.516,0,0
257309,122.835,-631.748,0,0
257569,123.606,-628.987,0,0
257829,124.483,-626.293,0,0
258090,125.406,-623.649,0,0
258350,126.418,-621.081,0,0
258610,127.487,-618.601,0,0
258871,128.606,-616.132,0,0
259131,129.792,-613.733,0,0
259391,131.072,-611.478,0,0
259651,132.383,-609.254,0,0
259912,133.873,-607.064,0,0
260172,135.32,-605.021,0,0
260432,136.822,-603.168,0,0
260693,138.351,-601.406,0,0
260953,139.937,-599.679,0,0
261213,141.535,-598.085,0,0
261474,143.158,-596.614,0,0
261734,144.769,-595.231,0,0
261994,146.357,-593.985,0,0
262255,147.94,-592.81,0,0
262515,149.492,-591.755,0,0
262775,150.982,-590.785,0,0
263036,152.476,-589.864,0,0
263296,153.895,-588.994,0,0
263556,155.326,-588.191,0,0
263817,156.718,-587.406,0,0
264077,158.141,-586.644,0,0
264337,159.546,-585.992,0,0
264598,160.915,-585.376,0,0
264858,162.318,-584.831,0,0
265118,163.77,-584.413,0,0
265379,165.14,-584.14,0,0
265639,166.437,-583.87,0,0
265899,167.669,-583.756,0,0
266160,168.812,-583.644,0,0
266420,169.874,-583.555,0,0
266680.25,170.896,-583.482,0,0
266940.575,171.906,-583.428,0,0
267200.9,172.867,-583.404,0,0
267461.225,173.845,-583.453,0,0
267721.55,174.77,-583.55,0,0
267981.875,175.656,-583.731,0,0
268242.2,176.424,-583.991,0,0
268502.525,177.124,-584.309,0,0
268762.85,177.617,-584.692,0,0
269023.175,177.966,-585.066,0,0
269283.5,178.19,-585.305,0,0
269543.825,178.26,-585.436,0,0
269804.15,178.183,-585.491,0,0
270064.475,178.131,-585.33,0,0
270324.8,178.15,-585.052,0,0
270585.125,178.169,-584.599,0,0
270845.45,178.321,-584.038,0,0
271105.775,178.582,-583.519,0,0
271366.1,178.93,-582.965,0,0
271626.425,179.28,-582.405,0,0
271886.75,179.627,-581.814,0,0
272147.075,180.066,-581.037,0,0
272407.4,180.584,-580.199,0,0
272667.725,181.289,-579.311,0,0
272928.05,182.205,-578.389,0,0
273188.375,183.28,-577.46,0,0
273448.7,184.563,-576.571,0,0
273709.025,186.112,-575.773,0,0
273969.35,187.905,-575.054,0,0
274229.675,189.898,-574.543,0,0
274490.0,192.155,-574.348,0,0
274750.325,194.615,-574.39,0,0
275010.65,197.122,-574.863,0,0
275270.975,199.723,-575.721,0,0
275531.3,202.265,-577.027,0,0
275791.625,204.735,-578.694,0,0
276051.95,207.039,-580.827,0,0
276312.275,209.024,-583.344,0,0
276572.6,210.67,-586.2,0,0
276832.925,211.86,-589.294,0,0
277093.25,212.582,-592.477,0,0
277353.575,212.945,-595.672,0,0
277613.9,212.952,-598.898,0,0
277874.225,212.603,-602.079,0,0
278134.55,211.877,-605.18,0,0
278394.875,210.814,-608.153,0,0
278655.2,209.477,-610.953,0,0
278915.525,207.973,-613.504,0,0
279175.85,206.334,-615.874,0,0
279436.175,204.524,-618.163,0,0
279696.5,202.561,-620.224,0,0
279956.825,200.446,-622.253,0,0
280217.15,198.208,-623.91,0,0
280477.475,195.912,-625.39,0,0
280737.8,193.592,-626.69,0,0
280998.125,191.319,-627.828,0,0
281258.45,189.084,-628.91,0,0
281518.775,186.886,-629.985,0,0
281779.1,184.575,-631.055,0,0
282039.425,182.139,-632.138,0,0
282299.75,179.474,-633.156,0,0
282560,176.598,-634.028,0,0
282820,173.484,-634.647,0,0
283081,170.274,-634.875,0,0
283341,167.043,-634.712,0,0
283601,163.931,-634.18,0,0
283862,161.167,-633.338,0,0
284122,158.726,-632.468,0,0
284382,156.564,-631.706,0,0
284643,154.423,-631.114,0,0
284903,152.096,-630.72,0,0
285163,149.688,-630.316,0,0
285424,147.036,-629.725,0,0
285684,144.232,-628.961,0,0
285944,141.349,-628.045,0,0
286205,138.391,-626.877,0,0
286465,135.348,-625.369,0,0
286725,132.357,-623.555,0,0
286986,129.444,-621.41,0,0
287246,126.677,-618.946,0,0
287506,124.072,-616.193,0,0
287767,121.673,-613.098,0,0
288027,119.612,-609.731,0,0
288287,117.812,-606.136,0,0
288548,116.429,-602.211,0,0
288808,115.545,-598.162,0,0
289068,115.19,-594.092,0,0
289329,115.34,-590.031,0,0
289589,115.948,-586.101,0,0
289849,117.084,-582.374,0,0
290109,118.592,-579.023,0,0
290370,120.371,-575.902,0,0
290630,122.34,-573.133,0,0
290890,124.633,-570.603,0,0
291151,127.167,-568.409,0,0
291411,129.928,-566.617,0,0
291671,132.898,-565.238,0,0
291932,135.986,-564.378,0,0
292192,139.124,-564.055,0,0
292452,142.201,-564.357,0,0
292713,145.041,-565.318,0,0
292973,147.399,-566.818,0,0
293233,149.197,-568.684,0,0
293494,150.307,-570.689,0,0
293754,150.846,-572.639,0,0
294014,150.832,-574.395,0,0
294275,150.477,-575.742,0,0
294535,149.896,-576.702,0,0
294795,149.285,-577.331,0,0
295056,148.702,-577.566,0,0
295316,148.397,-577.442,0,0
295576,148.365,-577.167,0,0
295837,148.821,-576.766,0,0
296097,149.776,-576.552,0,0
296357,151.152,-576.786,0,0
296618,152.756,-577.706,0,0
296878,154.21,-579.378,0,0
297138,155.217,-581.688,0,0
297399,155.57,-584.399,0,0
297659,155.183,-587.233,0,0
297919,154.113,-589.905,0,0
298180,152.507,-592.265,0,0
298440,150.55,-594.214,0,0
298700.2,148.442,-595.741,0,0
298960.525,146.269,-596.94,0,0
299220.85,144.035,-597.905,0,0
299481.175,141.797,-598.639,0,0
299741.5,139.474,-599.083,0,0
300001.825,137.162,-599.237,0,0
300262.15,134.966,-599.123,0,0
300522.475,132.901,-598.856,0,0
300782.8,130.982,-598.384,0,0
301043.125,129.274,-597.806,0,0
301303.45,127.732,-597.196,0,0
301563.775,126.359,-596.557,0,0
301824.1,125.096,-595.942,0,0
302084.425,123.968,-595.346,0,0
302344.75,122.936,-594.811,0,0
302605.075,122.009,-594.361,0,0
302865.4,121.156,-594.018,0,0
303125.725,120.281,-593.831,0,0
303386.05,119.345,-593.739,0,0
303646.375,118.34,-593.712,0,0
303906.7,117.232,-593.727,0,0
304167.025,116.074,-593.763,0,0
304427.35,114.795,-593.766,0,0
304687.675,113.476,-593.764,0,0
304948.0,112.045,-593.771,0,0
305208.325,110.514,-593.7,0,0
305468.65,108.824,-593.574,0,0
305728.975,107.119,-593.354,0,0
305989.3,105.381,-592.992,0,0
306249.625,103.601,-592.508,0,0
306509.95,101.87,-591.883,0,0
306770.275,100.186,-591.182,0,0
307030.6,98.5244,-590.42,0,0
307290.925,96.9003,-589.578,0,0
307551.25,95.3636,-588.688,0,0
307811.575,93.8466,-587.769,0,0
308071.9,92.3809,-586.828,0,0
308332.225,90.9328,-585.837,0,0
308592.55,89.4994,-584.83,0,0
308852.875,88.0657,-583.749,0,0
309113.2,86.7081,-582.617,0,0
309373.525,85.4029,-581.457,0,0
309633.85,84.1224,-580.289,0,0
309894.175,82.8886,-579.091,0,0
310154.5,81.6903,-577.869,0,0
310414.825,80.5349,-576.646,0,0
310675.15,79.4007,-575.386,0,0
310935.475,78.3124,-574.138,0,0
311195.8,77.2596,-572.843,0,0
311456.125,76.2599,-571.541,0,0
311716.45,75.2874,-570.245,0,0
311976.775,74.3297,-568.928,0,0
312237.1,73.4039,-567.61,0,0
312497.425,72.5316,-566.263,0,0
312757.75,71.7006,-564.919,0,0
313018.075,70.887,-563.576,0,0
313278.4,70.1234,-562.246,0,0
313538.725,69.3835,-560.92,0,0
313799.05,68.6635,-559.601,0,0
314059.375,67.9873,-558.257,0,0
314319.7,67.3012,-556.903,0,0
314580,66.6865,-555.569,0,0
314840,66.1152,-554.277,0,0
315101,65.471,-552.929,0,0
315361,64.9224,-551.713,0,0
315621,64.3346,-550.409,0,0
315882,63.7995,-549.143,0,0
316142,63.2025,-547.841,0,0
316402,62.6872,-546.531,0,0
316663,62.2783,-545.208,0,0
316923,61.7561,-543.865,0,0
317183,61.3189,-542.652,0,0
317444,60.9048,-541.25,0,0
317704,60.5619,-539.928,0,0
317964,60.2421,-538.668,0,0
318225,59.8345,-537.357,0,0
318485,59.5902,-536.027,0,0
318745,59.2687,-534.883,0,0
319006,59.003,-533.569,0,0
319266,58.7377,-532.403,0,0
319526,58.5192,-531.203,0,0
319787,58.2256,-530.06,0,0
320047,57.9468,-528.874,0,0
320307,57.648,-527.653,0,0
320567,57.4254,-526.506,0,0
320828,57.1058,-525.277,0,0
321088,56.854,-524.109,0,0
321348,56.6354,-522.845,0,0
321609,56.4342,-521.577,0,0
321869,56.1441,-520.432,0,0
322129,56.0139,-519.139,0,0
322390,55.7604,-517.921,0,0
322650,55.7014,-516.657,0,0
322910,55.5799,-515.458,0,0
323171,55.4262,-514.218,0,0
323431,55.2766,-512.878,0,0
323691,55.1905,-511.613,0,0
323952,55.1867,-510.321,0,0
324212,55.0834,-508.979,0,0
324472,55.0735,-507.587,0,0
324733,55.1979,-506.216,0,0
324993,55.3878,-504.838,0,0
325253,55.4901,-503.417,0,0
325514,55.8743,-502.009,0,0
325774,56.2825,-500.642,0,0
326034,56.8257,-499.326,0,0
326295,57.3977,-498.122,0,0
326555,58.0444,-497.008,0,0
326815,58.7912,-496.01,0,0
327076,59.5071,-495.17,0,0
327336,60.1988,-494.387,0,0
327596,60.8366,-493.768,0,0
327857,61.4544,-493.148,0,0
328117,61.9044,-492.691,0,0
328377,62.3339,-492.104,0,0
328638,62.8127,-491.566,0,0
328898,63.254,-491.06,0,0
329158,63.6279,-490.476,0,0
329419,64.1046,-490.024,0,0
329679,64.5503,-489.598,0,0
329939,64.9779,-489.24,0,0
330200,65.4254,-488.942,0,0
330460,65.7711,-488.699,0,0
330720.15,66.1516,-488.477,0,0
330980.475,66.4684,-488.35,0,0
331240.8,66.7286,-488.196,0,0
331501.125,66.9577,-488.09,0,0
331761.45,67.1016,-488.125,0,0
332021.775,67.1945,-488.129,0,0
332282.1,67.1965,-488.201,0,0
332542.425,67.1217,-488.243,0,0
332802.75,66.8706,-488.298,0,0
333063.075,66.5807,-488.326,0,0
333323.4,66.1368,-488.284,0,0
333583.725,65.7735,-488.126,0,0
333844.05,65.2273,-487.886,0,0
334104.375,64.7105,-487.635,0,0
334364.7,64.1677,-487.356,0,0
334625.025,63.6573,-486.83,0,0
334885.35,63.1706,-486.396,0,0
335145.675,62.7082,-485.892,0,0
335406.0,62.2595,-485.367,0,0
335666.325,61.8231,-484.79,0,0
335926.65,61.346,-484.242,0,0
336186.975,60.9222,-483.653,0,0
336447.3,60.4516,-483.05,0,0
336707.625,60.036,-482.428,0,0
336967.95,59.5942,-481.74,0,0
337228.275,59.2554,-481.02,0,0
337488.6,58.8423,-480.361,0,0
337748.925,58.4943,-479.652,0,0
338009.25,58.1972,-478.916,0,0
338269.575,57.7876,-478.196,0,0
338529.9,57.4812,-477.457,0,0
338790.225,57.1392,-476.717,0,0
339050.55,56.8321,-475.967,0,0
339310.875,56.5591,-475.163,0,0
339571.2,56.2314,-474.354,0,0
339831.525,55.9453,-473.55,0,0
340091.85,55.6461,-472.725,0,0
340352.175,55.4252,-471.886,0,0
340612.5,55.2046,-471.058,0,0
340872.825,54.951,-470.159,0,0
341133.15,54.7301,-469.38,0,0
341393.475,54.5032,-468.512,0,0
341653.8,54.4022,-467.667,0,0
341914.125,54.1502,-466.752,0,0
342174.45,54.0399,-465.908,0,0
342434.775,53.8985,-465.029,0,0
342695.1,53.6829,-464.096,0,0
342955.425,53.5927,-463.239,0,0
343215.75,53.5285,-462.308,0,0
343476.075,53.4095,-461.346,0,0
343736.4,53.3649,-460.387,0,0
343996.725,53.3639,-459.479,0,0
344257.05,53.2955,-458.556,0,0
344517.375,53.3439,-457.625,0,0
344777.7,53.4508,-456.709,0,0
345038.025,53.5005,-455.717,0,0
345298.35,53.549,-454.865,0,0
345558.675,53.6832,-453.919,0,0
345819.0,53.837,-452.993,0,0
346079.325,53.9492,-452.158,0,0
346339.65,54.112,-451.294,0,0
346599.975,54.3434,-450.442,0,0
346860,54.5516,-449.601,0,0
347121,54.7494,-448.804,0,0
347381,54.9862,-447.982,0,0
347641,55.1889,-447.158,0,0
347902,55.4797,-446.329,0,0
348162,55.7359,-445.533,0,0
348422,56.0719,-444.8,0,0
348683,56.3628,-444.035,0,0
348943,56.6778,-443.313,0,0
349203,57.0295,-442.584,0,0
349464,57.3837,-441.887,0,0
349724,57.7788,-441.213,0,0
349984,58.0892,-440.592,0,0
350245,58.5133,-439.949,0,0
350505,58.9452,-439.376,0,0
350765,59.2682,-438.782,0,0
351025,59.7005,-438.315,0,0
351286,60.0679,-437.841,0,0
351546,60.3936,-437.39,0,0
351806,60.7784,-436.964,0,0
352067,61.1196,-436.502,0,0
352327,61.4029,-436.172,0,0
352587,61.6225,-435.787,0,0
352848,61.8046,-435.342,0,0
353108,62.0495,-434.941,0,0
353368,62.2394,-434.477,0,0
353629,62.4474,-434.045,0,0
353889,62.6645,-433.518,0,0
354149,62.8829,-433.048,0,0
354410,63.1174,-432.566,0,0
354670,63.4074,-432.108,0,0
354930,63.6564,-431.649,0,0
355191,63.9045,-431.164,0,0
355451,64.1925,-430.787,0,0
355711,64.4408,-430.264,0,0
355972,64.7686,-429.801,0,0
356232,65.0986,-429.385,0,0
356492,65.3346,-428.899,0,0
356753,65.7344,-428.524,0,0
357013,66.1251,-428.114,0,0
357273,66.5782,-427.724,0,0
357534,66.9222,-427.387,0,0
357794,67.3759,-427.049,0,0
358054,67.7531,-426.765,0,0
358315,68.1665,-426.553,0,0
358575,68.5746,-426.363,0,0
358835,68.9534,-426.213,0,0
359096,69.3822,-426.042,0,0
359356,69.7277,-425.92,0,0
359616,70.0887,-425.848,0,0
359877,70.4223,-425.797,0,0
360137,70.6897,-425.767,0,0
360397,70.9452,-425.769,0,0
360658,71.1505,-425.79,0,0
360918,71.3911,-425.738,0,0
361178,71.5089,-425.818,0,0
361438,71.6777,-425.755,0,0
361699,71.7624,-425.838,0,0
361959,71.8701,-425.849,0,0
362219,71.8781,-425.836,0,0
362480,71.8797,-425.926,0,0
362740.1,71.8731,-425.906,0,0
363000.425,71.8659,-425.878,0,0
363260.75,71.8197,-425.891,0,0
363521.075,71.7491,-425.804,0,0
363781.4,71.6822,-425.753,0,0
364041.725,71.584,-425.682,0,0
364302.05,71.4673,-425.683,0,0
364562.375,71.3438,-425.564,0,0
364822.7,71.2385,-425.433,0,0
365083.025,71.0637,-425.274,0,0
365343.35,70.9087,-425.172,0,0
365603.675,70.8282,-424.954,0,0
365864.0,70.6839,-424.797,0,0
366124.325,70.5913,-424.583,0,0
366384.65,70.414,-424.36,0,0
366644.975,70.321,-424.115,0,0
366905.3,70.2464,-423.855,0,0
367165.625,70.1636,-423.569,0,0
367425.95,70.092,-423.341,0,0
367686.275,70.0752,-423.062,0,0
367946.6,70.0982,-422.787,0,0
368206.925,70.0658,-422.547,0,0
368467.25,70.2105,-422.351,0,0
368727.575,70.2781,-422.132,0,0
368987.9,70.4085,-422.012,0,0
369248.225,70.5149,-421.972,0,0
369508.55,70.568,-421.914,0,0
369768.875,70.5758,-421.984,0,0
370029.2,70.5188,-422.069,0,0
370289.525,70.3657,-422.125,0,0
370549.85,70.2175,-422.196,0,0
370810.175,69.9858,-422.148,0,0
371070.5,69.7146,-422.181,0,0
371330.825,69.4576,-422.104,0,0
371591.15,69.1815,-421.946,0,0
371851.475,68.9136,-421.802,0,0
372111.8,68.6954,-421.611,0,0
372372.125,68.5589,-421.447,0,0
372632.45,68.3529,-421.327,0,0
372892.775,68.178,-421.192,0,0
373153.1,68.0321,-421.089,0,0
373413.425,67.824,-421.006,0,0
373673.75,67.6175,-420.914,0,0
373934.075,67.3448,-420.835,0,0
374194.4,67.0538,-420.781,0,0
374454.725,66.8084,-420.625,0,0
374715.05,66.468,-420.584,0,0
374975.375,66.15,-420.436,0,0
375235.7,65.8283,-420.355,0,0
375496.025,65.4796,-420.129,0,0
375756.35,65.1418,-419.987,0,0
376016.675,64.7528,-419.765,0,0
376277.0,64.4196,-419.581,0,0
376537.325,64.0993,-419.379,0,0
376797.65,63.7544,-419.135,0,0
377057.975,63.493,-418.912,0,0
377318.3,63.1193,-418.715,0,0
377578.625,62.8229,-418.541,0,0
377838.95,62.5105,-418.379,0,0
378099.275,62.1573,-418.242,0,0
378359.6,61.7925,-418.133,0,0
378619.925,61.2902,-418.076,0,0
378880,60.7421,-417.886,0,0
379141,60.1042,-417.696,0,0
379401,59.4892,-417.502,0,0
379661,58.7108,-417.139,0,0
379922,57.9743,-416.631,0,0
380182,57.3289,-416.002,0,0
380442,56.7475,-415.252,0,0
380703,56.2653,-414.429,0,0
380963,56.0106,-413.599,0,0
381223,55.86,-412.805,0,0
381483,55.8046,-412.134,0,0
381744,55.8787,-411.573,0,0
382004,55.8742,-411.138,0,0
382264,55.9125,-410.836,0,0
382525,55.8432,-410.599,0,0
382785,55.6893,-410.361,0,0
383045,55.4519,-410.226,0,0
383306,55.1568,-410.017,0,0
383566,54.7989,-409.827,0,0
383826,54.3565,-409.586,0,0
384087,53.9514,-409.294,0,0
384347,53.4622,-408.921,0,0
384607,52.9989,-408.579,0,0
384868,52.5151,-408.174,0,0
385128,52.0145,-407.686,0,0
385388,51.5341,-407.212,0,0
385649,51.0514,-406.658,0,0
385909,50.635,-406.082,0,0
386169,50.1796,-405.472,0,0
386430,49.7575,-404.851,0,0
386690,49.3792,-404.24,0,0
386950,48.9905,-403.57,0,0
387211,48.6649,-402.949,0,0
387471,48.3486,-402.271,0,0
387731,48.0018,-401.627,0,0
387992,47.6963,-400.894,0,0
388252,47.408,-400.206,0,0
388512,47.1436,-399.521,0,0
388773,46.9094,-398.774,0,0
389033,46.6882,-397.985,0,0
389293,46.5445,-397.217,0,0
389554,46.4341,-396.471,0,0
389814,46.3781,-395.766,0,0
390074,46.3816,-395.046,0,0
390335,46.3938,-394.372,0,0
390595,46.4934,-393.735,0,0
390855,46.5092,-393.237,0,0
391116,46.5783,-392.756,0,0
391376,46.6092,-392.324,0,0
391636,46.6206,-391.949,0,0
391896,46.5275,-391.608,0,0
392157,46.4006,-391.248,0,0
392417,46.206,-390.97,0,0
392677,45.9289,-390.592,0,0
392938,45.6363,-390.202,0,0
393198,45.3008,-389.81,0,0
393458,44.926,-389.336,0,0
393719,44.539,-388.836,0,0
393979,44.1592,-388.268,0,0
394239,43.7678,-387.655,0,0
394500,43.3827,-387.009,0,0
394760.05,42.992,-386.31,0,0
395020.375,42.6516,-385.537,0,0
395280.7,42.3052,-384.748,0,0
395541.025,42.0297,-383.925,0,0
395801.35,41.757,-383.062,0,0
396061.675,41.6121,-382.219,0,0
396322.0,41.4715,-381.361,0,0
396582.325,41.3303,-380.49,0,0
396842.65,41.2898,-379.628,0,0
397102.975,41.1706,-378.779,0,0
397363.3,41.1821,-377.922,0,0
397623.625,41.1903,-377.032,0,0
397883.95,41.2098,-376.229,0,0
398144.275,41.3174,-375.394,0,0
398404.6,41.3919,-374.556,0,0
398664.925,41.5007,-373.79,0,0
398925.25,41.6044,-373.024,0,0
399185.575,41.7562,-372.267,0,0
399445.9,41.8943,-371.557,0,0
399706.225,42.0729,-370.83,0,0
399966.55,42.2075,-370.114,0,0
400006.6,42.254,-369.993,0,0