File: Accelerated corrosion test data/2025-10-21_06-00-04/sample_3.csv
Frequency (Hz),Impedance (ohms),Phase (Radians),Temperature (C),Humidity (%)
10000.0,251.408,-11913.5,0,0
10260.325,245.568,-11612.9,0,0
10520.65,239.748,-11327.2,0,0
10780.975,235.956,-11054.6,0,0
11041.3,229.252,-10799.9,0,0
11301.625,224.118,-10552.3,0,0
11561.95,219.37,-10316.2,0,0
11822.275,214.779,-10089.5,0,0
12082.6,212.208,-9874.22,0,0
12342.925,210.874,-9666.64,0,0
12603.25,203.562,-9470.22,0,0
12863.575,199.778,-9278.16,0,0
13123.9,200.421,-9092.85,0,0
13384.225,192.878,-8923.21,0,0
13644.55,189.599,-8752.02,0,0
13904.875,185.831,-8587.78,0,0
14165.2,185.415,-8431.62,0,0
14425.525,182.188,-8278.06,0,0
14685.8,179.215,-8131.5,0,0
14946.175,176.075,-7990.92,0,0
15206.5,175.174,-7848.49,0,0
15466.825,184.365,-7709.48,0,0
15727.15,193.601,-7608.52,0,0
15987.5,171.339,-7493.35,0,0
16247.8,167.898,-7364.13,0,0
16508.125,161.507,-7249.06,0,0
16768.45,169.156,-7127.91,0,0
17028.775,158.017,-7027.71,0,0
17289.1,164.196,-6914.1,0,0
17549.425,156.349,-6820.68,0,0
17809.75,156.789,-6715.73,0,0
18070.075,162.39,-6629.11,0,0
18330.4,152.265,-6532.24,0,0
18590.725,148.629,-6441.03,0,0
18851.05,146.099,-6349.37,0,0
19111.375,146.022,-6259.75,0,0
19371.7,145.731,-6174.71,0,0
19632.025,147.701,-6089.43,0,0
19892.35,147.747,-6011.98,0,0
20152.675,149.283,-5930.82,0,0
20413.0,164.909,-5856.97,0,0
20673.3,164.501,-5787.42,0,0
20933.65,164.069,-5733.94,0,0
21193.975,162.501,-5669.25,0,0
21454.3,145.322,-5606.74,0,0
21714.625,139.554,-5530.61,0,0
21974.9,145.704,-5465.47,0,0
22235.275,138.505,-5404.92,0,0
22495.6,136.408,-5342.73,0,0
22755.925,128.821,-5282.1,0,0
23016.25,128.242,-5221.72,0,0
23276.6,128.512,-5159.08,0,0
23536.9,129.551,-5113.17,0,0
23797.225,121.504,-5053.62,0,0
24057.55,119.508,-4995.7,0,0
24317.875,120.181,-4940.11,0,0
24578.2,117.104,-4889.46,0,0
24838.525,118.292,-4835.63,0,0
25098.85,116.153,-4787.92,0,0
25359.175,114.031,-4738.04,0,0
25619.5,114.138,-4689.7,0,0
25879.8,111.257,-4642.57,0,0
26140.1,108.974,-4594.49,0,0
26400.5,108.601,-4547.57,0,0
26660.8,108.26,-4501.71,0,0
26921.1,109.343,-4456.93,0,0
27181.4,109.131,-4416.54,0,0
27441.8,107.784,-4372.2,0,0
27702.1,108.786,-4331.81,0,0
27962.4,105.974,-4291.6,0,0
28222.7,104.061,-4247.37,0,0
28483.1,112.13,-4204.49,0,0
28743.4,115.301,-4170.48,0,0
29003.7,116.225,-4142.06,0,0
29264,107.556,-4107.18,0,0
29524.4,109.362,-4069.32,0,0
29784.7,104.715,-4034.07,0,0
30045,102.477,-3999.81,0,0
30305.3,101.391,-3962.1,0,0
30565.7,102.818,-3928.07,0,0
30826,101.875,-3895.76,0,0
31086.3,103.169,-3862.39,0,0
31346.6,99.5131,-3832.09,0,0
31607,98.1817,-3797.56,0,0
31867.3,98.4988,-3762.91,0,0
32127.6,102.148,-3728.57,0,0
32387.9,112.014,-3700.79,0,0
32648.3,114.768,-3684.25,0,0
32908.6,103.686,-3659.4,0,0
33168.9,101.719,-3631.23,0,0
33429.2,99.4802,-3604.52,0,0
33689.6,93.1932,-3576.36,0,0
33949.9,91.302,-3545.64,0,0
34210.2,91.2331,-3517.59,0,0
34470.5,90.0804,-3491.27,0,0
34730.9,88.0866,-3464.79,0,0
34991.2,86.8341,-3437.78,0,0
35251.5,86.007,-3411.33,0,0
35511.8,85.0702,-3385.86,0,0
35772.2,84.3162,-3360.46,0,0
36032.5,83.5814,-3335.6,0,0
36292.8,82.8945,-3310.6,0,0
36553.1,82.6776,-3286.71,0,0
36813.5,81.6793,-3263.2,0,0
37073.8,81.1561,-3239.52,0,0
37334.1,80.2502,-3216.19,0,0
37594.4,80.1427,-3193.47,0,0
37854.8,79.5468,-3170.89,0,0
38115.1,78.8736,-3148.9,0,0
38375.4,78.2379,-3126.75,0,0
38635.7,78.2591,-3104.94,0,0
38896.1,77.6089,-3083.77,0,0
39156.4,77.3848,-3062.6,0,0
39416.7,77.1164,-3042.37,0,0
39677,76.5261,-3021.99,0,0
39937.4,75.8494,-3001.49,0,0
40197.7,75.5439,-2981.4,0,0
40458,75.0852,-2961.84,0,0
40718.3,74.7773,-2942.15,0,0
40978.7,74.3851,-2922.56,0,0
41239,74.3948,-2903.42,0,0
41499.3,74.4821,-2884.9,0,0
41759.6,74.6941,-2866.42,0,0
42020,73.8899,-2848.92,0,0
42280.275,73.6106,-2830.46,0,0
42540.6,73.1854,-2812.79,0,0
42800.925,73.5142,-2795.64,0,0
43061.25,72.7268,-2778.5,0,0
43321.575,72.2789,-2760.96,0,0
43581.9,71.9708,-2743.69,0,0
43842.225,72.1415,-2726.5,0,0
44102.55,72.0387,-2709.97,0,0
44362.875,72.0992,-2694.1,0,0
44623.2,71.5056,-2678.1,0,0
44883.525,71.3845,-2661.93,0,0
45143.85,71.1602,-2646.15,0,0
45404.175,70.6064,-2630.63,0,0
45664.5,70.2417,-2614.55,0,0
45924.825,71.054,-2599.29,0,0
46185.15,70.3389,-2584.96,0,0
46445.475,69.8019,-2569.56,0,0
46705.8,69.9236,-2553.94,0,0
46966.125,70.3065,-2539.92,0,0
47226.45,69.6265,-2525.49,0,0
47486.775,69.9029,-2510.76,0,0
47747.1,70.4229,-2496.36,0,0
48007.425,70.554,-2483.46,0,0
48267.75,70.6847,-2469.92,0,0
48528.075,69.9479,-2456.9,0,0
48788.4,69.2756,-2443.57,0,0
49048.725,68.594,-2430.3,0,0
49309.05,67.9548,-2416.62,0,0
49569.375,67.9525,-2403.28,0,0
49829.7,67.7404,-2390.41,0,0
50090.025,66.9796,-2377.59,0,0
50350.35,66.639,-2364.36,0,0
50610.675,66.3065,-2351.28,0,0
50871.0,66.367,-2338.5,0,0
51131.325,66.1875,-2326.02,0,0
51391.65,66.0913,-2313.29,0,0
51651.975,66.2353,-2301.03,0,0
51912.3,66.1169,-2289.04,0,0
52172.625,65.8287,-2277.07,0,0
52432.95,65.8512,-2264.75,0,0
52693.275,66.1134,-2252.64,0,0
52953.6,66.3647,-2240.84,0,0
53213.925,66.8944,-2229,0,0
53474.25,67.6111,-2217.86,0,0
53734.575,67.9065,-2207.1,0,0
53994.9,68.1644,-2196.04,0,0
54255.225,69.0071,-2185.18,0,0
54515.55,69.7177,-2175.59,0,0
54775.875,69.2365,-2166.36,0,0
55036.2,68.6216,-2156.1,0,0
55296.525,68.0532,-2146.71,0,0
55556.85,66.9684,-2136.88,0,0
55817.175,65.0948,-2126.52,0,0
56077.5,64.1612,-2115.63,0,0
56337.825,63.3776,-2105.07,0,0
56598.15,62.4842,-2094.55,0,0
56858.475,61.6628,-2083.81,0,0
57118.8,61.1807,-2072.84,0,0
57379.125,60.991,-2062.2,0,0
57639.45,60.9671,-2051.63,0,0
57899.775,61.1377,-2041.25,0,0
58160.1,61.0917,-2031.38,0,0
58420.4,60.8536,-2021.33,0,0
58680.7,60.9131,-2011.19,0,0
58941.1,61.017,-2001.15,0,0
59201.4,61.2902,-1991.14,0,0
59461.7,61.6667,-1981.57,0,0
59722,61.9006,-1971.96,0,0
59982.4,62.1001,-1962.55,0,0
60242.7,62.3475,-1953.16,0,0
60503,62.6151,-1943.85,0,0
60763.3,62.9115,-1934.55,0,0
61023.7,63.0274,-1925.23,0,0
61284,63.4088,-1916.11,0,0
61544.3,63.934,-1906.86,0,0
61804.6,64.54,-1898.18,0,0
62065,64.7051,-1889.19,0,0
62325.3,65.4244,-1880.12,0,0
62585.6,65.9831,-1871.47,0,0
62845.9,66.3743,-1862.51,0,0
63106.3,67.3851,-1853.31,0,0
63366.6,68.6313,-1844.81,0,0
63626.9,69.5895,-1836.2,0,0
63887.2,70.8346,-1827.77,0,0
64147.6,71.9936,-1818.66,0,0
64407.9,74.6617,-1809.95,0,0
64668.2,77.2945,-1802.72,0,0
64928.5,80.1624,-1794.93,0,0
65188.9,84.1215,-1788.97,0,0
65449.2,86.7947,-1783.87,0,0
65709.5,88.7994,-1779.46,0,0
65969.8,91.9882,-1776.49,0,0
66230.2,92.0256,-1776.72,0,0
66490.5,85.7386,-1775.14,0,0
66750.8,80.8446,-1767.93,0,0
67011.1,77.9518,-1759.4,0,0
67271.5,75.4797,-1751.22,0,0
67531.8,74.6245,-1742.51,0,0
67792.1,74.4393,-1733.88,0,0
68052.4,74.8721,-1726.08,0,0
68312.8,76.1562,-1719.06,0,0
68573.1,76.0984,-1712.9,0,0
68833.4,76.2453,-1706.01,0,0
69093.7,76.9047,-1699.41,0,0
69354.1,77.4575,-1693.68,0,0
69614.4,77.4495,-1688.44,0,0
69874.7,76.83,-1683.14,0,0
70135,75.9352,-1677.32,0,0
70395.4,75.137,-1671.44,0,0
70655.7,74.0525,-1665.55,0,0
70916,72.7005,-1659.48,0,0
71176.3,71.6634,-1652.82,0,0
71436.7,70.9435,-1645.92,0,0
71697,70.1099,-1639.11,0,0
71957.3,70.0715,-1632.05,0,0
72217.6,70.3599,-1625.77,0,0
72478,70.5439,-1619.74,0,0
72738.3,70.7582,-1613.88,0,0
72998.6,70.5102,-1608.51,0,0
73258.9,69.972,-1602.8,0,0
73519.3,69.5701,-1597.06,0,0
73779.6,69.2976,-1591.5,0,0
74039.9,68.7554,-1586.15,0,0
74300.225,67.97,-1580.54,0,0
74560.55,67.2194,-1574.92,0,0
74820.875,66.535,-1569.24,0,0
75081.2,65.6345,-1563.63,0,0
75341.525,64.8418,-1557.77,0,0
75601.85,64.0211,-1552.06,0,0
75862.175,63.2118,-1546.18,0,0
76122.5,62.4626,-1540.35,0,0
76382.825,61.7905,-1534.47,0,0
76643.15,61.2059,-1528.56,0,0
76903.475,60.6129,-1522.68,0,0
77163.8,60.06,-1516.83,0,0
77424.125,59.4969,-1511.15,0,0
77684.45,58.8997,-1505.36,0,0
77944.775,58.3948,-1499.62,0,0
78205.1,57.8293,-1493.84,0,0
78465.425,57.3603,-1488.07,0,0
78725.75,56.8903,-1482.39,0,0
78986.075,56.4151,-1476.68,0,0
79246.4,56.0467,-1470.94,0,0
79506.725,55.6157,-1465.22,0,0
79767.05,55.2642,-1459.49,0,0
80027.375,54.9723,-1453.8,0,0
80287.7,54.7964,-1448.25,0,0
80548.025,54.5072,-1442.8,0,0
80808.35,54.2808,-1437.23,0,0
81068.675,53.9728,-1431.76,0,0
81329.0,53.7976,-1426.2,0,0
81589.325,53.6007,-1420.78,0,0
81849.65,53.4772,-1415.35,0,0
82109.975,53.2904,-1410.01,0,0
82370.3,53.1511,-1404.61,0,0
82630.625,53.0602,-1399.32,0,0
82890.95,52.9506,-1394.04,0,0
83151.275,52.8507,-1388.8,0,0
83411.6,52.7335,-1383.63,0,0
83671.925,52.6791,-1378.38,0,0
83932.25,52.6143,-1373.27,0,0
84192.575,52.5781,-1368.16,0,0
84452.9,52.5569,-1363.06,0,0
84713.225,52.4682,-1358.02,0,0
84973.55,52.4925,-1352.98,0,0
85233.875,52.4004,-1347.99,0,0
85494.2,52.4138,-1342.94,0,0
85754.525,52.4917,-1337.93,0,0
86014.85,52.4848,-1333.02,0,0
86275.175,52.4424,-1328.16,0,0
86535.5,52.4341,-1323.27,0,0
86795.825,52.4621,-1318.38,0,0
87056.15,52.4779,-1313.48,0,0
87316.475,52.5556,-1308.62,0,0
87576.8,52.6892,-1303.81,0,0
87837.125,52.8247,-1299.1,0,0
88097.45,52.8763,-1294.33,0,0
88357.775,52.9274,-1289.51,0,0
88618.1,53.0218,-1284.63,0,0
88878.425,53.2861,-1279.79,0,0
89138.75,53.7027,-1275.03,0,0
89399.075,54.1353,-1270.42,0,0
89659.4,54.7115,-1265.81,0,0
89919.725,55.0379,-1261.44,0,0
90180,55.4901,-1257.22,0,0
90440.4,55.7331,-1252.96,0,0
90700.7,56.066,-1248.57,0,0
90961,56.5082,-1244.27,0,0
91221.3,56.9062,-1240.09,0,0
91481.7,57.2686,-1235.76,0,0
91742,57.7478,-1231.68,0,0
92002.3,58.1345,-1227.63,0,0
92262.6,58.5381,-1223.44,0,0
92523,59.3018,-1219.44,0,0
92783.3,59.7978,-1215.82,0,0
93043.6,60.0757,-1212.05,0,0
93303.9,60.6298,-1208.12,0,0
93564.3,61.2983,-1204.73,0,0
93824.6,62.0273,-1201.51,0,0
94084.9,62.4205,-1198.82,0,0
94345.2,62.0896,-1196.25,0,0
94605.6,61.4552,-1193.12,0,0
94865.9,60.9976,-1190.05,0,0
95126.2,59.908,-1187.09,0,0
95386.5,58.4581,-1183.43,0,0
95646.9,57.3244,-1179.24,0,0
95907.2,56.5155,-1174.91,0,0
96167.5,55.8783,-1170.51,0,0
96427.8,55.5023,-1165.96,0,0
96688.2,55.4164,-1161.56,0,0
96948.5,55.424,-1157.42,0,0
97208.8,55.3589,-1153.38,0,0
97469.1,55.2249,-1149.29,0,0
97729.5,55.1888,-1145.28,0,0
97989.8,55.1441,-1141.24,0,0
98250.1,55.1142,-1137.29,0,0
98510.4,55.1149,-1133.23,0,0
98770.8,55.2189,-1129.36,0,0
99031.1,55.1785,-1125.57,0,0
99291.4,55.054,-1121.68,0,0
99551.7,54.9862,-1117.76,0,0
99812.1,54.9275,-1113.89,0,0
100072,54.9014,-1110.01,0,0
100333,54.8892,-1106.09,0,0
100593,54.791,-1102.2,0,0
100853,54.6781,-1098.13,0,0
101114,54.7515,-1094.02,0,0
101374,54.903,-1089.97,0,0
101634,55.0144,-1085.91,0,0
101895,55.2934,-1081.78,0,0
102155,55.6747,-1077.67,0,0
102415,56.2419,-1073.44,0,0
102676,57.1482,-1069.47,0,0
102936,58.0877,-1065.82,0,0
103196,58.881,-1062.52,0,0
103457,59.3409,-1059.2,0,0
103717,59.9651,-1055.66,0,0
103977,60.7352,-1052.15,0,0
104238,61.6435,-1048.94,0,0
104498,62.6643,-1046.14,0,0
104758,63.1518,-1043.61,0,0
105019,63.2509,-1040.93,0,0
105279,63.3385,-1038.05,0,0
105539,63.5832,-1035.17,0,0
105800,63.6887,-1032.5,0,0
106060,63.5983,-1029.78,0,0
106320.175,63.3093,-1027.01,0,0
106580.5,62.9647,-1024,0,0
106840.825,62.815,-1021.06,0,0
107101.15,62.3306,-1018.1,0,0
107361.475,61.9199,-1014.84,0,0
107621.8,61.5669,-1011.64,0,0
107882.125,61.207,-1008.35,0,0
108142.45,60.8883,-1005.05,0,0
108402.775,60.5053,-1001.75,0,0
108663.1,60.0158,-998.263,0,0
108923.425,59.6548,-994.58,0,0
109183.75,59.4336,-990.813,0,0
109444.075,59.4518,-987.104,0,0
109704.4,59.4525,-983.51,0,0
109964.725,59.4148,-979.856,0,0
110225.05,59.457,-976.239,0,0
110485.375,59.4986,-972.379,0,0
110745.7,59.9022,-968.574,0,0
111006.025,60.4164,-964.913,0,0
111266.35,61.0926,-961.346,0,0
111526.675,61.3871,-958.034,0,0
111787.0,61.983,-954.804,0,0
112047.325,62.4069,-951.571,0,0
112307.65,62.9158,-948.331,0,0
112567.975,63.3556,-945.306,0,0
112828.3,63.6415,-942.141,0,0
113088.625,64.0113,-939.031,0,0
113348.95,64.1657,-936.013,0,0
113609.275,64.3638,-932.848,0,0
113869.6,64.5269,-929.615,0,0
114129.925,64.7359,-926.327,0,0
114390.25,64.975,-923.126,0,0
114650.575,65.1093,-919.677,0,0
114910.9,65.3688,-916.201,0,0
115171.225,65.819,-912.677,0,0
115431.55,66.4046,-909.225,0,0
115691.875,66.9937,-905.91,0,0
115952.2,67.5117,-902.528,0,0
116212.525,68.0731,-899.112,0,0
116472.85,68.8096,-895.63,0,0
116733.175,69.7474,-892.213,0,0
116993.5,70.6137,-889.021,0,0
117253.825,71.396,-885.742,0,0
117514.15,72.246,-882.245,0,0
117774.475,73.5936,-878.592,0,0
118034.8,75.5437,-875.43,0,0
118295.125,77.1879,-872.964,0,0
118555.45,78.6177,-870.603,0,0
118815.775,79.6022,-868.3,0,0
119076.1,80.7714,-865.355,0,0
119336.425,82.4331,-862.742,0,0
119596.75,84.3851,-860.485,0,0
119857.075,86.268,-858.653,0,0
120117.4,88.3324,-857.521,0,0
120377.725,89.5039,-857.35,0,0
120638.05,89.6086,-856.821,0,0
120898.375,89.5024,-856.091,0,0
121158.7,88.6526,-855.124,0,0
121419.025,87.5248,-853.444,0,0
121679.35,86.4708,-851.163,0,0
121939.675,85.735,-848.399,0,0
122200.0,85.4299,-845.525,0,0
122460,85.2618,-842.652,0,0
122721,85.3886,-839.704,0,0
122981,85.7218,-836.871,0,0
123241,86.2227,-834.215,0,0
123502,86.6871,-831.815,0,0
123762,86.9903,-829.418,0,0
124022,87.3618,-826.952,0,0
124283,87.8189,-824.539,0,0
124543,88.2756,-822.219,0,0
124803,88.6688,-819.997,0,0
125064,89.0022,-817.758,0,0
125324,89.4761,-815.494,0,0
125584,89.966,-813.345,0,0
125845,90.4283,-811.419,0,0
126105,90.7097,-809.588,0,0
126365,90.7624,-807.785,0,0
126626,90.773,-805.783,0,0
126886,90.7237,-803.757,0,0
127146,90.709,-801.639,0,0
127406,90.839,-799.582,0,0
127667,90.7662,-797.637,0,0
127927,90.6207,-795.685,0,0
128187,90.4028,-793.655,0,0
128448,89.9123,-791.616,0,0
128708,89.4811,-789.258,0,0
128968,89.165,-786.762,0,0
129229,89.06,-784.169,0,0
129489,88.9763,-781.736,0,0
129749,88.7457,-779.302,0,0
130010,88.6628,-776.611,0,0
130270,88.8855,-773.878,0,0
130530,89.3015,-771.493,0,0
130791,89.6628,-769.369,0,0
131051,89.834,-767.364,0,0
131311,89.7972,-765.397,0,0
131572,89.6075,-763.419,0,0
131832,89.2388,-761.317,0,0
132092,88.9054,-759.004,0,0
132353,88.6211,-756.614,0,0
132613,88.4139,-754.202,0,0
132873,88.2886,-751.853,0,0
133134,88.0724,-749.61,0,0
133394,87.7686,-747.261,0,0
133654,87.4337,-744.931,0,0
133915,87.0121,-742.469,0,0
134175,86.6565,-739.792,0,0
134435,86.5025,-737.206,0,0
134696,86.279,-734.739,0,0
134956,85.9916,-732.253,0,0
135216,85.6345,-729.605,0,0
135477,85.4072,-726.935,0,0
135737,85.2189,-724.348,0,0
135997,84.8994,-721.773,0,0
136258,84.4181,-719.105,0,0
136518,84.0413,-716.178,0,0
136778,83.7422,-713.138,0,0
137039,83.6292,-710.063,0,0
137299,83.6035,-707.022,0,0
137559,83.7248,-703.928,0,0
137819,83.9831,-700.974,0,0
138080,84.288,-698.182,0,0
138340.125,84.5982,-695.457,0,0
138600.45,84.9073,-692.81,0,0
138860.775,85.1347,-690.361,0,0
139121.1,85.1509,-687.97,0,0
139381.425,85.0591,-685.506,0,0
139641.75,84.8718,-682.936,0,0
139902.075,84.6071,-680.165,0,0
140162.4,84.5147,-677.352,0,0
140422.725,84.4911,-674.625,0,0
140683.05,84.3575,-671.975,0,0
140943.375,84.1164,-669.27,0,0
141203.7,83.8078,-666.473,0,0
141464.025,83.445,-663.59,0,0
141724.35,83.0326,-660.549,0,0
141984.675,82.7076,-657.318,0,0
142245.0,82.5536,-654.059,0,0
142505.325,82.4004,-650.828,0,0
142765.65,82.2592,-647.508,0,0
143025.975,82.1625,-644.127,0,0
143286.3,82.1426,-640.645,0,0
143546.625,82.1556,-637.22,0,0
143806.95,82.2175,-633.754,0,0
144067.275,82.3004,-630.266,0,0
144327.6,82.4308,-626.631,0,0
144587.925,82.6939,-623.015,0,0
144848.25,83.0237,-619.369,0,0
145108.575,83.4196,-615.781,0,0
145368.9,83.8125,-612.231,0,0
145629.225,84.1325,-608.663,0,0
145889.55,84.429,-604.989,0,0
146149.875,84.7748,-601.126,0,0
146410.2,85.3722,-597.194,0,0
146670.525,86.0535,-593.425,0,0
146930.85,86.6376,-589.569,0,0
147191.175,87.3581,-585.593,0,0
147451.5,88.1703,-581.615,0,0
147711.825,89.1003,-577.589,0,0
147972.15,90.1566,-573.631,0,0
148232.475,91.1971,-569.701,0,0
148492.8,92.2875,-565.715,0,0
148753.125,93.4428,-561.666,0,0
149013.45,94.6944,-557.569,0,0
149273.775,96.0553,-553.354,0,0
149534.1,97.6556,-549.095,0,0
149794.425,99.5483,-544.861,0,0
150054.75,101.603,-540.847,0,0
150315.075,103.711,-536.928,0,0
150575.4,105.883,-533.174,0,0
150835.725,108.086,-529.43,0,0
151096.05,110.45,-525.768,0,0
151356.375,112.914,-522.206,0,0
151616.7,115.489,-518.826,0,0
151877.025,118.109,-515.679,0,0
152137.35,120.672,-512.758,0,0
152397.675,123.052,-509.958,0,0
152658.0,125.347,-507.152,0,0
152918.325,127.61,-504.381,0,0
153178.65,129.852,-501.715,0,0
153438.975,131.899,-499.089,0,0
153699.3,133.87,-496.333,0,0
153959.625,135.896,-493.516,0,0
154219.95,137.999,-490.796,0,0
154480,139.954,-488.239,0,0
154741,141.557,-485.48,0,0
155001,143.179,-482.321,0,0
155261,145.151,-479.013,0,0
155522,147.422,-475.834,0,0
155782,149.665,-472.747,0,0
156042,151.691,-469.88,0,0
156303,153.627,-466.739,0,0
156563,155.669,-463.311,0,0
156823,158.027,-459.562,0,0
157084,160.89,-455.887,0,0
157344,164.304,-452.466,0,0
157604,168.011,-449.703,0,0
157864,171.623,-447.772,0,0
158125,174.393,-446.589,0,0
158385,176.205,-445.159,0,0
158645,177.598,-443.278,0,0
158906,178.74,-440.857,0,0
159166,179.554,-438.22,0,0
159426,180.164,-434.636,0,0
159687,181.318,-430.514,0,0
159947,182.406,-425.948,0,0
160207,184.171,-420.409,0,0
160468,187.297,-414.822,0,0
160728,190.942,-410.199,0,0
160988,193.906,-406.033,0,0
161249,196.357,-400.803,0,0
161509,200.107,-394.482,0,0
161769,205.145,-388.775,0,0
162030,210.512,-383.84,0,0
162290,215.631,-379.151,0,0
162550,221.046,-374.007,0,0
162811,226.908,-369.265,0,0
163071,232.893,-364.239,0,0
163331,239.582,-358.881,0,0
163592,247.423,-353.439,0,0
163852,256.494,-348.84,0,0
164112,266.184,-345.502,0,0
164373,275.745,-342.9,0,0
164633,285.417,-340.663,0,0
164893,295.758,-338.676,0,0
165154,306.89,-337.967,0,0
165414,317.926,-338.673,0,0
165674,328.603,-340.443,0,0
165935,338.771,-342.929,0,0
166195,348.906,-345.647,0,0
166455,359.439,-349.606,0,0
166716,369.165,-355.136,0,0
166976,377.718,-361.499,0,0
167236,385.104,-368.184,0,0
167497,391.803,-375.153,0,0
167757,397.28,-382.374,0,0
168017,402.287,-389.396,0,0
168277,406.581,-396.562,0,0
168538,410.334,-403.719,0,0
168798,413.387,-410.752,0,0
169058,416.178,-417.815,0,0
169319,418.242,-425.442,0,0
169579,419.056,-433.209,0,0
169839,418.404,-440.644,0,0
170100,416.202,-446.803,0,0
170360.075,413.821,-451.004,0,0
170620.4,412.162,-453.944,0,0
170880.725,411.209,-456.731,0,0
171141.05,410.087,-459.36,0,0
171401.375,409.239,-460.954,0,0
171661.7,409.441,-462.451,0,0
171922.025,409.715,-464.536,0,0
172182.35,409.68,-466.399,0,0
172442.675,409.789,-467.566,0,0
172703.0,410.895,-468.277,0,0
172963.325,413.308,-469.733,0,0
173223.65,415.607,-472.873,0,0
173483.975,416.516,-476.481,0,0
173744.3,416.53,-479.352,0,0
174004.625,416.847,-481.05,0,0
174264.95,418.549,-482.461,0,0
174525.275,421.153,-485.381,0,0
174785.6,422.686,-489.811,0,0
175045.925,423.024,-493.565,0,0
175306.25,423.703,-496.587,0,0
175566.575,425.545,-500.061,0,0
175826.9,427.328,-505.268,0,0
176087.225,427.75,-511.56,0,0
176347.55,427.072,-517.92,0,0
176607.875,425.547,-524.579,0,0
176868.2,422.583,-531.87,0,0
177128.525,416.823,-538.666,0,0
177388.85,409.449,-543.158,0,0
177649.175,402.391,-545.084,0,0
177909.5,396.322,-546.306,0,0
178169.825,389.576,-547.207,0,0
178430.15,382.505,-546.017,0,0
178690.475,376.755,-542.953,0,0
178950.8,372.713,-539.344,0,0
179211.125,369.876,-535.738,0,0
179471.45,368.064,-532.36,0,0
179731.775,366.745,-529.277,0,0
179992.1,366.132,-526.136,0,0
180252.425,366.253,-523.718,0,0
180512.75,366.334,-521.645,0,0
180773.075,366.914,-519.543,0,0
181033.4,368.042,-518.055,0,0
181293.725,369.451,-517.202,0,0
181554.05,370.852,-517.114,0,0
181814.375,372.119,-517.659,0,0
182074.7,372.963,-518.994,0,0
182335.025,372.933,-520.577,0,0
182595.35,372.49,-522.219,0,0
182855.675,371.346,-523.951,0,0
183116.0,369.787,-525.306,0,0
183376.325,367.899,-526.664,0,0
183636.65,365.451,-527.775,0,0
183896.975,362.565,-528.456,0,0
184157.3,359.501,-528.451,0,0
184417.625,356.787,-528.301,0,0
184677.95,353.488,-528.404,0,0
184938.275,349.433,-527.549,0,0
185198.6,345.597,-525.772,0,0
185458.925,342.043,-523.374,0,0
185719.25,338.766,-520.678,0,0
185979.575,335.527,-517.478,0,0
186239.9,332.634,-513.475,0,0
186500,330.518,-508.795,0,0
186761,329.519,-503.987,0,0
187021,329.306,-499.771,0,0
187281,329.236,-495.994,0,0
187542,329.182,-492.466,0,0
187802,329.148,-488.97,0,0
188062,329.208,-485.471,0,0
188322,329.496,-482.121,0,0
188583,329.59,-478.933,0,0
188843,329.474,-475.459,0,0
189103,329.503,-471.452,0,0
189364,330.188,-467.112,0,0
189624,331.496,-462.895,0,0
189884,333.214,-458.976,0,0
190145,335.14,-455.393,0,0
190405,337.207,-452.169,0,0
190665,339.174,-449.272,0,0
190926,341.053,-446.504,0,0
191186,342.804,-443.713,0,0
191446,344.642,-441.006,0,0
191707,346.206,-438.402,0,0
191967,347.627,-435.46,0,0
192227,349.214,-432.348,0,0
192488,350.746,-429.054,0,0
192748,352.517,-425.296,0,0
193008,354.7,-421.298,0,0
193269,357.405,-417.166,0,0
193529,360.815,-413.113,0,0
193789,364.751,-409.48,0,0
194050,368.751,-406.335,0,0
194310,372.732,-403.363,0,0
194570,376.888,-400.393,0,0
194831,381.199,-397.624,0,0
195091,385.604,-394.815,0,0
195351,390.42,-391.873,0,0
195612,396.139,-388.908,0,0
195872,402.906,-386.818,0,0
196132,409.858,-386.135,0,0
196393,416.42,-386.461,0,0
196653,422.525,-387.499,0,0
196913,427.999,-389.316,0,0
197174,432.507,-391.204,0,0
197434,436.79,-393.056,0,0
197694,440.628,-395.299,0,0
197955,443.772,-397.674,0,0
198215,445.983,-399.723,0,0
198475,448.094,-401.266,0,0
198735,450.007,-402.802,0,0
198996,451.343,-404.063,0,0
199256,452.47,-404.431,0,0
199516,454.04,-404.454,0,0
199777,455.665,-404.539,0,0
200037,456.997,-404.629,0,0
200297,457.937,-404.131,0,0
200558,458.712,-402.742,0,0
200818,460.191,-400.352,0,0
201078,462.749,-397.707,0,0
201339,465.975,-395.224,0,0
201599,469.611,-392.775,0,0
201859,473.849,-390.349,0,0
202120,478.703,-388.084,0,0
202380.025,484.411,-386.167,0,0
202640.35,490.808,-385.318,0,0
202900.675,496.863,-385.498,0,0
203161.0,502.386,-385.841,0,0
203421.325,507.977,-386.239,0,0
203681.65,513.774,-386.893,0,0
203941.975,519.697,-387.848,0,0
204202.3,525.852,-389.303,0,0
204462.625,532.022,-391.739,0,0
204722.95,537.239,-394.901,0,0
204983.275,541.811,-398.207,0,0
205243.6,545.746,-401.639,0,0
205503.925,548.799,-404.773,0,0
205764.25,551.473,-407.275,0,0
206024.575,554.003,-409.306,0,0
206284.9,555.997,-411.113,0,0
206545.225,557.827,-411.534,0,0
206805.55,560.568,-410.876,0,0
207065.875,564.611,-409.846,0,0
207326.2,569.819,-409.278,0,0
207586.525,575.419,-409.389,0,0
207846.85,581.352,-409.534,0,0
208107.175,588.071,-409.976,0,0
208367.5,595.424,-411.282,0,0
208627.825,603.131,-413.635,0,0
208888.15,610.48,-417.011,0,0
209148.475,617.298,-420.974,0,0
209408.8,623.653,-425.039,0,0
209669.125,629.874,-429.142,0,0
209929.45,636.02,-433.404,0,0
210189.775,642.342,-437.917,0,0
210450.1,648.646,-442.939,0,0
210710.425,654.851,-448.316,0,0
210970.75,660.866,-454.229,0,0
211231.075,666.704,-460.456,0,0
211491.4,672.107,-467.211,0,0
211751.725,676.882,-474.001,0,0
212012.05,681.522,-480.579,0,0
212272.375,686.347,-487.265,0,0
212532.7,691.216,-494.22,0,0
212793.025,696.075,-501.694,0,0
213053.35,700.79,-509.755,0,0
213313.675,705.059,-518.526,0,0
213574.0,708.499,-527.867,0,0
213834.325,710.855,-537.122,0,0
214094.65,712.765,-546.045,0,0
214354.975,714.252,-554.638,0,0
214615.3,715.689,-563.063,0,0
214875.625,717.262,-571.426,0,0
215135.95,718.537,-579.893,0,0
215396.275,719.97,-588.774,0,0
215656.6,720.572,-597.974,0,0
215916.925,720.819,-606.898,0,0
216177.25,720.778,-615.81,0,0
216437.575,720.638,-624.862,0,0
216697.9,720.019,-633.976,0,0
216958.225,718.916,-642.891,0,0
217218.55,717.51,-651.845,0,0
217478.875,715.997,-660.738,0,0
217739.2,714.008,-669.632,0,0
217999.525,711.492,-678.477,0,0
218259.85,708.552,-687.058,0,0
218520,705.29,-695.265,0,0
218780,701.884,-702.977,0,0
219041,698.389,-710.304,0,0
219301,694.973,-717.452,0,0
219561,691.844,-724.54,0,0
219822,688.428,-731.739,0,0
220082,685.272,-738.697,0,0
220342,682.071,-745.94,0,0
220603,679.097,-753.635,0,0
220863,675.426,-761.819,0,0
221123,671.12,-770.236,0,0
221384,666.233,-778.548,0,0
221644,660.849,-786.876,0,0
221904,654.688,-795.4,0,0
222165,647.468,-803.377,0,0
222425,639.384,-810.791,0,0
222685,630.926,-817.472,0,0
222946,622.172,-823.294,0,0
223206,612.609,-828.521,0,0
223466,602.816,-832.315,0,0
223727,593.414,-834.698,0,0
223987,584.548,-836.599,0,0
224247,576.103,-837.635,0,0
224508,568.171,-838.092,0,0
224768,561.298,-837.907,0,0
225028,555.175,-837.509,0,0
225289,549.806,-837.235,0,0
225549,545.117,-837.209,0,0
225809,540.715,-837.604,0,0
226070,536.577,-838.339,0,0
226330,532.672,-839.453,0,0
226590,528.602,-840.643,0,0
226851,524.914,-841.995,0,0
227111,521.458,-843.854,0,0
227371,517.581,-846.479,0,0
227632,513.029,-849.41,0,0
227892,507.723,-851.913,0,0
228152,502.153,-853.904,0,0
228413,496.667,-855.395,0,0
228673,491.456,-856.934,0,0
228933,486.196,-858.155,0,0
229193,481.257,-859.294,0,0
229454,476.353,-860.75,0,0
229714,471.347,-862.304,0,0
229974,465.878,-863.968,0,0
230235,460.238,-865.192,0,0
230495,454.212,-866.491,0,0
230755,448.356,-867.011,0,0
231016,442.532,-867.32,0,0
231276,436.743,-867.408,0,0
231536,431.193,-867.31,0,0
231797,425.845,-867.126,0,0
232057,420.544,-866.817,0,0
232317,415.319,-866.428,0,0
232578,410.241,-865.941,0,0
232838,405.386,-865.463,0,0
233098,400.506,-864.988,0,0
233359,395.658,-864.481,0,0
233619,390.816,-863.781,0,0
233879,386.041,-863.187,0,0
234140,381.378,-862.252,0,0
234400,376.961,-861.504,0,0
234660.3,372.592,-860.75,0,0
234920.625,368.199,-860.211,0,0
235180.95,363.724,-859.765,0,0
235441.275,359.278,-859.3,0,0
235701.6,354.39,-858.751,0,0
235961.925,349.491,-858.11,0,0
236222.25,344.301,-857.312,0,0
236482.575,339.174,-856.07,0,0
236742.9,334.284,-854.666,0,0
237003.225,329.445,-853.181,0,0
237263.55,324.622,-851.707,0,0
237523.875,319.803,-850.168,0,0
237784.2,314.677,-848.376,0,0
238044.525,309.775,-846.269,0,0
238304.85,304.99,-843.864,0,0
238565.175,300.346,-841.422,0,0
238825.5,295.885,-838.851,0,0
239085.825,291.476,-835.968,0,0
239346.15,287.371,-833.339,0,0
239606.475,283.362,-830.369,0,0
239866.8,279.321,-827.248,0,0
240127.125,275.643,-824.3,0,0
240387.45,271.981,-821.35,0,0
240647.775,268.233,-818.212,0,0
240908.1,264.564,-814.876,0,0
241168.425,261.04,-811.322,0,0
241428.75,257.722,-807.559,0,0
241689.075,254.784,-803.55,0,0
241949.4,252.17,-799.541,0,0
242209.725,249.959,-795.495,0,0
242470.05,248.109,-791.561,0,0
242730.375,246.516,-787.743,0,0
242990.7,245.351,-784.113,0,0
243251.025,244.365,-780.962,0,0
243511.35,243.318,-778.164,0,0
243771.675,242.223,-775.718,0,0
244032.0,240.94,-773.527,0,0
244292.325,239.281,-771.326,0,0
244552.65,237.437,-768.851,0,0
244812.975,235.659,-766.282,0,0
245073.3,234.005,-763.431,0,0
245333.625,232.536,-760.624,0,0
245593.95,231.088,-757.86,0,0
245854.275,229.834,-755.042,0,0
246114.6,228.566,-752.308,0,0
246374.925,227.544,-749.529,0,0
246635.25,226.419,-746.803,0,0
246895.575,225.578,-744.225,0,0
247155.9,224.591,-741.804,0,0
247416.225,223.614,-739.261,0,0
247676.55,222.609,-736.68,0,0
247936.875,221.674,-733.949,0,0
248197.2,220.89,-731.101,0,0
248457.525,220.386,-728.186,0,0
248717.85,220.33,-725.465,0,0
248978.175,220.517,-722.946,0,0
249238.5,220.753,-720.874,0,0
249498.825,220.91,-719.141,0,0
249759.15,220.917,-717.674,0,0
250019.475,220.761,-716.123,0,0
250279.8,220.519,-714.826,0,0
250540,220.138,-713.665,0,0
250800,219.522,-712.484,0,0
251061,218.781,-711.283,0,0
251321,218.013,-710.055,0,0
251581,216.998,-708.869,0,0
251842,215.849,-707.525,0,0
252102,214.604,-706.121,0,0
252362,213.267,-704.581,0,0
252623,211.861,-702.894,0,0
252883,210.493,-700.997,0,0
253143,209.204,-699.056,0,0
253404,207.854,-696.984,0,0
253664,206.413,-694.711,0,0
253924,205.077,-692.199,0,0
254185,203.949,-689.495,0,0
254445,202.872,-686.634,0,0
254705,201.986,-683.736,0,0
254966,201.551,-680.738,0,0
255226,200.821,-677.71,0,0
255486,200.499,-674.492,0,0
255747,200.392,-671.076,0,0
256007,200.612,-667.685,0,0
256267,201.218,-664.387,0,0
256528,202.194,-661.264,0,0
256788,203.224,-658.401,0,0
257048,204.416,-655.641,0,0
257309,205.618,-653.046,0,0
257569,206.958,-650.523,0,0
257829,208.382,-648.067,0,0
258090,209.942,-645.71,0,0
258350,211.673,-643.423,0,0
258610,213.5,-641.268,0,0
258871,215.564,-639.238,0,0
259131,217.706,-637.304,0,0
259391,220.215,-635.482,0,0
259651,222.876,-633.953,0,0
259912,225.656,-632.752,0,0
260172,228.68,-631.862,0,0
260432,231.846,-631.035,0,0
260693,235.307,-630.651,0,0
260953,239.127,-630.889,0,0
261213,242.946,-631.969,0,0
261474,246.348,-633.956,0,0
261734,249.149,-636.517,0,0
261994,251.332,-639.329,0,0
262255,252.944,-642.448,0,0
262515,253.949,-645.698,0,0
262775,254.345,-648.856,0,0
263036,254.294,-651.854,0,0
263296,253.887,-654.713,0,0
263556,253.223,-657.497,0,0
263817,252.226,-660.13,0,0
264077,250.918,-662.704,0,0
264337,249.207,-664.875,0,0
264598,247.433,-666.888,0,0
264858,245.482,-668.738,0,0
265118,243.512,-670.556,0,0
265379,241.232,-672.273,0,0
265639,238.599,-673.779,0,0
265899,235.743,-675.09,0,0
266160,232.741,-676.018,0,0
266420,229.471,-676.584,0,0
266680.25,226.174,-676.714,0,0
266940.575,222.793,-676.478,0,0
267200.9,219.644,-675.785,0,0
267461.225,216.646,-674.729,0,0
267721.55,213.908,-673.47,0,0
267981.875,211.326,-672.142,0,0
268242.2,208.871,-670.641,0,0
268502.525,206.585,-669.048,0,0
268762.85,204.502,-667.295,0,0
269023.175,202.527,-665.375,0,0
269283.5,200.719,-663.417,0,0
269543.825,199.097,-661.392,0,0
269804.15,197.706,-659.267,0,0
270064.475,196.476,-657.058,0,0
270324.8,195.542,-654.989,0,0
270585.125,194.713,-652.764,0,0
270845.45,194.117,-650.749,0,0
271105.775,193.633,-648.773,0,0
271366.1,193.183,-646.923,0,0
271626.425,192.866,-645.152,0,0
271886.75,192.587,-643.547,0,0
272147.075,192.328,-642.074,0,0
272407.4,191.924,-640.724,0,0
272667.725,191.408,-639.3,0,0
272928.05,190.786,-637.713,0,0
273188.375,190.317,-635.965,0,0
273448.7,189.971,-634.128,0,0
273709.025,189.719,-632.27,0,0
273969.35,189.574,-630.389,0,0
274229.675,189.558,-628.531,0,0
274490.0,189.664,-626.608,0,0
274750.325,189.905,-624.671,0,0
275010.65,190.332,-622.714,0,0
275270.975,190.884,-620.761,0,0
275531.3,191.768,-618.906,0,0
275791.625,192.735,-617.148,0,0
276051.95,193.829,-615.52,0,0
276312.275,195.153,-614.027,0,0
276572.6,196.664,-612.75,0,0
276832.925,198.261,-611.701,0,0
277093.25,199.937,-610.953,0,0
277353.575,201.547,-610.414,0,0
277613.9,203.155,-610.076,0,0
277874.225,204.758,-609.876,0,0
278134.55,206.379,-609.878,0,0
278394.875,208.011,-610.122,0,0
278655.2,209.539,-610.657,0,0
278915.525,210.924,-611.459,0,0
279175.85,212.126,-612.36,0,0
279436.175,213.155,-613.446,0,0
279696.5,214.039,-614.685,0,0
279956.825,214.688,-616.106,0,0
280217.15,215.081,-617.675,0,0
280477.475,215.229,-619.278,0,0
280737.8,215.08,-620.756,0,0
280998.125,214.708,-622.189,0,0
281258.45,214.22,-623.576,0,0
281518.775,213.553,-624.954,0,0
281779.1,212.7,-626.267,0,0
282039.425,211.602,-627.498,0,0
282299.75,210.398,-628.509,0,0
282560,209.106,-629.403,0,0
282820,207.73,-630.208,0,0
283081,206.243,-630.851,0,0
283341,204.66,-631.314,0,0
283601,203.094,-631.611,0,0
283862,201.603,-631.757,0,0
284122,200.116,-631.847,0,0
284382,198.646,-631.88,0,0
284643,197.08,-631.818,0,0
284903,195.509,-631.621,0,0
285163,194.02,-631.294,0,0
285424,192.483,-630.869,0,0
285684,191.05,-630.352,0,0
285944,189.628,-629.722,0,0
286205,188.312,-628.979,0,0
286465,187.106,-628.16,0,0
286725,185.961,-627.291,0,0
286986,184.948,-626.385,0,0
287246,184.027,-625.487,0,0
287506,183.191,-624.589,0,0
287767,182.394,-623.714,0,0
288027,181.649,-622.835,0,0
288287,180.938,-621.915,0,0
288548,180.297,-620.96,0,0
288808,179.833,-619.969,0,0
289068,179.505,-618.989,0,0
289329,179.396,-618.167,0,0
289589,179.288,-617.572,0,0
289849,179.216,-617.164,0,0
290109,178.953,-616.833,0,0
290370,178.744,-616.66,0,0
290630,178.283,-616.538,0,0
290890,177.789,-616.454,0,0
291151,177.142,-616.325,0,0
291411,176.42,-616.18,0,0
291671,175.599,-616.038,0,0
291932,174.66,-615.835,0,0
292192,173.544,-615.485,0,0
292452,172.39,-614.981,0,0
292713,171.261,-614.23,0,0
292973,170.21,-613.308,0,0
293233,169.316,-612.289,0,0
293494,168.577,-611.15,0,0
293754,167.965,-609.989,0,0
294014,167.517,-608.78,0,0
294275,167.21,-607.585,0,0
294535,167.109,-606.449,0,0
294795,167.15,-605.36,0,0
295056,167.294,-604.431,0,0
295316,167.569,-603.672,0,0
295576,167.911,-603.045,0,0
295837,168.249,-602.615,0,0
296097,168.544,-602.333,0,0
296357,168.778,-602.153,0,0
296618,168.983,-602.103,0,0
296878,169.115,-602.128,0,0
297138,169.14,-602.252,0,0
297399,169.08,-602.444,0,0
297659,168.929,-602.69,0,0
297919,168.657,-602.941,0,0
298180,168.325,-603.214,0,0
298440,167.923,-603.478,0,0
298700.2,167.459,-603.733,0,0
298960.525,166.933,-604.021,0,0
299220.85,166.316,-604.333,0,0
299481.175,165.617,-604.627,0,0
299741.5,164.779,-604.92,0,0
300001.825,163.969,-605.132,0,0
300262.15,163.026,-605.335,0,0
300522.475,162.033,-605.496,0,0
300782.8,160.953,-605.577,0,0
301043.125,159.828,-605.62,0,0
301303.45,158.688,-605.584,0,0
301563.775,157.463,-605.504,0,0
301824.1,156.195,-605.35,0,0
302084.425,154.905,-605.1,0,0
302344.75,153.63,-604.764,0,0
302605.075,152.316,-604.297,0,0
302865.4,151.095,-603.758,0,0
303125.725,149.892,-603.148,0,0
303386.05,148.76,-602.536,0,0
303646.375,147.648,-601.868,0,0
303906.7,146.534,-601.217,0,0
304167.025,145.448,-600.502,0,0
304427.35,144.365,-599.721,0,0
304687.675,143.327,-598.912,0,0
304948.0,142.301,-598.094,0,0
305208.325,141.365,-597.132,0,0
305468.65,140.47,-596.175,0,0
305728.975,139.613,-595.228,0,0
305989.3,138.836,-594.296,0,0
306249.625,138.073,-593.365,0,0
306509.95,137.31,-592.399,0,0
306770.275,136.626,-591.415,0,0
307030.6,135.995,-590.427,0,0
307290.925,135.406,-589.427,0,0
307551.25,134.885,-588.456,0,0
307811.575,134.378,-587.497,0,0
308071.9,133.928,-586.552,0,0
308332.225,133.534,-585.636,0,0
308592.55,133.166,-584.731,0,0
308852.875,132.892,-583.904,0,0
309113.2,132.584,-583.083,0,0
309373.525,132.329,-582.368,0,0
309633.85,132.131,-581.691,0,0
309894.175,131.875,-581.134,0,0
310154.5,131.616,-580.608,0,0
310414.825,131.33,-580.15,0,0
310675.15,130.973,-579.738,0,0
310935.475,130.539,-579.395,0,0
311195.8,130.004,-579.101,0,0
311456.125,129.407,-578.768,0,0
311716.45,128.699,-578.412,0,0
311976.775,127.913,-577.999,0,0
312237.1,127.092,-577.537,0,0
312497.425,126.194,-577.019,0,0
312757.75,125.279,-576.421,0,0
313018.075,124.302,-575.717,0,0
313278.4,123.314,-574.932,0,0
313538.725,122.379,-573.998,0,0
313799.05,121.473,-573.006,0,0
314059.375,120.64,-571.907,0,0
314319.7,119.845,-570.759,0,0
314580,119.119,-569.593,0,0
314840,118.544,-568.243,0,0
315101,118.044,-566.902,0,0
315361,117.668,-565.662,0,0
315621,117.444,-564.333,0,0
315882,117.252,-563.059,0,0
316142,117.143,-561.888,0,0
316402,117.093,-560.75,0,0
316663,117.108,-559.723,0,0
316923,117.123,-558.751,0,0
317183,117.122,-557.726,0,0
317444,117.185,-556.917,0,0
317704,117.221,-556.029,0,0
317964,117.306,-555.258,0,0
318225,117.311,-554.522,0,0
318485,117.442,-553.658,0,0
318745,117.571,-552.996,0,0
319006,117.563,-552.272,0,0
319266,117.679,-551.686,0,0
319526,117.728,-551.173,0,0
319787,117.763,-550.581,0,0
320047,117.68,-550.024,0,0
320307,117.588,-549.371,0,0
320567,117.533,-548.782,0,0
320828,117.585,-548.054,0,0
321088,117.725,-547.333,0,0
321348,117.772,-546.673,0,0
321609,118.077,-545.985,0,0
321869,118.296,-545.456,0,0
322129,118.668,-545.005,0,0
322390,118.979,-544.551,0,0
322650,119.38,-544.292,0,0
322910,119.711,-544.112,0,0
323171,120.137,-544.093,0,0
323431,120.364,-544.18,0,0
323691,120.631,-544.274,0,0
323952,120.719,-544.451,0,0
324212,120.737,-544.74,0,0
324472,120.598,-545.111,0,0
324733,120.377,-545.483,0,0
324993,120.137,-545.817,0,0
325253,119.672,-546.133,0,0
325514,119.285,-546.369,0,0
325774,118.6,-546.681,0,0
326034,117.97,-546.94,0,0
326295,117.195,-547.077,0,0
326555,116.467,-547.248,0,0
326815,115.606,-547.309,0,0
327076,114.691,-547.306,0,0
327336,113.743,-547.289,0,0
327596,112.82,-547.118,0,0
327857,111.831,-546.967,0,0
328117,110.89,-546.682,0,0
328377,109.892,-546.367,0,0
328638,108.951,-545.964,0,0
328898,107.989,-545.569,0,0
329158,107.142,-545.012,0,0
329419,106.186,-544.599,0,0
329679,105.416,-544.111,0,0
329939,104.569,-543.573,0,0
330200,103.796,-543.099,0,0
330460,102.905,-542.632,0,0
330720.15,101.989,-542.13,0,0
330980.475,101.185,-541.631,0,0
331240.8,100.293,-541.063,0,0
331501.125,99.3702,-540.487,0,0
331761.45,98.5499,-539.856,0,0
332021.775,97.5252,-539.238,0,0
332282.1,96.6186,-538.487,0,0
332542.425,95.7365,-537.743,0,0
332802.75,94.842,-536.977,0,0
333063.075,93.9678,-536.236,0,0
333323.4,93.0765,-535.436,0,0
333583.725,92.2562,-534.568,0,0
333844.05,91.4043,-533.687,0,0
334104.375,90.4777,-532.776,0,0
334364.7,89.6546,-531.852,0,0
334625.025,88.8687,-530.844,0,0
334885.35,87.9612,-529.849,0,0
335145.675,87.1975,-528.822,0,0
335406.0,86.4595,-527.71,0,0
335666.325,85.724,-526.582,0,0
335926.65,85.0492,-525.401,0,0
336186.975,84.4035,-524.192,0,0
336447.3,83.8092,-522.973,0,0
336707.625,83.3358,-521.735,0,0
336967.95,82.7874,-520.533,0,0
337228.275,82.3565,-519.315,0,0
337488.6,81.8578,-518.097,0,0
337748.925,81.5073,-516.857,0,0
338009.25,81.1718,-515.684,0,0
338269.575,80.7494,-514.498,0,0
338529.9,80.4344,-513.303,0,0
338790.225,80.0582,-512.126,0,0
339050.55,79.7204,-510.898,0,0
339310.875,79.3578,-509.626,0,0
339571.2,79.1492,-508.283,0,0
339831.525,78.8758,-506.889,0,0
340091.85,78.7011,-505.431,0,0
340352.175,78.6381,-504.055,0,0
340612.5,78.6389,-502.633,0,0
340872.825,78.7803,-501.231,0,0
341133.15,79.0598,-499.874,0,0
341393.475,79.2333,-498.534,0,0
341653.8,79.5749,-497.346,0,0
341914.125,80.0701,-496.067,0,0
342174.45,80.599,-494.937,0,0
342434.775,81.1487,-493.929,0,0
342695.1,81.7324,-492.959,0,0
342955.425,82.2972,-492.238,0,0
343215.75,82.9143,-491.523,0,0
343476.075,83.417,-490.958,0,0
343736.4,83.961,-490.356,0,0
343996.725,84.4132,-489.89,0,0
344257.05,84.8209,-489.442,0,0
344517.375,85.1313,-489.095,0,0
344777.7,85.4712,-488.796,0,0
345038.025,85.6703,-488.506,0,0
345298.35,85.802,-488.187,0,0
345558.675,85.9437,-487.958,0,0
345819.0,86.0035,-487.68,0,0
346079.325,85.9956,-487.438,0,0
346339.65,85.9008,-487.159,0,0
346599.975,85.7685,-486.849,0,0
346860,85.5943,-486.559,0,0
347121,85.397,-486.189,0,0
347381,85.0723,-485.787,0,0
347641,84.8236,-485.346,0,0
347902,84.5478,-484.765,0,0
348162,84.2408,-484.173,0,0
348422,83.9217,-483.532,0,0
348683,83.6956,-482.816,0,0
348943,83.4459,-482.047,0,0
349203,83.2699,-481.217,0,0
349464,83.1344,-480.37,0,0
349724,83.0733,-479.391,0,0
349984,83.2445,-478.58,0,0
350245,83.4266,-477.705,0,0
350505,83.6058,-476.942,0,0
350765,83.9099,-476.163,0,0
351025,84.207,-475.492,0,0
351286,84.6024,-474.942,0,0
351546,84.9336,-474.491,0,0
351806,85.2456,-474.087,0,0
352067,85.5298,-473.766,0,0
352327,85.7567,-473.427,0,0
352587,85.9542,-473.168,0,0
352848,86.1699,-472.958,0,0
353108,86.3069,-472.749,0,0
353368,86.3719,-472.624,0,0
353629,86.2865,-472.546,0,0
353889,86.182,-472.417,0,0
354149,85.9975,-472.276,0,0
354410,85.7858,-472.055,0,0
354670,85.5575,-471.781,0,0
354930,85.326,-471.492,0,0
355191,85.0501,-471.192,0,0
355451,84.746,-470.856,0,0
355711,84.4999,-470.49,0,0
355972,84.1445,-470.046,0,0
356232,83.7609,-469.691,0,0
356492,83.449,-469.213,0,0
356753,83.0842,-468.69,0,0
357013,82.7181,-468.206,0,0
357273,82.4236,-467.508,0,0
357534,82.1313,-466.911,0,0
357794,81.876,-466.203,0,0
358054,81.5873,-465.437,0,0
358315,81.4786,-464.681,0,0
358575,81.3838,-463.911,0,0
358835,81.3752,-463.236,0,0
359096,81.3685,-462.556,0,0
359356,81.383,-461.935,0,0
359616,81.3848,-461.379,0,0
359877,81.3814,-460.772,0,0
360137,81.4303,-460.239,0,0
360397,81.4692,-459.756,0,0
360658,81.4542,-459.273,0,0
360918,81.4361,-458.849,0,0
361178,81.3266,-458.317,0,0
361438,81.1521,-457.893,0,0
361699,80.9808,-457.4,0,0
361959,80.8762,-456.856,0,0
362219,80.6456,-456.255,0,0
362480,80.5089,-455.576,0,0
362740.1,80.4453,-454.811,0,0
363000.425,80.3742,-454.073,0,0
363260.75,80.4389,-453.347,0,0
363521.075,80.61,-452.65,0,0
363781.4,80.7172,-451.87,0,0
364041.725,80.9428,-451.275,0,0
364302.05,81.224,-450.695,0,0
364562.375,81.4688,-450.091,0,0
364822.7,81.8064,-449.575,0,0
365083.025,82.1328,-449.173,0,0
365343.35,82.4747,-448.829,0,0
365603.675,82.7414,-448.553,0,0
365864.0,83.0903,-448.362,0,0
366124.325,83.2638,-448.224,0,0
366384.65,83.4531,-448.141,0,0
366644.975,83.598,-448.174,0,0
366905.3,83.6005,-448.165,0,0
367165.625,83.4839,-448.243,0,0
367425.95,83.2422,-448.273,0,0
367686.275,82.951,-448.256,0,0
367946.6,82.5123,-448.209,0,0
368206.925,82.0404,-448.054,0,0
368467.25,81.4349,-447.712,0,0
368727.575,80.8715,-447.267,0,0
368987.9,80.3119,-446.73,0,0
369248.225,79.7883,-446.039,0,0
369508.55,79.4258,-445.172,0,0
369768.875,79.1926,-444.315,0,0
370029.2,79,-443.435,0,0
370289.525,79.0006,-442.574,0,0
370549.85,79.1334,-441.705,0,0
370810.175,79.3591,-441.019,0,0
371070.5,79.631,-440.349,0,0
371330.825,79.9837,-439.846,0,0
371591.15,80.3379,-439.462,0,0
371851.475,80.6346,-439.158,0,0
372111.8,80.8439,-438.957,0,0
372372.125,80.9657,-438.855,0,0
372632.45,81.0165,-438.741,0,0
372892.775,80.9714,-438.718,0,0
373153.1,80.8613,-438.671,0,0
373413.425,80.567,-438.562,0,0
373673.75,80.2604,-438.359,0,0
373934.075,79.8888,-438.082,0,0
374194.4,79.5033,-437.771,0,0
374454.725,79.1168,-437.366,0,0
374715.05,78.8029,-436.877,0,0
374975.375,78.4094,-436.394,0,0
375235.7,78.0827,-435.84,0,0
375496.025,77.7605,-435.265,0,0
375756.35,77.4695,-434.66,0,0
376016.675,77.2281,-433.97,0,0
376277.0,77.0494,-433.302,0,0
376537.325,76.8938,-432.607,0,0
376797.65,76.7727,-431.941,0,0
377057.975,76.7361,-431.183,0,0
377318.3,76.6486,-430.505,0,0
377578.625,76.5987,-429.787,0,0
377838.95,76.6535,-429.089,0,0
378099.275,76.7458,-428.359,0,0
378359.6,76.8884,-427.675,0,0
378619.925,77.0529,-427.024,0,0
378880,77.3425,-426.453,0,0
379141,77.5338,-425.919,0,0
379401,77.7673,-425.43,0,0
379661,78.0451,-425.101,0,0
379922,78.2721,-424.721,0,0
380182,78.4657,-424.502,0,0
380442,78.6438,-424.187,0,0
380703,78.7106,-423.964,0,0
380963,78.7356,-423.731,0,0
381223,78.7444,-423.511,0,0
381483,78.6755,-423.232,0,0
381744,78.6607,-422.95,0,0
382004,78.6663,-422.603,0,0
382264,78.6295,-422.339,0,0
382525,78.6542,-422.042,0,0
382785,78.5556,-421.836,0,0
383045,78.5323,-421.595,0,0
383306,78.4439,-421.369,0,0
383566,78.3239,-421.197,0,0
383826,78.1423,-420.934,0,0
384087,77.9165,-420.682,0,0
384347,77.7134,-420.441,0,0
384607,77.404,-420.178,0,0
384868,77.1216,-419.809,0,0
385128,76.8171,-419.461,0,0
385388,76.5335,-419.022,0,0
385649,76.2025,-418.624,0,0
385909,75.8243,-418.185,0,0
386169,75.5428,-417.666,0,0
386430,75.2608,-417.156,0,0
386690,74.9012,-416.615,0,0
386950,74.6114,-416.079,0,0
387211,74.2977,-415.373,0,0
387471,74.024,-414.722,0,0
387731,73.7465,-414.074,0,0
387992,73.4976,-413.338,0,0
388252,73.3208,-412.619,0,0
388512,73.1199,-411.828,0,0
388773,72.9332,-411.046,0,0
389033,72.8174,-410.151,0,0
389293,72.7499,-409.315,0,0
389554,72.6873,-408.464,0,0
389814,72.7246,-407.565,0,0
390074,72.7819,-406.666,0,0
390335,72.9242,-405.768,0,0
390595,73.1273,-404.862,0,0
390855,73.3725,-404.032,0,0
391116,73.7328,-403.183,0,0
391376,74.0824,-402.382,0,0
391636,74.5142,-401.635,0,0
391896,74.9411,-400.986,0,0
392157,75.4128,-400.322,0,0
392417,75.8847,-399.763,0,0
392677,76.3619,-399.23,0,0
392938,76.8629,-398.776,0,0
393198,77.3057,-398.316,0,0
393458,77.7564,-397.96,0,0
393719,78.149,-397.568,0,0
393979,78.6132,-397.215,0,0
394239,79.0745,-396.827,0,0
394500,79.4815,-396.546,0,0
394760.05,79.9283,-396.281,0,0
395020.375,80.3621,-396.007,0,0
395280.7,80.7661,-395.788,0,0
395541.025,81.1982,-395.638,0,0
395801.35,81.612,-395.486,0,0
396061.675,81.9881,-395.404,0,0
396322.0,82.3642,-395.294,0,0
396582.325,82.6807,-395.253,0,0
396842.65,83.0192,-395.227,0,0
397102.975,83.3466,-395.239,0,0
397363.3,83.5791,-395.282,0,0
397623.625,83.7954,-395.307,0,0
397883.95,84.0086,-395.333,0,0
398144.275,84.2075,-395.439,0,0
398404.6,84.3913,-395.535,0,0
398664.925,84.4396,-395.68,0,0
398925.25,84.5446,-395.817,0,0
399185.575,84.5202,-395.961,0,0
399445.9,84.4711,-396.124,0,0
399706.225,84.4418,-396.256,0,0
399966.55,84.2653,-396.396,0,0
400006.6,84.2528,-396.463,0,0