File: Accelerated corrosion test data/2025-10-14_08-28-47/sample_1.csv
Frequency (Hz),Impedance (ohms),Phase (Radians),Temperature (C),Humidity (%)
10000.0,240.842,-12195.1,0,0
10260.325,242.528,-11881.4,0,0
10520.65,229.984,-11602.6,0,0
10780.975,226.322,-11318.4,0,0
11041.3,219.541,-11058.9,0,0
11301.625,214.187,-10802.5,0,0
11561.95,210.387,-10559,0,0
11822.275,207.508,-10319.7,0,0
12082.6,229.09,-10089.7,0,0
12342.925,210.981,-9915.32,0,0
12603.25,194.772,-9703.08,0,0
12863.575,190.928,-9501.1,0,0
13123.9,200.79,-9308.35,0,0
13384.225,185.7,-9138.95,0,0
13644.55,181.63,-8957.32,0,0
13904.875,182.567,-8779.39,0,0
14165.2,190.868,-8644.82,0,0
14425.525,213.333,-8478.65,0,0
14685.8,204.329,-8312.05,0,0
14946.175,176.94,-8212.72,0,0
15206.5,185.923,-8053.02,0,0
15466.825,173.302,-7941.24,0,0
15727.15,172.97,-7805.94,0,0
15987.5,160.017,-7678.06,0,0
16247.8,156.944,-7550.48,0,0
16508.125,155.684,-7426.04,0,0
16768.45,159.168,-7307.46,0,0
17028.775,163.341,-7199.46,0,0
17289.1,153.713,-7096.3,0,0
17549.425,152.482,-6994.35,0,0
17809.75,146.8,-6889.27,0,0
18070.075,147.99,-6790.62,0,0
18330.4,141.48,-6693.94,0,0
18590.725,137.465,-6599.25,0,0
18851.05,138.556,-6501.13,0,0
19111.375,135.584,-6420.06,0,0
19371.7,132.954,-6328.22,0,0
19632.025,132.198,-6239.52,0,0
19892.35,136.884,-6153.41,0,0
20152.675,136.002,-6066.42,0,0
20413.0,157.115,-5977.94,0,0
20673.3,167.211,-5937.43,0,0
20933.65,149.522,-5868.08,0,0
21193.975,160.327,-5805.59,0,0
21454.3,141.875,-5731.93,0,0
21714.625,136.431,-5660.83,0,0
21974.9,140.09,-5578.02,0,0
22235.275,173.312,-5536.54,0,0
22495.6,140.541,-5493.08,0,0
22755.925,126.927,-5424.22,0,0
23016.25,122.36,-5356.82,0,0
23276.6,119.166,-5296.04,0,0
23536.9,116.013,-5234.64,0,0
23797.225,112.306,-5173.55,0,0
24057.55,114.879,-5113.27,0,0
24317.875,112.346,-5064.82,0,0
24578.2,111.231,-5005.23,0,0
24838.525,110.642,-4954.94,0,0
25098.85,111.231,-4901.13,0,0
25359.175,106.158,-4852.16,0,0
25619.5,104.841,-4800.73,0,0
25879.8,103.398,-4749,0,0
26140.1,103.474,-4700.07,0,0
26400.5,102.623,-4650.55,0,0
26660.8,105.584,-4599.45,0,0
26921.1,114.512,-4551.89,0,0
27181.4,121.524,-4519.87,0,0
27441.8,111.002,-4485.4,0,0
27702.1,103.914,-4435.98,0,0
27962.4,111.086,-4387.03,0,0
28222.7,110.483,-4348.43,0,0
28483.1,121.005,-4305.63,0,0
28743.4,129.36,-4287.01,0,0
29003.7,117.848,-4249.68,0,0
29264,117.963,-4216.52,0,0
29524.4,107.465,-4182.5,0,0
29784.7,105.77,-4139.94,0,0
30045,101.338,-4108.07,0,0
30305.3,99.6282,-4069.89,0,0
30565.7,97.1162,-4030.91,0,0
30826,100.636,-3995.49,0,0
31086.3,103.123,-3967.62,0,0
31346.6,99.1673,-3938.37,0,0
31607,94.0292,-3901.04,0,0
31867.3,97.9357,-3868.08,0,0
32127.6,97.8041,-3837.59,0,0
32387.9,97.9921,-3811.08,0,0
32648.3,93.5269,-3779.51,0,0
32908.6,96.0502,-3751.67,0,0
33168.9,90.9011,-3723.19,0,0
33429.2,89.0122,-3694.32,0,0
33689.6,86.0692,-3664.63,0,0
33949.9,85.3364,-3633.61,0,0
34210.2,86.5387,-3607.58,0,0
34470.5,83.6975,-3580.88,0,0
34730.9,81.7975,-3552.51,0,0
34991.2,81.3377,-3525.35,0,0
35251.5,80.2831,-3498.66,0,0
35511.8,79.6907,-3472.22,0,0
35772.2,79.1042,-3446.99,0,0
36032.5,77.9973,-3421.46,0,0
36292.8,77.2167,-3396.21,0,0
36553.1,76.7719,-3371.26,0,0
36813.5,76.1994,-3346.88,0,0
37073.8,76.1449,-3322.79,0,0
37334.1,75.2166,-3299.35,0,0
37594.4,74.9927,-3276.04,0,0
37854.8,74.1748,-3253.31,0,0
38115.1,73.5501,-3230.34,0,0
38375.4,73.3153,-3207.57,0,0
38635.7,72.8538,-3185.95,0,0
38896.1,72.3359,-3163.85,0,0
39156.4,72.5212,-3141.65,0,0
39416.7,72.2576,-3121.68,0,0
39677,71.2595,-3100.17,0,0
39937.4,71.2319,-3078.98,0,0
40197.7,71.2213,-3058.73,0,0
40458,70.8095,-3038.39,0,0
40718.3,70.776,-3017.44,0,0
40978.7,72.4152,-2998.55,0,0
41239,72.2754,-2980.58,0,0
41499.3,71.4648,-2962.44,0,0
41759.6,70.8367,-2943.61,0,0
42020,70.5941,-2924.61,0,0
42280.275,69.9609,-2906.25,0,0
42540.6,70.8176,-2888.18,0,0
42800.925,69.9295,-2871.47,0,0
43061.25,69.5068,-2853.48,0,0
43321.575,69.2329,-2836.28,0,0
43581.9,68.7678,-2819,0,0
43842.225,68.0185,-2801.52,0,0
44102.55,67.6811,-2783.89,0,0
44362.875,68.7675,-2767.19,0,0
44623.2,68.9301,-2751.91,0,0
44883.525,68.2776,-2736.02,0,0
45143.85,68.3242,-2720.34,0,0
45404.175,68.7209,-2704.24,0,0
45664.5,67.4078,-2689.77,0,0
45924.825,66.644,-2674.51,0,0
46185.15,66.5226,-2658.78,0,0
46445.475,65.4228,-2643.44,0,0
46705.8,65.434,-2628.16,0,0
46966.125,65.0345,-2613.71,0,0
47226.45,64.6919,-2598.3,0,0
47486.775,64.5642,-2584.23,0,0
47747.1,63.9949,-2569.99,0,0
48007.425,63.6669,-2555.73,0,0
48267.75,63.5152,-2541.98,0,0
48528.075,62.583,-2528.66,0,0
48788.4,61.5769,-2513.97,0,0
49048.725,61.5303,-2500.05,0,0
49309.05,61.6736,-2486.13,0,0
49569.375,61.379,-2473.18,0,0
49829.7,60.9934,-2460.24,0,0
50090.025,60.2619,-2447.01,0,0
50350.35,59.6988,-2433.38,0,0
50610.675,59.5178,-2420.3,0,0
50871.0,59.3739,-2407.38,0,0
51131.325,59.533,-2394.67,0,0
51391.65,59.342,-2382.48,0,0
51651.975,58.7705,-2370.03,0,0
51912.3,58.3131,-2357.65,0,0
52172.625,58.173,-2345.29,0,0
52432.95,58.0161,-2333.07,0,0
52693.275,57.879,-2321.01,0,0
52953.6,57.7312,-2309.2,0,0
53213.925,57.7749,-2297.48,0,0
53474.25,57.4469,-2286.06,0,0
53734.575,57.2765,-2274.52,0,0
53994.9,57.4317,-2263.36,0,0
54255.225,56.6752,-2252.29,0,0
54515.55,56.4456,-2240.86,0,0
54775.875,56.0347,-2229.78,0,0
55036.2,56.0548,-2218.3,0,0
55296.525,56.0727,-2207.38,0,0
55556.85,55.8397,-2196.85,0,0
55817.175,55.4981,-2186.35,0,0
56077.5,55.0763,-2175.48,0,0
56337.825,54.9516,-2164.72,0,0
56598.15,55.0503,-2154.06,0,0
56858.475,54.9067,-2143.88,0,0
57118.8,54.6504,-2133.66,0,0
57379.125,54.6265,-2123.17,0,0
57639.45,54.749,-2113.17,0,0
57899.775,54.5989,-2103.26,0,0
58160.1,54.6517,-2093.36,0,0
58420.4,54.5319,-2083.68,0,0
58680.7,54.349,-2073.89,0,0
58941.1,54.3271,-2064.08,0,0
59201.4,54.687,-2054.51,0,0
59461.7,54.4884,-2045.43,0,0
59722,54.2551,-2035.99,0,0
59982.4,54.2809,-2026.61,0,0
60242.7,54.3095,-2017.39,0,0
60503,54.3377,-2008.18,0,0
60763.3,54.5199,-1999.52,0,0
61023.7,54.1092,-1991.01,0,0
61284,53.6676,-1982.04,0,0
61544.3,53.3339,-1972.91,0,0
61804.6,53.5516,-1963.99,0,0
62065,53.1917,-1955.65,0,0
62325.3,52.8085,-1946.72,0,0
62585.6,52.7133,-1938,0,0
62845.9,52.549,-1929.18,0,0
63106.3,52.7177,-1920.72,0,0
63366.6,52.5214,-1912.07,0,0
63626.9,52.6645,-1903.54,0,0
63887.2,52.6119,-1895.01,0,0
64147.6,52.7676,-1886.78,0,0
64407.9,52.8088,-1878.48,0,0
64668.2,53.1014,-1870.04,0,0
64928.5,53.6246,-1861.89,0,0
65188.9,54.0615,-1854.05,0,0
65449.2,54.8629,-1846.44,0,0
65709.5,55.2861,-1839.3,0,0
65969.8,55.2392,-1832.25,0,0
66230.2,55.0488,-1825.01,0,0
66490.5,54.9212,-1817.67,0,0
66750.8,54.9451,-1810.59,0,0
67011.1,54.256,-1803.42,0,0
67271.5,53.7832,-1795.62,0,0
67531.8,54.3595,-1788.12,0,0
67792.1,54.6578,-1781.24,0,0
68052.4,54.3391,-1774.68,0,0
68312.8,53.5748,-1767.68,0,0
68573.1,53.3231,-1760.14,0,0
68833.4,53.6516,-1753.2,0,0
69093.7,53.3245,-1746.55,0,0
69354.1,53.0016,-1739.55,0,0
69614.4,52.777,-1733.09,0,0
69874.7,52.1564,-1726.25,0,0
70135,51.8518,-1719.37,0,0
70395.4,51.2353,-1712.51,0,0
70655.7,50.7856,-1705.56,0,0
70916,50.686,-1698.68,0,0
71176.3,50.4316,-1691.77,0,0
71436.7,50.3736,-1685.33,0,0
71697,49.9164,-1678.77,0,0
71957.3,49.4147,-1671.89,0,0
72217.6,48.7889,-1665.17,0,0
72478,48.5654,-1658.11,0,0
72738.3,48.3703,-1651.2,0,0
72998.6,48.4096,-1644.41,0,0
73258.9,48.4475,-1637.84,0,0
73519.3,48.3691,-1631.32,0,0
73779.6,48.2636,-1624.68,0,0
74039.9,48.1384,-1618.14,0,0
74300.225,48.2453,-1611.62,0,0
74560.55,48.2364,-1605.1,0,0
74820.875,48.3803,-1598.68,0,0
75081.2,48.6269,-1592.45,0,0
75341.525,48.6983,-1586.31,0,0
75601.85,48.6597,-1580.02,0,0
75862.175,48.7373,-1573.68,0,0
76122.5,49.0232,-1567.57,0,0
76382.825,49.3889,-1561.42,0,0
76643.15,49.5861,-1555.57,0,0
76903.475,49.681,-1549.56,0,0
77163.8,49.98,-1543.66,0,0
77424.125,50.1977,-1537.92,0,0
77684.45,50.2874,-1532.18,0,0
77944.775,50.4672,-1526.34,0,0
78205.1,50.8768,-1520.46,0,0
78465.425,51.4837,-1514.94,0,0
78725.75,51.8405,-1509.72,0,0
78986.075,52.0028,-1504.61,0,0
79246.4,51.9158,-1499.47,0,0
79506.725,51.8047,-1494.25,0,0
79767.05,51.3925,-1488.97,0,0
80027.375,51.4063,-1483.41,0,0
80287.7,51.2147,-1478.27,0,0
80548.025,50.8356,-1472.75,0,0
80808.35,50.6702,-1467.18,0,0
81068.675,50.4469,-1461.53,0,0
81329.0,50.5353,-1455.9,0,0
81589.325,50.622,-1450.3,0,0
81849.65,50.8724,-1444.8,0,0
82109.975,51.0338,-1439.52,0,0
82370.3,51.118,-1434.24,0,0
82630.625,51.2303,-1428.91,0,0
82890.95,51.3183,-1423.45,0,0
83151.275,51.589,-1418.1,0,0
83411.6,51.9701,-1412.89,0,0
83671.925,52.151,-1407.7,0,0
83932.25,52.4528,-1402.51,0,0
84192.575,52.761,-1397.43,0,0
84452.9,53.1319,-1392.33,0,0
84713.225,53.446,-1387.28,0,0
84973.55,53.9454,-1382.2,0,0
85233.875,54.5154,-1377.35,0,0
85494.2,55.0869,-1372.66,0,0
85754.525,55.326,-1368.2,0,0
86014.85,55.63,-1363.64,0,0
86275.175,55.6659,-1358.93,0,0
86535.5,55.8823,-1354.15,0,0
86795.825,56.0335,-1349.72,0,0
87056.15,56.1038,-1344.92,0,0
87316.475,56.4656,-1340.24,0,0
87576.8,56.4304,-1335.83,0,0
87837.125,56.4464,-1331.2,0,0
88097.45,56.4016,-1326.29,0,0
88357.775,56.3183,-1321.29,0,0
88618.1,56.6988,-1316.14,0,0
88878.425,57.3243,-1311.51,0,0
89138.75,57.6957,-1306.6,0,0
89399.075,58.222,-1301.87,0,0
89659.4,58.7915,-1297.07,0,0
89919.725,59.533,-1292.47,0,0
90180,60.3693,-1287.96,0,0
90440.4,60.9275,-1283.28,0,0
90700.7,61.5706,-1278.49,0,0
90961,62.5898,-1273.85,0,0
91221.3,63.831,-1269.16,0,0
91481.7,65.5442,-1265.16,0,0
91742,66.7399,-1261.26,0,0
92002.3,67.7373,-1257.64,0,0
92262.6,68.9363,-1253.55,0,0
92523,70.3096,-1249.66,0,0
92783.3,72.1027,-1246.27,0,0
93043.6,73.7939,-1243.45,0,0
93303.9,74.9478,-1240.82,0,0
93564.3,76.6782,-1237.94,0,0
93824.6,78.9407,-1236.86,0,0
94084.9,78.9219,-1237.49,0,0
94345.2,76.3247,-1236.74,0,0
94605.6,73.8438,-1233.36,0,0
94865.9,72.6165,-1230.22,0,0
95126.2,70.8319,-1226.88,0,0
95386.5,69.6102,-1223.25,0,0
95646.9,68.1325,-1219.22,0,0
95907.2,66.8257,-1214.85,0,0
96167.5,66.2259,-1210.03,0,0
96427.8,66.4381,-1205.86,0,0
96688.2,66.1072,-1202.36,0,0
96948.5,65.3399,-1198.48,0,0
97208.8,64.7566,-1194.32,0,0
97469.1,64.381,-1190.05,0,0
97729.5,64.1224,-1185.72,0,0
97989.8,64.0966,-1181.5,0,0
98250.1,64.1559,-1177.4,0,0
98510.4,64.3248,-1173.63,0,0
98770.8,64.2087,-1170.03,0,0
99031.1,63.7954,-1166.13,0,0
99291.4,63.6269,-1162.1,0,0
99551.7,63.472,-1158.17,0,0
99812.1,63.3103,-1154.02,0,0
100072,63.3959,-1149.97,0,0
100333,63.3773,-1146.08,0,0
100593,63.3258,-1142.03,0,0
100853,63.3316,-1138.06,0,0
101114,63.3569,-1134,0,0
101374,63.3116,-1130.09,0,0
101634,63.3126,-1125.95,0,0
101895,63.1202,-1121.78,0,0
102155,63.0952,-1117.25,0,0
102415,63.4019,-1112.53,0,0
102676,64.0903,-1107.74,0,0
102936,65.2411,-1103.43,0,0
103196,66.2206,-1099.4,0,0
103457,67.1667,-1095.39,0,0
103717,68.0352,-1091.28,0,0
103977,69.273,-1087.03,0,0
104238,71.007,-1083.01,0,0
104498,72.8022,-1079.81,0,0
104758,74.0828,-1076.8,0,0
105019,74.9875,-1073.85,0,0
105279,75.8084,-1070.47,0,0
105539,76.9169,-1066.85,0,0
105800,78.4238,-1063.57,0,0
106060,79.8797,-1060.42,0,0
106320.175,81.4067,-1057.56,0,0
106580.5,82.8291,-1054.92,0,0
106840.825,84.0719,-1052.41,0,0
107101.15,85.228,-1049.85,0,0
107361.475,86.5894,-1047.34,0,0
107621.8,87.7568,-1045.25,0,0
107882.125,88.657,-1043.1,0,0
108142.45,89.4877,-1040.81,0,0
108402.775,90.3673,-1038.55,0,0
108663.1,91.3472,-1036.44,0,0
108923.425,92.2191,-1034.48,0,0
109183.75,93.0685,-1032.53,0,0
109444.075,93.9168,-1030.9,0,0
109704.4,94.3048,-1029.35,0,0
109964.725,94.4246,-1028.09,0,0
110225.05,94.0904,-1026.39,0,0
110485.375,93.438,-1024.34,0,0
110745.7,93.0895,-1021.66,0,0
111006.025,93.1424,-1018.89,0,0
111266.35,93.4267,-1016.16,0,0
111526.675,94.0224,-1013.63,0,0
111787.0,94.6152,-1011.54,0,0
112047.325,95.1815,-1009.55,0,0
112307.65,95.6919,-1007.63,0,0
112567.975,96.0392,-1005.83,0,0
112828.3,96.2411,-1004.12,0,0
113088.625,96.3391,-1002.49,0,0
113348.95,96.4183,-1000.87,0,0
113609.275,96.2913,-999.45,0,0
113869.6,95.8037,-998.035,0,0
114129.925,95.1496,-996.361,0,0
114390.25,94.4392,-994.347,0,0
114650.575,93.8689,-992.423,0,0
114910.9,93.363,-990.575,0,0
115171.225,92.489,-988.731,0,0
115431.55,91.5919,-986.799,0,0
115691.875,90.5269,-984.778,0,0
115952.2,89.3689,-982.327,0,0
116212.525,88.3822,-979.764,0,0
116472.85,87.5338,-977.105,0,0
116733.175,86.7083,-974.518,0,0
116993.5,85.8167,-971.908,0,0
117253.825,84.8204,-969.152,0,0
117514.15,83.9361,-966.156,0,0
117774.475,83.1643,-963.05,0,0
118034.8,82.561,-959.891,0,0
118295.125,82.1582,-956.761,0,0
118555.45,81.6973,-953.74,0,0
118815.775,81.3148,-950.627,0,0
119076.1,81.0757,-947.387,0,0
119336.425,80.9365,-944.205,0,0
119596.75,80.9352,-941.24,0,0
119857.075,80.9828,-938.164,0,0
120117.4,81.2231,-935.26,0,0
120377.725,81.3846,-932.599,0,0
120638.05,81.5512,-929.909,0,0
120898.375,81.6515,-927.479,0,0
121158.7,81.4873,-925.114,0,0
121419.025,81.2121,-922.618,0,0
121679.35,80.9073,-920.04,0,0
121939.675,80.4963,-917.44,0,0
122200.0,80.0429,-914.622,0,0
122460,79.7335,-911.717,0,0
122721,79.5268,-908.809,0,0
122981,79.3198,-905.972,0,0
123241,79.1033,-903.059,0,0
123502,78.8867,-900.066,0,0
123762,78.7675,-897.05,0,0
124022,78.7157,-894.013,0,0
124283,78.7712,-890.986,0,0
124543,78.8105,-888.023,0,0
124803,79.0115,-885.002,0,0
125064,79.0911,-882.145,0,0
125324,79.1647,-879.165,0,0
125584,79.3956,-876.139,0,0
125845,79.7023,-873.263,0,0
126105,79.9311,-870.44,0,0
126365,80.2171,-867.553,0,0
126626,80.443,-864.691,0,0
126886,80.7861,-861.799,0,0
127146,80.9694,-858.916,0,0
127406,81.2823,-856.09,0,0
127667,81.7094,-853.232,0,0
127927,82.0224,-850.289,0,0
128187,82.5744,-847.346,0,0
128448,83.135,-844.528,0,0
128708,83.7312,-841.849,0,0
128968,84.1514,-839.194,0,0
129229,84.5023,-836.383,0,0
129489,84.9675,-833.472,0,0
129749,85.5873,-830.471,0,0
130010,86.4561,-827.466,0,0
130270,87.5185,-824.673,0,0
130530,88.5592,-822.093,0,0
130791,89.6127,-819.641,0,0
131051,90.573,-817.284,0,0
131311,91.6031,-815.014,0,0
131572,92.6376,-812.933,0,0
131832,93.408,-810.952,0,0
132092,94.1368,-808.945,0,0
132353,94.7631,-806.971,0,0
132613,95.2323,-804.883,0,0
132873,95.7677,-802.672,0,0
133134,96.473,-800.597,0,0
133394,97.0008,-798.551,0,0
133654,97.5274,-796.464,0,0
133915,98.0418,-794.342,0,0
134175,98.7018,-792.209,0,0
134435,99.3253,-790.125,0,0
134696,99.7628,-788.17,0,0
134956,100.295,-786.02,0,0
135216,100.794,-783.921,0,0
135477,101.376,-781.832,0,0
135737,101.854,-779.677,0,0
135997,102.396,-777.512,0,0
136258,103.012,-775.278,0,0
136518,103.756,-773.021,0,0
136778,104.813,-770.825,0,0
137039,105.787,-768.962,0,0
137299,106.78,-767.045,0,0
137559,107.876,-765.355,0,0
137819,108.841,-764.045,0,0
138080,109.495,-762.997,0,0
138340.125,109.695,-761.617,0,0
138600.45,109.954,-760.279,0,0
138860.775,110.102,-758.977,0,0
139121.1,109.982,-757.525,0,0
139381.425,109.932,-755.824,0,0
139641.75,109.965,-754.161,0,0
139902.075,109.904,-752.501,0,0
140162.4,109.753,-750.759,0,0
140422.725,109.582,-748.852,0,0
140683.05,109.447,-746.869,0,0
140943.375,109.326,-744.75,0,0
141203.7,109.383,-742.562,0,0
141464.025,109.508,-740.465,0,0
141724.35,109.59,-738.511,0,0
141984.675,109.405,-736.359,0,0
142245.0,109.455,-733.931,0,0
142505.325,109.795,-731.644,0,0
142765.65,110.079,-729.528,0,0
143025.975,110.249,-727.356,0,0
143286.3,110.399,-725.133,0,0
143546.625,110.607,-722.753,0,0
143806.95,110.975,-720.405,0,0
144067.275,111.487,-718.107,0,0
144327.6,111.947,-716.009,0,0
144587.925,112.161,-713.772,0,0
144848.25,112.641,-711.359,0,0
145108.575,113.275,-709.106,0,0
145368.9,113.88,-706.919,0,0
145629.225,114.519,-704.831,0,0
145889.55,115.089,-702.735,0,0
146149.875,115.797,-700.707,0,0
146410.2,116.297,-698.787,0,0
146670.525,116.808,-696.683,0,0
146930.85,117.546,-694.578,0,0
147191.175,118.388,-692.843,0,0
147451.5,118.88,-691.273,0,0
147711.825,119.175,-689.647,0,0
147972.15,119.279,-687.834,0,0
148232.475,119.352,-685.747,0,0
148492.8,119.693,-683.484,0,0
148753.125,120.108,-681.354,0,0
149013.45,120.574,-679.118,0,0
149273.775,121.326,-676.924,0,0
149534.1,122.271,-675.091,0,0
149794.425,122.981,-673.66,0,0
150054.75,123.296,-672.32,0,0
150315.075,123.31,-670.859,0,0
150575.4,123.173,-669.21,0,0
150835.725,122.803,-667.475,0,0
151096.05,122.252,-665.388,0,0
151356.375,121.847,-662.875,0,0
151616.7,121.729,-660.236,0,0
151877.025,121.731,-657.723,0,0
152137.35,121.646,-655.197,0,0
152397.675,121.472,-652.495,0,0
152658.0,121.257,-649.494,0,0
152918.325,121.279,-646.199,0,0
153178.65,121.678,-642.807,0,0
153438.975,122.315,-639.503,0,0
153699.3,123,-636.292,0,0
153959.625,123.706,-633.024,0,0
154219.95,124.534,-629.641,0,0
154480,125.614,-626.184,0,0
154741,126.852,-622.761,0,0
155001,128.308,-619.417,0,0
155261,129.789,-616.199,0,0
155522,131.29,-612.832,0,0
155782,133.136,-609.35,0,0
156042,135.357,-606.031,0,0
156303,137.764,-602.993,0,0
156563,140.138,-600.267,0,0
156823,142.496,-597.47,0,0
157084,145.103,-594.735,0,0
157344,147.982,-592.318,0,0
157604,150.889,-590.439,0,0
157864,153.367,-588.844,0,0
158125,155.565,-587.081,0,0
158385,157.802,-585.169,0,0
158645,160.112,-583.581,0,0
158906,161.953,-581.942,0,0
159166,163.648,-579.886,0,0
159426,165.532,-577.377,0,0
159687,167.88,-574.577,0,0
159947,170.86,-571.742,0,0
160207,174.438,-569.289,0,0
160468,178.165,-567.346,0,0
160728,182.03,-565.644,0,0
160988,186.054,-564.296,0,0
161249,190.233,-563.485,0,0
161509,194.231,-563.197,0,0
161769,198.019,-563.146,0,0
162030,201.754,-563.573,0,0
162290,205.02,-564.466,0,0
162550,207.654,-565.308,0,0
162811,210.011,-566.067,0,0
163071,212.108,-566.61,0,0
163331,214.113,-566.924,0,0
163592,216.227,-567.012,0,0
163852,218.558,-567.228,0,0
164112,220.805,-567.5,0,0
164373,223.095,-567.698,0,0
164633,225.397,-568.108,0,0
164893,227.564,-568.423,0,0
165154,230.1,-568.927,0,0
165414,232.706,-569.779,0,0
165674,235.384,-570.882,0,0
165935,238.08,-572.501,0,0
166195,240.389,-574.667,0,0
166455,242.072,-576.988,0,0
166716,243.264,-579.153,0,0
166976,244.338,-581.166,0,0
167236,245.549,-583.35,0,0
167497,246.403,-585.928,0,0
167757,246.808,-588.508,0,0
168017,246.892,-591.044,0,0
168277,246.515,-593.539,0,0
168538,245.749,-595.857,0,0
168798,244.726,-597.953,0,0
169058,243.448,-600.091,0,0
169319,242.306,-602.413,0,0
169579,240.315,-603.849,0,0
169839,238.152,-604.816,0,0
170100,235.958,-605.252,0,0
170360.075,234.075,-605.321,0,0
170620.4,232.332,-604.793,0,0
170880.725,230.839,-604.445,0,0
171141.05,229.296,-603.865,0,0
171401.375,227.894,-602.83,0,0
171661.7,226.891,-601.78,0,0
171922.025,226.008,-600.805,0,0
172182.35,225.209,-599.788,0,0
172442.675,224.592,-598.755,0,0
172703.0,224.073,-597.978,0,0
172963.325,223.381,-597.324,0,0
173223.65,222.545,-596.577,0,0
173483.975,221.66,-595.571,0,0
173744.3,220.933,-594.446,0,0
174004.625,220.324,-593.164,0,0
174264.95,219.977,-591.846,0,0
174525.275,219.852,-590.673,0,0
174785.6,219.674,-589.743,0,0
175045.925,219.314,-588.726,0,0
175306.25,219.088,-587.453,0,0
175566.575,219.296,-586.197,0,0
175826.9,219.792,-585.46,0,0
176087.225,219.967,-585.234,0,0
176347.55,219.659,-584.939,0,0
176607.875,219.18,-584.41,0,0
176868.2,218.785,-583.738,0,0
177128.525,218.408,-583.113,0,0
177388.85,218.057,-582.344,0,0
177649.175,217.873,-581.598,0,0
177909.5,217.756,-581.185,0,0
178169.825,217.397,-581.026,0,0
178430.15,216.764,-580.847,0,0
178690.475,215.949,-580.523,0,0
178950.8,215.004,-580.18,0,0
179211.125,213.775,-579.61,0,0
179471.45,212.656,-578.895,0,0
179731.775,211.633,-578.33,0,0
179992.1,210.215,-577.7,0,0
180252.425,208.5,-576.878,0,0
180512.75,206.838,-575.565,0,0
180773.075,205.38,-574.124,0,0
181033.4,203.886,-572.615,0,0
181293.725,202.418,-570.894,0,0
181554.05,201.129,-569.078,0,0
181814.375,199.903,-567.3,0,0
182074.7,198.6,-565.436,0,0
182335.025,197.292,-563.492,0,0
182595.35,195.96,-561.354,0,0
182855.675,194.739,-559.091,0,0
183116.0,193.61,-556.828,0,0
183376.325,192.396,-554.512,0,0
183636.65,191.192,-551.912,0,0
183896.975,190.045,-549.192,0,0
184157.3,188.901,-546.265,0,0
184417.625,187.957,-543.136,0,0
184677.95,187.116,-539.949,0,0
184938.275,186.51,-536.504,0,0
185198.6,186.166,-532.722,0,0
185458.925,186.371,-529.309,0,0
185719.25,186.666,-526.194,0,0
185979.575,186.949,-523.29,0,0
186239.9,187.268,-520.274,0,0
186500,187.548,-517.17,0,0
186761,187.975,-514.175,0,0
187021,188.341,-511.165,0,0
187281,188.778,-508.061,0,0
187542,189.385,-504.982,0,0
187802,190.234,-502.094,0,0
188062,190.892,-499.287,0,0
188322,191.441,-496.414,0,0
188583,192.028,-493.438,0,0
188843,192.749,-490.456,0,0
189103,193.594,-487.425,0,0
189364,194.445,-484.475,0,0
189624,195.304,-481.565,0,0
189884,196.114,-478.586,0,0
190145,197.066,-475.643,0,0
190405,197.92,-472.607,0,0
190665,199.009,-469.527,0,0
190926,200.061,-466.497,0,0
191186,200.931,-463.453,0,0
191446,201.983,-460.292,0,0
191707,202.893,-456.975,0,0
191967,204.162,-453.417,0,0
192227,205.552,-449.784,0,0
192488,207.242,-446.328,0,0
192748,208.954,-442.895,0,0
193008,210.72,-439.5,0,0
193269,212.56,-436.019,0,0
193529,214.647,-432.756,0,0
193789,216.664,-429.426,0,0
194050,218.673,-426.144,0,0
194310,220.702,-422.845,0,0
194570,222.763,-419.414,0,0
194831,224.99,-415.854,0,0
195091,227.423,-412.316,0,0
195351,230.005,-408.728,0,0
195612,232.777,-405.206,0,0
195872,235.629,-401.926,0,0
196132,238.438,-398.617,0,0
196393,241.225,-395.112,0,0
196653,244.254,-391.574,0,0
196913,247.507,-387.987,0,0
197174,250.897,-384.462,0,0
197434,254.446,-380.966,0,0
197694,258.217,-377.544,0,0
197955,262.117,-374.15,0,0
198215,266.191,-370.935,0,0
198475,270.389,-367.855,0,0
198735,274.538,-364.904,0,0
198996,278.808,-362.113,0,0
199256,282.944,-359.249,0,0
199516,287.02,-356.216,0,0
199777,291.214,-353.076,0,0
200037,295.823,-349.645,0,0
200297,300.687,-346.287,0,0
200558,305.713,-343.022,0,0
200818,311.056,-339.693,0,0
201078,316.807,-336.522,0,0
201339,322.598,-333.383,0,0
201599,328.738,-330.229,0,0
201859,335.339,-327.073,0,0
202120,342.272,-323.904,0,0
202380.025,349.893,-321.138,0,0
202640.35,357.99,-318.728,0,0
202900.675,366.486,-317.091,0,0
203161.0,374.73,-315.761,0,0
203421.325,383.143,-314.705,0,0
203681.65,391.827,-313.628,0,0
203941.975,401.189,-312.819,0,0
204202.3,411.166,-312.68,0,0
204462.625,421.475,-313.426,0,0
204722.95,431.998,-315.085,0,0
204983.275,442.594,-317.64,0,0
205243.6,452.951,-321.463,0,0
205503.925,462.802,-326.033,0,0
205764.25,472.108,-331.368,0,0
206024.575,480.693,-337.149,0,0
206284.9,488.807,-343.193,0,0
206545.225,496.639,-349.663,0,0
206805.55,504.088,-356.814,0,0
207065.875,510.633,-364.509,0,0
207326.2,516.342,-372.332,0,0
207586.525,521.502,-380.167,0,0
207846.85,526.187,-388.192,0,0
208107.175,530.171,-396.382,0,0
208367.5,533.338,-404.499,0,0
208627.825,536.073,-412.37,0,0
208888.15,538.457,-420.203,0,0
209148.475,540.292,-428.222,0,0
209408.8,541.464,-436.146,0,0
209669.125,541.946,-444.015,0,0
209929.45,541.529,-451.648,0,0
210189.775,540.176,-458.95,0,0
210450.1,538.046,-465.21,0,0
210710.425,535.557,-470.34,0,0
210970.75,533.185,-474.466,0,0
211231.075,531.031,-477.835,0,0
211491.4,529.283,-480.714,0,0
211751.725,527.703,-483.305,0,0
212012.05,526.048,-485.41,0,0
212272.375,524.523,-486.663,0,0
212532.7,523.611,-487.103,0,0
212793.025,523.744,-487.039,0,0
213053.35,524.804,-487.03,0,0
213313.675,526.7,-487.347,0,0
213574.0,529.384,-488.074,0,0
213834.325,532.208,-489.633,0,0
214094.65,534.967,-491.827,0,0
214354.975,537.398,-494.166,0,0
214615.3,539.96,-496.451,0,0
214875.625,542.551,-499.057,0,0
215135.95,545.096,-501.818,0,0
215396.275,547.729,-504.683,0,0
215656.6,550.342,-507.808,0,0
215916.925,552.892,-511.417,0,0
216177.25,554.905,-515.121,0,0
216437.575,556.53,-518.397,0,0
216697.9,558.493,-521.514,0,0
216958.225,560.47,-524.561,0,0
217218.55,562.534,-527.588,0,0
217478.875,564.807,-530.59,0,0
217739.2,567.2,-533.803,0,0
217999.525,569.609,-537.148,0,0
218259.85,571.992,-540.533,0,0
218520,574.389,-543.855,0,0
218780,576.976,-546.984,0,0
219041,579.987,-550.173,0,0
219301,583.374,-553.605,0,0
219561,587.079,-557.309,0,0
219822,591.12,-561.632,0,0
220082,595.14,-566.445,0,0
220342,599.127,-571.852,0,0
220603,602.939,-577.535,0,0
220863,606.653,-583.441,0,0
221123,610.621,-589.702,0,0
221384,614.469,-596.792,0,0
221644,618.333,-604.436,0,0
221904,621.675,-612.812,0,0
222165,624.613,-621.785,0,0
222425,626.853,-631.193,0,0
222685,628.52,-641.044,0,0
222946,629.427,-651.191,0,0
223206,629.535,-661.295,0,0
223466,629.054,-671.394,0,0
223727,627.921,-681.469,0,0
223987,626.428,-691.418,0,0
224247,624.329,-701.324,0,0
224508,621.919,-710.939,0,0
224768,619.08,-720.663,0,0
225028,615.777,-730.171,0,0
225289,612.118,-739.806,0,0
225549,607.698,-749.138,0,0
225809,602.82,-758.156,0,0
226070,597.716,-766.815,0,0
226330,592.619,-775.376,0,0
226590,587.054,-783.974,0,0
226851,581.007,-792.382,0,0
227111,574.412,-800.732,0,0
227371,567.371,-808.83,0,0
227632,559.877,-816.681,0,0
227892,551.543,-824.008,0,0
228152,542.789,-830.822,0,0
228413,533.572,-836.913,0,0
228673,524.171,-842.256,0,0
228933,514.563,-846.918,0,0
229193,504.953,-850.998,0,0
229454,495.483,-854.421,0,0
229714,485.915,-857.215,0,0
229974,476.447,-859.596,0,0
230235,467.015,-861.225,0,0
230495,457.841,-862.208,0,0
230755,449.094,-862.791,0,0
231016,440.583,-862.956,0,0
231276,432.505,-862.899,0,0
231536,424.638,-862.422,0,0
231797,417.139,-861.75,0,0
232057,409.897,-860.808,0,0
232317,403.04,-859.701,0,0
232578,396.651,-858.472,0,0
232838,390.575,-857.181,0,0
233098,384.823,-855.885,0,0
233359,379.28,-854.826,0,0
233619,373.886,-853.637,0,0
233879,368.59,-852.405,0,0
234140,363.534,-851.261,0,0
234400,358.766,-850.174,0,0
234660.3,354.074,-849.273,0,0
234920.625,349.467,-848.612,0,0
235180.95,344.671,-848.053,0,0
235441.275,339.719,-847.416,0,0
235701.6,334.594,-846.667,0,0
235961.925,329.466,-845.78,0,0
236222.25,324.37,-844.638,0,0
236482.575,319.552,-843.324,0,0
236742.9,314.644,-841.925,0,0
237003.225,310.082,-840.506,0,0
237263.55,305.46,-839.135,0,0
237523.875,300.769,-837.677,0,0
237784.2,296.218,-836.1,0,0
238044.525,291.738,-834.472,0,0
238304.85,287.224,-832.764,0,0
238565.175,282.732,-830.959,0,0
238825.5,278.33,-829.019,0,0
239085.825,274.078,-826.919,0,0
239346.15,269.939,-824.782,0,0
239606.475,265.91,-822.597,0,0
239866.8,262.002,-820.321,0,0
240127.125,258.242,-817.904,0,0
240387.45,254.726,-815.472,0,0
240647.775,251.319,-813.204,0,0
240908.1,247.958,-810.896,0,0
241168.425,244.671,-808.585,0,0
241428.75,241.232,-806.34,0,0
241689.075,238.089,-803.902,0,0
241949.4,235,-801.503,0,0
242209.725,231.945,-798.943,0,0
242470.05,229.097,-796.554,0,0
242730.375,226.267,-794.13,0,0
242990.7,223.602,-791.7,0,0
243251.025,220.984,-789.321,0,0
243511.35,218.527,-786.962,0,0
243771.675,216.039,-784.679,0,0
244032.0,213.63,-782.453,0,0
244292.325,211.226,-780.116,0,0
244552.65,208.944,-777.996,0,0
244812.975,206.604,-775.972,0,0
245073.3,204.208,-773.857,0,0
245333.625,201.829,-771.686,0,0
245593.95,199.335,-769.465,0,0
245854.275,196.927,-767.323,0,0
246114.6,194.583,-765.029,0,0
246374.925,192.174,-762.773,0,0
246635.25,189.799,-760.289,0,0
246895.575,187.5,-757.899,0,0
247155.9,185.311,-755.405,0,0
247416.225,183.226,-752.796,0,0
247676.55,181.17,-750.232,0,0
247936.875,179.302,-747.613,0,0
248197.2,177.489,-745.106,0,0
248457.525,175.735,-742.555,0,0
248717.85,174.119,-740.113,0,0
248978.175,172.41,-737.583,0,0
249238.5,170.784,-735.138,0,0
249498.825,169.265,-732.677,0,0
249759.15,167.761,-730.197,0,0
250019.475,166.476,-727.684,0,0
250279.8,165.011,-725.244,0,0
250540,163.616,-723.082,0,0
250800,162.238,-720.611,0,0
251061,160.87,-718.085,0,0
251321,159.635,-715.607,0,0
251581,158.386,-713.179,0,0
251842,157.172,-710.751,0,0
252102,155.993,-708.387,0,0
252362,154.832,-705.98,0,0
252623,153.67,-703.579,0,0
252883,152.514,-701.129,0,0
253143,151.437,-698.629,0,0
253404,150.38,-696.078,0,0
253664,149.49,-693.489,0,0
253924,148.559,-690.847,0,0
254185,147.731,-688.152,0,0
254445,147.005,-685.597,0,0
254705,146.343,-683.047,0,0
254966,145.883,-680.331,0,0
255226,145.433,-677.909,0,0
255486,145.018,-675.492,0,0
255747,144.675,-673.153,0,0
256007,144.335,-670.849,0,0
256267,143.973,-668.524,0,0
256528,143.599,-666.231,0,0
256788,143.335,-663.888,0,0
257048,143.129,-661.532,0,0
257309,142.958,-659.289,0,0
257569,142.746,-657.008,0,0
257829,142.524,-654.757,0,0
258090,142.363,-652.377,0,0
258350,142.281,-650.02,0,0
258610,142.294,-647.625,0,0
258871,142.386,-645.17,0,0
259131,142.599,-642.682,0,0
259391,143.017,-640.246,0,0
259651,143.523,-637.884,0,0
259912,144.114,-635.629,0,0
260172,144.871,-633.474,0,0
260432,145.632,-631.42,0,0
260693,146.486,-629.483,0,0
260953,147.411,-627.643,0,0
261213,148.359,-625.925,0,0
261474,149.383,-624.276,0,0
261734,150.403,-622.638,0,0
261994,151.39,-621.186,0,0
262255,152.467,-619.803,0,0
262515,153.518,-618.506,0,0
262775,154.635,-617.323,0,0
263036,155.708,-616.21,0,0
263296,156.763,-615.147,0,0
263556,157.898,-614.185,0,0
263817,159.016,-613.259,0,0
264077,160.133,-612.532,0,0
264337,161.31,-611.788,0,0
264598,162.422,-611.126,0,0
264858,163.645,-610.531,0,0
265118,164.923,-610.068,0,0
265379,166.233,-609.727,0,0
265639,167.669,-609.607,0,0
265899,169.05,-609.804,0,0
266160,170.37,-610.201,0,0
266420,171.599,-610.861,0,0
266680.25,172.652,-611.807,0,0
266940.575,173.44,-612.932,0,0
267200.9,173.961,-614.232,0,0
267461.225,174.207,-615.598,0,0
267721.55,174.102,-616.971,0,0
267981.875,173.773,-618.369,0,0
268242.2,173.185,-619.799,0,0
268502.525,172.294,-621.232,0,0
268762.85,171.032,-622.542,0,0
269023.175,169.452,-623.569,0,0
269283.5,167.686,-624.418,0,0
269543.825,165.708,-624.998,0,0
269804.15,163.648,-625.314,0,0
270064.475,161.429,-625.343,0,0
270324.8,159.203,-625.076,0,0
270585.125,156.993,-624.572,0,0
270845.45,154.763,-623.804,0,0
271105.775,152.697,-622.692,0,0
271366.1,150.763,-621.435,0,0
271626.425,149.051,-619.995,0,0
271886.75,147.417,-618.321,0,0
272147.075,146.022,-616.595,0,0
272407.4,144.738,-614.792,0,0
272667.725,143.709,-612.946,0,0
272928.05,142.796,-611.087,0,0
273188.375,142.094,-609.196,0,0
273448.7,141.5,-607.263,0,0
273709.025,141.076,-605.393,0,0
273969.35,140.778,-603.611,0,0
274229.675,140.562,-601.935,0,0
274490.0,140.391,-600.303,0,0
274750.325,140.335,-598.793,0,0
275010.65,140.284,-597.329,0,0
275270.975,140.283,-595.905,0,0
275531.3,140.321,-594.511,0,0
275791.625,140.333,-593.101,0,0
276051.95,140.403,-591.707,0,0
276312.275,140.595,-590.327,0,0
276572.6,140.827,-589.07,0,0
276832.925,141.127,-587.813,0,0
277093.25,141.483,-586.624,0,0
277353.575,141.914,-585.494,0,0
277613.9,142.415,-584.498,0,0
277874.225,142.916,-583.606,0,0
278134.55,143.386,-582.814,0,0
278394.875,143.879,-582.104,0,0
278655.2,144.33,-581.541,0,0
278915.525,144.777,-581.033,0,0
279175.85,145.149,-580.646,0,0
279436.175,145.448,-580.259,0,0
279696.5,145.666,-579.964,0,0
279956.825,145.831,-579.702,0,0
280217.15,145.967,-579.445,0,0
280477.475,145.98,-579.224,0,0
280737.8,145.994,-579.047,0,0
280998.125,145.878,-578.827,0,0
281258.45,145.723,-578.636,0,0
281518.775,145.494,-578.549,0,0
281779.1,145.107,-578.481,0,0
282039.425,144.7,-578.389,0,0
282299.75,144.115,-578.052,0,0
282560,143.496,-577.669,0,0
282820,142.852,-577.346,0,0
283081,142.142,-576.94,0,0
283341,141.387,-576.435,0,0
283601,140.626,-575.769,0,0
283862,139.95,-575.054,0,0
284122,139.325,-574.24,0,0
284382,138.779,-573.436,0,0
284643,138.285,-572.61,0,0
284903,137.869,-571.798,0,0
285163,137.412,-571.028,0,0
285424,137.011,-570.301,0,0
285684,136.54,-569.652,0,0
285944,135.995,-569.012,0,0
286205,135.328,-568.38,0,0
286465,134.519,-567.673,0,0
286725,133.626,-566.784,0,0
286986,132.703,-565.716,0,0
287246,131.792,-564.479,0,0
287506,130.973,-563.031,0,0
287767,130.283,-561.432,0,0
288027,129.741,-559.71,0,0
288287,129.385,-557.878,0,0
288548,129.316,-555.965,0,0
288808,129.518,-554.132,0,0
289068,129.908,-552.405,0,0
289329,130.445,-550.844,0,0
289589,131.08,-549.421,0,0
289849,131.757,-548.27,0,0
290109,132.527,-547.243,0,0
290370,133.257,-546.437,0,0
290630,133.829,-545.748,0,0
290890,134.353,-545.092,0,0
291151,134.759,-544.521,0,0
291411,135.155,-543.944,0,0
291671,135.471,-543.411,0,0
291932,135.761,-542.949,0,0
292192,135.944,-542.559,0,0
292452,136.012,-542.15,0,0
292713,135.917,-541.749,0,0
292973,135.721,-541.209,0,0
293233,135.476,-540.569,0,0
293494,135.17,-539.853,0,0
293754,134.871,-539.005,0,0
294014,134.533,-538.012,0,0
294275,134.278,-536.881,0,0
294535,134.094,-535.667,0,0
294795,134.029,-534.311,0,0
295056,134.061,-532.849,0,0
295316,134.322,-531.355,0,0
295576,134.759,-529.869,0,0
295837,135.316,-528.401,0,0
296097,136.026,-526.981,0,0
296357,136.881,-525.687,0,0
296618,137.836,-524.548,0,0
296878,138.824,-523.511,0,0
297138,139.797,-522.724,0,0
297399,140.705,-521.947,0,0
297659,141.565,-521.144,0,0
297919,142.449,-520.394,0,0
298180,143.346,-519.63,0,0
298440,144.311,-518.844,0,0
298700.2,145.396,-518.005,0,0
298960.525,146.421,-517.38,0,0
299220.85,147.47,-516.748,0,0
299481.175,148.484,-516.235,0,0
299741.5,149.607,-515.632,0,0
300001.825,150.678,-515.146,0,0
300262.15,151.937,-514.736,0,0
300522.475,153.019,-514.416,0,0
300782.8,154.141,-514.077,0,0
301043.125,155.438,-513.663,0,0
301303.45,156.781,-513.423,0,0
301563.775,158.214,-513.271,0,0
301824.1,159.645,-513.298,0,0
302084.425,161.09,-513.476,0,0
302344.75,162.553,-513.866,0,0
302605.075,163.873,-514.286,0,0
302865.4,165.11,-514.816,0,0
303125.725,166.204,-515.457,0,0
303386.05,167.263,-516.161,0,0
303646.375,168.251,-516.89,0,0
303906.7,169.159,-517.51,0,0
304167.025,170.034,-518.153,0,0
304427.35,170.954,-518.916,0,0
304687.675,171.86,-519.762,0,0
304948.0,172.649,-520.602,0,0
305208.325,173.442,-521.467,0,0
305468.65,174.196,-522.39,0,0
305728.975,174.918,-523.358,0,0
305989.3,175.691,-524.404,0,0
306249.625,176.275,-525.529,0,0
306509.95,176.845,-526.664,0,0
306770.275,177.475,-527.899,0,0
307030.6,177.913,-529.377,0,0
307290.925,178.212,-530.81,0,0
307551.25,178.415,-532.328,0,0
307811.575,178.51,-533.762,0,0
308071.9,178.348,-535.142,0,0
308332.225,178.141,-536.599,0,0
308592.55,177.783,-537.872,0,0
308852.875,177.506,-539.114,0,0
309113.2,177.083,-540.248,0,0
309373.525,176.829,-541.409,0,0
309633.85,176.494,-542.552,0,0
309894.175,176.193,-543.731,0,0
310154.5,175.869,-544.921,0,0
310414.825,175.53,-546.259,0,0
310675.15,175.051,-547.705,0,0
310935.475,174.476,-549.127,0,0
311195.8,173.82,-550.58,0,0
311456.125,173.015,-551.882,0,0
311716.45,172.034,-553.307,0,0
311976.775,171.022,-554.763,0,0
312237.1,169.743,-556.052,0,0
312497.425,168.403,-557.417,0,0
312757.75,166.968,-558.55,0,0
313018.075,165.371,-559.613,0,0
313278.4,163.78,-560.534,0,0
313538.725,162.145,-561.434,0,0
313799.05,160.35,-561.956,0,0
314059.375,158.677,-562.432,0,0
314319.7,157.055,-562.811,0,0
314580,155.53,-563.267,0,0
314840,154.093,-563.566,0,0
315101,152.598,-563.828,0,0
315361,151.242,-564.155,0,0
315621,149.868,-564.469,0,0
315882,148.233,-564.771,0,0
316142,146.683,-565.005,0,0
316402,145.127,-565.17,0,0
316663,143.431,-565.319,0,0
316923,141.785,-565.272,0,0
317183,140.168,-565.223,0,0
317444,138.509,-565.173,0,0
317704,136.913,-564.945,0,0
317964,135.287,-564.715,0,0
318225,133.609,-564.376,0,0
318485,132.146,-563.994,0,0
318745,130.619,-563.654,0,0
319006,129.049,-563.211,0,0
319266,127.624,-562.786,0,0
319526,126.078,-562.297,0,0
319787,124.588,-561.784,0,0
320047,123.092,-561.139,0,0
320307,121.681,-560.48,0,0
320567,120.242,-559.871,0,0
320828,118.85,-559.012,0,0
321088,117.508,-558.294,0,0
321348,116.183,-557.434,0,0
321609,114.897,-556.508,0,0
321869,113.557,-555.593,0,0
322129,112.348,-554.673,0,0
322390,111.165,-553.671,0,0
322650,110.001,-552.478,0,0
322910,108.939,-551.373,0,0
323171,108.014,-550.222,0,0
323431,107.135,-549.045,0,0
323691,106.393,-547.875,0,0
323952,105.638,-546.764,0,0
324212,104.998,-545.545,0,0
324472,104.426,-544.436,0,0
324733,103.889,-543.385,0,0
324993,103.383,-542.369,0,0
325253,102.894,-541.342,0,0
325514,102.525,-540.383,0,0
325774,102.118,-539.427,0,0
326034,101.867,-538.557,0,0
326295,101.568,-537.68,0,0
326555,101.286,-536.812,0,0
326815,101.032,-536.025,0,0
327076,100.782,-535.359,0,0
327336,100.516,-534.616,0,0
327596,100.304,-534.026,0,0
327857,100.045,-533.478,0,0
328117,99.8016,-532.858,0,0
328377,99.5791,-532.298,0,0
328638,99.3013,-531.79,0,0
328898,98.9527,-531.279,0,0
329158,98.6597,-530.924,0,0
329419,98.4275,-530.542,0,0
329679,98.0674,-530.087,0,0
329939,97.7578,-529.787,0,0
330200,97.3847,-529.488,0,0
330460,96.913,-529.131,0,0
330720.15,96.3962,-528.624,0,0
330980.475,95.9725,-528.314,0,0
331240.8,95.4588,-528.003,0,0
331501.125,94.8892,-527.674,0,0
331761.45,94.2812,-527.381,0,0
332021.775,93.7007,-527.039,0,0
332282.1,93.0007,-526.753,0,0
332542.425,92.3242,-526.423,0,0
332802.75,91.7537,-525.984,0,0
333063.075,90.9401,-525.605,0,0
333323.4,90.3058,-525.231,0,0
333583.725,89.5875,-524.702,0,0
333844.05,88.8884,-524.24,0,0
334104.375,88.1357,-523.892,0,0
334364.7,87.43,-523.373,0,0
334625.025,86.6368,-522.879,0,0
334885.35,85.9217,-522.3,0,0
335145.675,85.18,-521.649,0,0
335406.0,84.3994,-521.105,0,0
335666.325,83.6874,-520.461,0,0
335926.65,82.8564,-519.743,0,0
336186.975,82.1746,-519.04,0,0
336447.3,81.4796,-518.437,0,0
336707.625,80.7726,-517.653,0,0
336967.95,80.0659,-516.979,0,0
337228.275,79.4474,-516.155,0,0
337488.6,78.8176,-515.466,0,0
337748.925,78.1,-514.652,0,0
338009.25,77.4915,-513.891,0,0
338269.575,76.8854,-513.085,0,0
338529.9,76.1689,-512.267,0,0
338790.225,75.5243,-511.348,0,0
339050.55,74.9774,-510.526,0,0
339310.875,74.3898,-509.678,0,0
339571.2,73.8444,-508.779,0,0
339831.525,73.3427,-507.908,0,0
340091.85,72.8494,-507.107,0,0
340352.175,72.3787,-506.265,0,0
340612.5,71.8884,-505.343,0,0
340872.825,71.4518,-504.586,0,0
341133.15,70.9324,-503.809,0,0
341393.475,70.4883,-502.976,0,0
341653.8,70.0724,-502.133,0,0
341914.125,69.6103,-501.307,0,0
342174.45,69.1705,-500.513,0,0
342434.775,68.7768,-499.734,0,0
342695.1,68.315,-498.921,0,0
342955.425,67.8438,-498.082,0,0
343215.75,67.4345,-497.355,0,0
343476.075,66.9933,-496.493,0,0
343736.4,66.5887,-495.716,0,0
343996.725,66.13,-494.867,0,0
344257.05,65.6976,-494.033,0,0
344517.375,65.2551,-493.199,0,0
344777.7,64.8888,-492.382,0,0
345038.025,64.4538,-491.5,0,0
345298.35,64.0719,-490.669,0,0
345558.675,63.6408,-489.804,0,0
345819.0,63.2853,-488.913,0,0
346079.325,62.8985,-488.08,0,0
346339.65,62.5087,-487.139,0,0
346599.975,62.1077,-486.267,0,0
346860,61.7766,-485.358,0,0
347121,61.3651,-484.484,0,0
347381,61.0414,-483.481,0,0
347641,60.754,-482.594,0,0
347902,60.4437,-481.559,0,0
348162,60.1737,-480.645,0,0
348422,59.893,-479.643,0,0
348683,59.7072,-478.726,0,0
348943,59.5352,-477.818,0,0
349203,59.3372,-476.833,0,0
349464,59.1429,-475.998,0,0
349724,58.9895,-475.017,0,0
349984,58.8037,-474.124,0,0
350245,58.6327,-473.262,0,0
350505,58.486,-472.345,0,0
350765,58.328,-471.402,0,0
351025,58.2197,-470.474,0,0
351286,58.1307,-469.669,0,0
351546,58.0256,-468.766,0,0
351806,57.9284,-467.896,0,0
352067,57.8535,-467.039,0,0
352327,57.7629,-466.208,0,0
352587,57.6751,-465.382,0,0
352848,57.6403,-464.518,0,0
353108,57.5849,-463.707,0,0
353368,57.5401,-462.873,0,0
353629,57.4579,-462.078,0,0
353889,57.4043,-461.264,0,0
354149,57.3548,-460.459,0,0
354410,57.2984,-459.624,0,0
354670,57.2513,-458.808,0,0
354930,57.1424,-458.029,0,0
355191,57.1354,-457.226,0,0
355451,57.0599,-456.423,0,0
355711,57.05,-455.598,0,0
355972,57.0735,-454.785,0,0
356232,57.0351,-454.051,0,0
356492,57.0571,-453.235,0,0
356753,57.0306,-452.495,0,0
357013,57.064,-451.7,0,0
357273,57.0045,-450.932,0,0
357534,57.0115,-450.202,0,0
357794,57.0666,-449.433,0,0
358054,57.0821,-448.69,0,0
358315,57.0645,-447.93,0,0
358575,57.0698,-447.162,0,0
358835,57.0961,-446.442,0,0
359096,57.0489,-445.725,0,0
359356,57.123,-444.892,0,0
359616,57.176,-444.153,0,0
359877,57.2064,-443.382,0,0
360137,57.2412,-442.652,0,0
360397,57.359,-441.893,0,0
360658,57.4098,-441.169,0,0
360918,57.5352,-440.439,0,0
361178,57.5979,-439.738,0,0
361438,57.6629,-439.046,0,0
361699,57.6758,-438.405,0,0
361959,57.8117,-437.747,0,0
362219,57.8103,-437.031,0,0
362480,57.8201,-436.361,0,0
362740.1,57.9163,-435.635,0,0
363000.425,57.9536,-434.919,0,0
363260.75,58.0412,-434.163,0,0
363521.075,58.1418,-433.415,0,0
363781.4,58.2203,-432.776,0,0
364041.725,58.2926,-432.024,0,0
364302.05,58.395,-431.36,0,0
364562.375,58.5115,-430.63,0,0
364822.7,58.6236,-429.916,0,0
365083.025,58.7587,-429.241,0,0
365343.35,58.8676,-428.586,0,0
365603.675,58.9935,-427.938,0,0
365864.0,59.1584,-427.26,0,0
366124.325,59.2542,-426.66,0,0
366384.65,59.3635,-426.003,0,0
366644.975,59.4062,-425.392,0,0
366905.3,59.4413,-424.748,0,0
367165.625,59.4549,-424.057,0,0
367425.95,59.5291,-423.34,0,0
367686.275,59.527,-422.6,0,0
367946.6,59.5506,-421.802,0,0
368206.925,59.6306,-420.99,0,0
368467.25,59.6858,-420.138,0,0
368727.575,59.8217,-419.247,0,0
368987.9,60.0264,-418.347,0,0
369248.225,60.2488,-417.413,0,0
369508.55,60.5261,-416.508,0,0
369768.875,60.8542,-415.587,0,0
370029.2,61.2163,-414.733,0,0
370289.525,61.6326,-413.831,0,0
370549.85,62.1492,-412.945,0,0
370810.175,62.6617,-412.102,0,0
371070.5,63.1883,-411.316,0,0
371330.825,63.7798,-410.499,0,0
371591.15,64.43,-409.806,0,0
371851.475,65.1007,-409.11,0,0
372111.8,65.8137,-408.467,0,0
372372.125,66.5133,-407.96,0,0
372632.45,67.2743,-407.406,0,0
372892.775,67.9897,-406.996,0,0
373153.1,68.6904,-406.568,0,0
373413.425,69.4925,-406.196,0,0
373673.75,70.1758,-405.92,0,0
373934.075,70.8985,-405.721,0,0
374194.4,71.5697,-405.559,0,0
374454.725,72.2245,-405.391,0,0
374715.05,72.8044,-405.331,0,0
374975.375,73.3313,-405.242,0,0
375235.7,73.8592,-405.221,0,0
375496.025,74.3034,-405.133,0,0
375756.35,74.7432,-405.096,0,0
376016.675,75.1693,-405.045,0,0
376277.0,75.5457,-404.993,0,0
376537.325,75.9351,-404.905,0,0
376797.65,76.2805,-404.82,0,0
377057.975,76.6823,-404.82,0,0
377318.3,77.0815,-404.742,0,0
377578.625,77.5219,-404.735,0,0
377838.95,77.8836,-404.749,0,0
378099.275,78.2589,-404.801,0,0
378359.6,78.5954,-404.814,0,0
378619.925,78.9193,-404.945,0,0
378880,79.149,-404.971,0,0
379141,79.3483,-405.058,0,0
379401,79.5927,-405.084,0,0
379661,79.7909,-405.042,0,0
379922,80.0446,-405.073,0,0
380182,80.3046,-405.019,0,0
380442,80.5505,-404.98,0,0
380703,80.9151,-404.993,0,0
380963,81.2452,-405.041,0,0
381223,81.6674,-405.202,0,0
381483,82.0427,-405.4,0,0
381744,82.3797,-405.751,0,0
382004,82.6492,-406.133,0,0
382264,82.8355,-406.557,0,0
382525,82.9737,-407.03,0,0
382785,82.9689,-407.418,0,0
383045,82.9627,-407.939,0,0
383306,82.8261,-408.362,0,0
383566,82.5807,-408.712,0,0
383826,82.3994,-409.212,0,0
384087,82.1652,-409.575,0,0
384347,81.7312,-409.861,0,0
384607,81.4326,-410.253,0,0
384868,80.9805,-410.536,0,0
385128,80.5123,-410.839,0,0
385388,80.0102,-411.101,0,0
385649,79.4714,-411.271,0,0
385909,78.8773,-411.383,0,0
386169,78.2948,-411.47,0,0
386430,77.6116,-411.506,0,0
386690,77.0202,-411.476,0,0
386950,76.3588,-411.295,0,0
387211,75.6945,-411.151,0,0
387471,75.0447,-410.859,0,0
387731,74.4549,-410.62,0,0
387992,73.8643,-410.307,0,0
388252,73.3503,-409.961,0,0
388512,72.8458,-409.599,0,0
388773,72.4007,-409.155,0,0
389033,72.006,-408.77,0,0
389293,71.6043,-408.305,0,0
389554,71.2475,-407.908,0,0
389814,70.8817,-407.525,0,0
390074,70.5902,-407.084,0,0
390335,70.2911,-406.677,0,0
390595,70.0181,-406.33,0,0
390855,69.7847,-405.913,0,0
391116,69.5559,-405.589,0,0
391376,69.326,-405.224,0,0
391636,69.0269,-404.895,0,0
391896,68.7862,-404.633,0,0
392157,68.5416,-404.403,0,0
392417,68.2101,-404.133,0,0
392677,67.8812,-403.841,0,0
392938,67.5024,-403.581,0,0
393198,67.063,-403.357,0,0
393458,66.7086,-403.105,0,0
393719,66.216,-402.808,0,0
393979,65.7403,-402.443,0,0
394239,65.3041,-402.053,0,0
394500,64.7672,-401.68,0,0
394760.05,64.2879,-401.278,0,0
395020.375,63.8103,-400.793,0,0
395280.7,63.3302,-400.27,0,0
395541.025,62.861,-399.701,0,0
395801.35,62.4335,-399.127,0,0
396061.675,62.0079,-398.517,0,0
396322.0,61.5512,-397.879,0,0
396582.325,61.1586,-397.126,0,0
396842.65,60.8094,-396.505,0,0
397102.975,60.4862,-395.852,0,0
397363.3,60.1911,-395.125,0,0
397623.625,59.8957,-394.456,0,0
397883.95,59.6365,-393.754,0,0
398144.275,59.3969,-393.07,0,0
398404.6,59.1358,-392.377,0,0
398664.925,58.9071,-391.69,0,0
398925.25,58.7632,-390.959,0,0
399185.575,58.5662,-390.265,0,0
399445.9,58.4016,-389.519,0,0
399706.225,58.1971,-388.795,0,0
399966.55,58.0838,-388.101,0,0
400006.6,58.0339,-387.937,0,0