File: Accelerated corrosion test data/2025-10-14_08-28-47/sample_7.csv
Frequency (Hz),Impedance (ohms),Phase (Radians),Temperature (C),Humidity (%)
10000.0,274.113,-12041.2,0,0
10260.325,270.232,-11752.1,0,0
10520.65,258.465,-11454.5,0,0
10780.975,252.884,-11174.6,0,0
11041.3,250.819,-10908.4,0,0
11301.625,247.617,-10653.4,0,0
11561.95,250.759,-10405.4,0,0
11822.275,260.579,-10174.1,0,0
12082.6,270.981,-9949.59,0,0
12342.925,316.713,-9804,0,0
12603.25,257.087,-9605.01,0,0
12863.575,266.52,-9425.49,0,0
13123.9,236.941,-9236.98,0,0
13384.225,227.16,-9063.42,0,0
13644.55,227.594,-8884.55,0,0
13904.875,209.653,-8716.2,0,0
14165.2,210.777,-8544.06,0,0
14425.525,204.518,-8407.2,0,0
14685.8,203.314,-8256.73,0,0
14946.175,199.588,-8110.97,0,0
15206.5,195.327,-7982.55,0,0
15466.825,186.628,-7839.89,0,0
15727.15,183.041,-7712.97,0,0
15987.5,180.212,-7583.61,0,0
16247.8,177.413,-7465.81,0,0
16508.125,171.69,-7343.58,0,0
16768.45,171.277,-7225.74,0,0
17028.775,170.882,-7115.56,0,0
17289.1,166.544,-7007.34,0,0
17549.425,165.84,-6899.59,0,0
17809.75,171.562,-6791.32,0,0
18070.075,169.044,-6694.63,0,0
18330.4,180.972,-6589.44,0,0
18590.725,200.298,-6506.6,0,0
18851.05,191.302,-6433.89,0,0
19111.375,180.216,-6349.73,0,0
19371.7,202.419,-6284.66,0,0
19632.025,168.116,-6209.08,0,0
19892.35,159.325,-6109.4,0,0
20152.675,169.209,-6031.9,0,0
20413.0,168.584,-5959.23,0,0
20673.3,171.362,-5878.45,0,0
20933.65,179.73,-5821.72,0,0
21193.975,161.278,-5757.76,0,0
21454.3,153.942,-5683.48,0,0
21714.625,157.376,-5619.61,0,0
21974.9,146.333,-5555.93,0,0
22235.275,141.428,-5487.4,0,0
22495.6,139.57,-5424.39,0,0
22755.925,133.811,-5361.22,0,0
23016.25,130.404,-5297.32,0,0
23276.6,128.699,-5234.53,0,0
23536.9,129.74,-5175.3,0,0
23797.225,127.846,-5120.04,0,0
24057.55,124.457,-5062.59,0,0
24317.875,122.843,-5005.51,0,0
24578.2,123.808,-4951.54,0,0
24838.525,122.588,-4897.84,0,0
25098.85,121.698,-4846.58,0,0
25359.175,120.145,-4794.29,0,0
25619.5,119.018,-4742.28,0,0
25879.8,118.882,-4693.18,0,0
26140.1,119.368,-4641.29,0,0
26400.5,123.733,-4595.41,0,0
26660.8,121.611,-4548.97,0,0
26921.1,122.75,-4499.14,0,0
27181.4,127.805,-4451.65,0,0
27441.8,131.361,-4404.79,0,0
27702.1,142.303,-4358.89,0,0
27962.4,156.251,-4314.75,0,0
28222.7,177.247,-4288.01,0,0
28483.1,182.948,-4267.72,0,0
28743.4,182.872,-4253.5,0,0
29003.7,166.591,-4231.42,0,0
29264,149.031,-4196.37,0,0
29524.4,139.905,-4157.71,0,0
29784.7,132.021,-4119.55,0,0
30045,129.332,-4076.23,0,0
30305.3,130.998,-4039.9,0,0
30565.7,132.003,-4006.25,0,0
30826,131.927,-3973.82,0,0
31086.3,133.502,-3944.12,0,0
31346.6,131.061,-3914.58,0,0
31607,128.237,-3890.01,0,0
31867.3,121.045,-3858.33,0,0
32127.6,117.466,-3826.89,0,0
32387.9,114.728,-3796.35,0,0
32648.3,110.742,-3766.68,0,0
32908.6,107.769,-3736.36,0,0
33168.9,104.72,-3706.83,0,0
33429.2,101.273,-3676.85,0,0
33689.6,99.3424,-3647.05,0,0
33949.9,97.2735,-3617.98,0,0
34210.2,95.5196,-3589.15,0,0
34470.5,93.7865,-3560.7,0,0
34730.9,92.3366,-3532.73,0,0
34991.2,91.4402,-3504.99,0,0
35251.5,90.1475,-3478.21,0,0
35511.8,89.4817,-3451.24,0,0
35772.2,88.8029,-3425.12,0,0
36032.5,88.7215,-3399.2,0,0
36292.8,88.0838,-3374.47,0,0
36553.1,86.9604,-3349.46,0,0
36813.5,86.4955,-3324.58,0,0
37073.8,86.4922,-3300.02,0,0
37334.1,86.34,-3276.08,0,0
37594.4,85.9873,-3252.85,0,0
37854.8,85.2259,-3229.48,0,0
38115.1,85.2628,-3205.32,0,0
38375.4,85.9045,-3182.47,0,0
38635.7,86.7939,-3159.36,0,0
38896.1,88.3852,-3136.87,0,0
39156.4,90.1372,-3115.31,0,0
39416.7,93.4184,-3093.97,0,0
39677,97.1671,-3075.93,0,0
39937.4,98.5499,-3060.41,0,0
40197.7,98.489,-3044.56,0,0
40458,95.7498,-3029.19,0,0
40718.3,92.441,-3011.27,0,0
40978.7,89.2527,-2992.56,0,0
41239,86.8606,-2973.2,0,0
41499.3,85.0152,-2953.95,0,0
41759.6,84.1005,-2934.98,0,0
42020,82.177,-2916.66,0,0
42280.275,80.5135,-2897.25,0,0
42540.6,80.2827,-2877.56,0,0
42800.925,80.5019,-2859.63,0,0
43061.25,80.372,-2841.56,0,0
43321.575,80.3086,-2825.17,0,0
43581.9,79.0227,-2807.49,0,0
43842.225,79.0454,-2789.1,0,0
44102.55,79.8678,-2771.76,0,0
44362.875,81.9952,-2756.12,0,0
44623.2,82.1204,-2741.02,0,0
44883.525,81.5094,-2726.73,0,0
45143.85,80.3886,-2711.74,0,0
45404.175,78.6154,-2695.89,0,0
45664.5,79.8987,-2679.31,0,0
45924.825,81.0926,-2665.97,0,0
46185.15,79.6237,-2653.44,0,0
46445.475,77.2127,-2639.68,0,0
46705.8,74.4598,-2624.86,0,0
46966.125,72.6842,-2609.46,0,0
47226.45,71.3276,-2593.27,0,0
47486.775,71.102,-2578.45,0,0
47747.1,70.7303,-2563.47,0,0
48007.425,70.2868,-2549.45,0,0
48267.75,70.1239,-2535.59,0,0
48528.075,69.1765,-2521.39,0,0
48788.4,68.4812,-2507.5,0,0
49048.725,68.0454,-2493.51,0,0
49309.05,67.6753,-2479.84,0,0
49569.375,67.1804,-2466.43,0,0
49829.7,66.8251,-2453.05,0,0
50090.025,66.4084,-2439.86,0,0
50350.35,66.0532,-2426.66,0,0
50610.675,65.8679,-2413.91,0,0
50871.0,65.5584,-2401.14,0,0
51131.325,65.0948,-2388.49,0,0
51391.65,64.6269,-2375.85,0,0
51651.975,64.5742,-2363.51,0,0
51912.3,64.1562,-2351.26,0,0
52172.625,64.052,-2338.83,0,0
52432.95,63.8922,-2326.98,0,0
52693.275,63.7619,-2314.95,0,0
52953.6,63.6964,-2303.19,0,0
53213.925,63.6018,-2291.79,0,0
53474.25,63.2381,-2280.48,0,0
53734.575,63.0508,-2269.23,0,0
53994.9,62.4476,-2257.97,0,0
54255.225,62.3096,-2246.57,0,0
54515.55,61.9429,-2235.67,0,0
54775.875,61.7602,-2224.64,0,0
55036.2,61.3735,-2213.69,0,0
55296.525,61.1978,-2202.88,0,0
55556.85,60.9455,-2192.06,0,0
55817.175,60.6963,-2181.45,0,0
56077.5,60.4975,-2170.82,0,0
56337.825,60.52,-2160.45,0,0
56598.15,60.3284,-2150.17,0,0
56858.475,60.2135,-2140,0,0
57118.8,59.9717,-2130,0,0
57379.125,59.7413,-2119.94,0,0
57639.45,59.4403,-2109.87,0,0
57899.775,59.2032,-2099.83,0,0
58160.1,59.3,-2089.77,0,0
58420.4,59.5684,-2080.07,0,0
58680.7,59.6835,-2070.72,0,0
58941.1,59.4992,-2061.51,0,0
59201.4,59.1972,-2052.09,0,0
59461.7,59.4481,-2042.36,0,0
59722,59.6959,-2033.75,0,0
59982.4,59.3701,-2024.59,0,0
60242.7,59.5749,-2015.81,0,0
60503,59.3238,-2007.32,0,0
60763.3,59.094,-1998.8,0,0
61023.7,58.5993,-1989.95,0,0
61284,58.1665,-1981.36,0,0
61544.3,57.8467,-1972.86,0,0
61804.6,57.3889,-1964.32,0,0
62065,56.8584,-1955.58,0,0
62325.3,56.5348,-1946.94,0,0
62585.6,56.3539,-1938.46,0,0
62845.9,55.9128,-1929.97,0,0
63106.3,55.7561,-1921.51,0,0
63366.6,55.702,-1913.04,0,0
63626.9,55.7493,-1904.74,0,0
63887.2,55.4889,-1896.75,0,0
64147.6,55.2494,-1888.64,0,0
64407.9,55.0528,-1880.56,0,0
64668.2,55.0085,-1872.48,0,0
64928.5,54.9769,-1864.56,0,0
65188.9,55.0628,-1856.59,0,0
65449.2,55.2359,-1849.08,0,0
65709.5,55.0639,-1841.62,0,0
65969.8,55.0297,-1834.3,0,0
66230.2,54.7743,-1826.94,0,0
66490.5,54.4504,-1819.67,0,0
66750.8,54.1169,-1812.35,0,0
67011.1,53.5423,-1805.07,0,0
67271.5,53.2389,-1797.63,0,0
67531.8,52.9254,-1790.27,0,0
67792.1,52.5575,-1782.84,0,0
68052.4,52.415,-1775.43,0,0
68312.8,52.1786,-1768.24,0,0
68573.1,51.9973,-1761.01,0,0
68833.4,51.8331,-1753.96,0,0
69093.7,51.7388,-1746.7,0,0
69354.1,51.6139,-1739.72,0,0
69614.4,51.6076,-1732.88,0,0
69874.7,51.2929,-1725.87,0,0
70135,51.341,-1718.95,0,0
70395.4,51.2873,-1712.17,0,0
70655.7,51.2641,-1705.38,0,0
70916,51.2928,-1698.72,0,0
71176.3,51.2221,-1692.25,0,0
71436.7,51.0971,-1685.8,0,0
71697,50.9252,-1679.35,0,0
71957.3,50.7121,-1672.93,0,0
72217.6,50.4675,-1666.64,0,0
72478,50.1686,-1660.16,0,0
72738.3,50.0384,-1653.72,0,0
72998.6,49.814,-1647.36,0,0
73258.9,49.6435,-1641,0,0
73519.3,49.4956,-1634.79,0,0
73779.6,49.4004,-1628.5,0,0
74039.9,49.3057,-1622.34,0,0
74300.225,49.1302,-1616.22,0,0
74560.55,49.1031,-1609.97,0,0
74820.875,49.0083,-1603.91,0,0
75081.2,48.8098,-1597.84,0,0
75341.525,48.7621,-1591.92,0,0
75601.85,48.6107,-1585.9,0,0
75862.175,48.5313,-1579.97,0,0
76122.5,48.3867,-1574.14,0,0
76382.825,48.3374,-1568.16,0,0
76643.15,48.225,-1562.32,0,0
76903.475,48.2177,-1556.5,0,0
77163.8,48.1398,-1550.77,0,0
77424.125,48.0706,-1545.08,0,0
77684.45,48.0142,-1539.41,0,0
77944.775,47.981,-1533.88,0,0
78205.1,47.8731,-1528.23,0,0
78465.425,47.8302,-1522.66,0,0
78725.75,47.7674,-1517.15,0,0
78986.075,47.7424,-1511.62,0,0
79246.4,47.722,-1506.15,0,0
79506.725,47.6712,-1500.68,0,0
79767.05,47.6128,-1495.31,0,0
80027.375,47.5917,-1490.01,0,0
80287.7,47.5192,-1484.73,0,0
80548.025,47.4379,-1479.47,0,0
80808.35,47.4049,-1474.23,0,0
81068.675,47.3054,-1468.97,0,0
81329.0,47.1965,-1463.72,0,0
81589.325,47.1898,-1458.46,0,0
81849.65,47.0997,-1453.37,0,0
82109.975,47.1005,-1448.21,0,0
82370.3,47.0437,-1443.04,0,0
82630.625,46.9891,-1438,0,0
82890.95,46.9034,-1432.98,0,0
83151.275,46.8449,-1427.95,0,0
83411.6,46.792,-1422.85,0,0
83671.925,46.8262,-1417.87,0,0
83932.25,46.8561,-1412.87,0,0
84192.575,46.9492,-1407.86,0,0
84452.9,47.0176,-1403.01,0,0
84713.225,47.1103,-1398.13,0,0
84973.55,47.1145,-1393.43,0,0
85233.875,47.131,-1388.63,0,0
85494.2,47.119,-1384.02,0,0
85754.525,47.0831,-1379.29,0,0
86014.85,47.1328,-1374.48,0,0
86275.175,47.2809,-1369.81,0,0
86535.5,47.3186,-1365.32,0,0
86795.825,47.2353,-1360.71,0,0
87056.15,47.1824,-1355.93,0,0
87316.475,47.3508,-1351.39,0,0
87576.8,47.3598,-1347.01,0,0
87837.125,47.3733,-1342.55,0,0
88097.45,47.313,-1338.18,0,0
88357.775,47.2055,-1333.78,0,0
88618.1,47.2413,-1329.3,0,0
88878.425,47.1191,-1324.93,0,0
89138.75,47.0411,-1320.47,0,0
89399.075,46.8752,-1315.91,0,0
89659.4,46.7848,-1311.44,0,0
89919.725,46.8714,-1307.07,0,0
90180,46.8376,-1302.53,0,0
90440.4,46.8932,-1298.06,0,0
90700.7,47.0585,-1293.67,0,0
90961,47.0894,-1289.43,0,0
91221.3,47.069,-1284.97,0,0
91481.7,47.1861,-1280.71,0,0
91742,47.2893,-1276.45,0,0
92002.3,47.4704,-1272.11,0,0
92262.6,47.7378,-1267.93,0,0
92523,47.83,-1263.8,0,0
92783.3,47.8362,-1259.74,0,0
93043.6,47.8658,-1255.44,0,0
93303.9,48.0573,-1251.17,0,0
93564.3,48.3736,-1246.94,0,0
93824.6,48.7974,-1242.76,0,0
94084.9,49.3041,-1238.84,0,0
94345.2,49.5835,-1235.14,0,0
94605.6,49.8343,-1231.41,0,0
94865.9,50.2202,-1227.51,0,0
95126.2,50.7339,-1223.97,0,0
95386.5,50.5633,-1220.73,0,0
95646.9,50.2629,-1217.28,0,0
95907.2,49.9305,-1213.44,0,0
96167.5,49.7906,-1209.61,0,0
96427.8,49.5711,-1205.82,0,0
96688.2,49.5516,-1201.88,0,0
96948.5,49.4442,-1198.04,0,0
97208.8,49.2859,-1194.16,0,0
97469.1,49.1801,-1190.12,0,0
97729.5,49.383,-1186.02,0,0
97989.8,49.6924,-1182.24,0,0
98250.1,49.8142,-1178.47,0,0
98510.4,50.1231,-1174.82,0,0
98770.8,50.1568,-1171.29,0,0
99031.1,50.0848,-1167.72,0,0
99291.4,49.9493,-1164.05,0,0
99551.7,49.7066,-1160.2,0,0
99812.1,49.6958,-1156.16,0,0
100072,49.924,-1152.09,0,0
100333,50.3802,-1148.23,0,0
100593,50.6655,-1144.62,0,0
100853,50.8957,-1140.89,0,0
101114,51.2742,-1137.25,0,0
101374,51.5657,-1133.71,0,0
101634,51.7345,-1130.11,0,0
101895,52.0614,-1126.43,0,0
102155,52.4032,-1122.78,0,0
102415,52.8612,-1119.18,0,0
102676,53.3447,-1115.74,0,0
102936,53.8221,-1112.23,0,0
103196,54.4995,-1108.93,0,0
103457,54.9959,-1105.72,0,0
103717,55.6139,-1102.69,0,0
103977,55.7983,-1100,0,0
104238,55.7384,-1096.8,0,0
104498,55.9867,-1093.52,0,0
104758,56.4216,-1090.44,0,0
105019,56.5804,-1087.68,0,0
105279,56.4521,-1084.78,0,0
105539,56.2504,-1081.65,0,0
105800,56.0937,-1078.34,0,0
106060,55.8867,-1075.06,0,0
106320.175,55.9338,-1071.44,0,0
106580.5,56.1954,-1067.96,0,0
106840.825,56.5956,-1064.57,0,0
107101.15,56.9496,-1061.54,0,0
107361.475,57.0389,-1058.51,0,0
107621.8,57.0499,-1055.33,0,0
107882.125,57.1413,-1051.96,0,0
108142.45,57.3816,-1048.66,0,0
108402.775,57.6328,-1045.4,0,0
108663.1,57.9156,-1042.2,0,0
108923.425,58.1063,-1039.07,0,0
109183.75,58.3206,-1035.95,0,0
109444.075,58.3781,-1032.84,0,0
109704.4,58.4232,-1029.51,0,0
109964.725,58.5251,-1026.11,0,0
110225.05,58.5745,-1022.51,0,0
110485.375,59.0855,-1018.73,0,0
110745.7,59.9178,-1015.19,0,0
111006.025,60.7933,-1011.9,0,0
111266.35,61.3477,-1009,0,0
111526.675,61.815,-1005.78,0,0
111787.0,62.4067,-1002.25,0,0
112047.325,63.369,-998.906,0,0
112307.65,64.3582,-995.806,0,0
112567.975,65.3045,-992.691,0,0
112828.3,66.3218,-989.596,0,0
113088.625,67.5521,-986.64,0,0
113348.95,68.6769,-984.116,0,0
113609.275,69.5183,-981.4,0,0
113869.6,70.4564,-978.645,0,0
114129.925,71.5049,-975.784,0,0
114390.25,72.8397,-973.087,0,0
114650.575,74.1022,-970.722,0,0
114910.9,75.1568,-968.294,0,0
115171.225,76.3584,-965.813,0,0
115431.55,77.6116,-963.442,0,0
115691.875,79.0652,-961.033,0,0
115952.2,80.77,-958.966,0,0
116212.525,82.4648,-957.207,0,0
116472.85,84.1596,-955.922,0,0
116733.175,85.4102,-954.934,0,0
116993.5,86.2801,-953.846,0,0
117253.825,87.2452,-952.716,0,0
117514.15,88.0841,-951.853,0,0
117774.475,88.5285,-951.015,0,0
118034.8,88.8847,-949.816,0,0
118295.125,89.6675,-948.567,0,0
118555.45,90.5463,-947.805,0,0
118815.775,91.2818,-947.516,0,0
119076.1,91.4684,-947.506,0,0
119336.425,91.3534,-947.441,0,0
119596.75,90.9871,-947.473,0,0
119857.075,90.2508,-947.745,0,0
120117.4,88.7573,-947.651,0,0
120377.725,86.9222,-947.733,0,0
120638.05,84.4594,-946.991,0,0
120898.375,82.1364,-945.709,0,0
121158.7,79.5084,-944.092,0,0
121419.025,77.1106,-941.516,0,0
121679.35,75.5353,-938.837,0,0
121939.675,74.0971,-936.427,0,0
122200.0,72.6878,-934.09,0,0
122460,71.1471,-931.689,0,0
122721,69.6669,-929.054,0,0
122981,68.2389,-926.402,0,0
123241,66.8287,-923.557,0,0
123502,65.5624,-920.548,0,0
123762,64.6157,-917.407,0,0
124022,63.8685,-914.502,0,0
124283,63.1466,-911.619,0,0
124543,62.4266,-908.796,0,0
124803,61.859,-906.046,0,0
125064,61.117,-903.518,0,0
125324,60.1661,-900.856,0,0
125584,59.2664,-897.93,0,0
125845,58.5982,-894.972,0,0
126105,57.9181,-892.18,0,0
126365,57.1402,-889.25,0,0
126626,56.4776,-886.286,0,0
126886,55.8955,-883.297,0,0
127146,55.2732,-880.311,0,0
127406,54.8388,-877.139,0,0
127667,54.5435,-874.014,0,0
127927,54.3446,-871.106,0,0
128187,54.0537,-868.33,0,0
128448,53.611,-865.539,0,0
128708,53.2152,-862.584,0,0
128968,52.904,-859.588,0,0
129229,52.6917,-856.653,0,0
129489,52.4793,-853.92,0,0
129749,52.0901,-851.033,0,0
130010,51.8088,-848.041,0,0
130270,51.7015,-845.069,0,0
130530,51.5839,-842.332,0,0
130791,51.2519,-839.531,0,0
131051,50.9407,-836.632,0,0
131311,50.5834,-833.612,0,0
131572,50.3955,-830.486,0,0
131832,50.3591,-827.396,0,0
132092,50.3423,-824.443,0,0
132353,50.2266,-821.424,0,0
132613,50.1969,-818.3,0,0
132873,50.2641,-815.236,0,0
133134,50.3766,-812.182,0,0
133394,50.467,-809.056,0,0
133654,50.6478,-805.925,0,0
133915,50.9976,-802.717,0,0
134175,51.5678,-799.575,0,0
134435,52.2294,-796.691,0,0
134696,52.8224,-793.981,0,0
134956,53.3187,-791.222,0,0
135216,53.7908,-788.334,0,0
135477,54.5219,-785.411,0,0
135737,55.5597,-782.569,0,0
135997,56.8618,-780.198,0,0
136258,57.9312,-778.254,0,0
136518,58.8556,-776.552,0,0
136778,59.6071,-775.184,0,0
137039,59.6786,-774.082,0,0
137299,59.1574,-772.624,0,0
137559,58.539,-770.632,0,0
137819,58.064,-768.405,0,0
138080,57.6227,-766.125,0,0
138340.125,57.1355,-763.718,0,0
138600.45,56.6924,-761.186,0,0
138860.775,56.248,-758.449,0,0
139121.1,55.9842,-755.553,0,0
139381.425,55.9706,-752.661,0,0
139641.75,56.0804,-749.883,0,0
139902.075,56.1745,-747.206,0,0
140162.4,56.3145,-744.567,0,0
140422.725,56.353,-742.041,0,0
140683.05,56.3325,-739.402,0,0
140943.375,56.3293,-736.711,0,0
141203.7,56.3257,-734.037,0,0
141464.025,56.2845,-731.264,0,0
141724.35,56.3005,-728.354,0,0
141984.675,56.4974,-725.422,0,0
142245.0,56.7337,-722.531,0,0
142505.325,57.0393,-719.665,0,0
142765.65,57.3808,-716.799,0,0
143025.975,57.8483,-713.921,0,0
143286.3,58.4255,-711.146,0,0
143546.625,58.9926,-708.493,0,0
143806.95,59.5473,-705.96,0,0
144067.275,60.064,-703.533,0,0
144327.6,60.439,-701.106,0,0
144587.925,60.7956,-698.675,0,0
144848.25,61.0369,-696.186,0,0
145108.575,61.3706,-693.653,0,0
145368.9,61.6497,-691.206,0,0
145629.225,61.8588,-688.743,0,0
145889.55,61.9671,-686.212,0,0
146149.875,62.0959,-683.52,0,0
146410.2,62.3675,-680.715,0,0
146670.525,62.7382,-678.016,0,0
146930.85,63.073,-675.375,0,0
147191.175,63.4568,-672.751,0,0
147451.5,63.7001,-670.182,0,0
147711.825,63.9596,-667.401,0,0
147972.15,64.442,-664.667,0,0
148232.475,64.8557,-662.179,0,0
148492.8,65.1173,-659.709,0,0
148753.125,65.1917,-657.206,0,0
149013.45,65.2033,-654.56,0,0
149273.775,65.158,-651.764,0,0
149534.1,65.1633,-648.801,0,0
149794.425,65.2006,-645.773,0,0
150054.75,65.265,-642.668,0,0
150315.075,65.4096,-639.43,0,0
150575.4,65.6309,-636.142,0,0
150835.725,65.9184,-632.801,0,0
151096.05,66.2628,-629.378,0,0
151356.375,66.7007,-625.927,0,0
151616.7,67.2258,-622.421,0,0
151877.025,67.8311,-618.874,0,0
152137.35,68.5276,-615.312,0,0
152397.675,69.3413,-611.697,0,0
152658.0,70.2659,-608.1,0,0
152918.325,71.2545,-604.569,0,0
153178.65,72.2905,-601.027,0,0
153438.975,73.3738,-597.492,0,0
153699.3,74.437,-593.936,0,0
153959.625,75.5966,-590.291,0,0
154219.95,76.9156,-586.596,0,0
154480,78.3777,-582.958,0,0
154741,79.887,-579.331,0,0
155001,81.4963,-575.695,0,0
155261,83.1998,-572.065,0,0
155522,85.0061,-568.537,0,0
155782,86.9248,-564.937,0,0
156042,88.884,-561.502,0,0
156303,90.9693,-558.03,0,0
156563,93.1685,-554.527,0,0
156823,95.4834,-551.201,0,0
157084,97.9231,-547.942,0,0
157344,100.558,-544.79,0,0
157604,103.342,-541.919,0,0
157864,105.986,-539.178,0,0
158125,108.577,-536.532,0,0
158385,111.383,-534.177,0,0
158645,113.894,-532.105,0,0
158906,116.307,-530.334,0,0
159166,118.217,-528.672,0,0
159426,119.794,-526.811,0,0
159687,121.268,-524.769,0,0
159947,122.342,-522.819,0,0
160207,123.139,-520.303,0,0
160468,123.909,-517.462,0,0
160728,124.695,-514.286,0,0
160988,125.301,-510.789,0,0
161249,126.09,-506.578,0,0
161509,127.345,-501.913,0,0
161769,129.073,-497.033,0,0
162030,131.293,-491.955,0,0
162290,134.038,-486.88,0,0
162550,137.044,-482.005,0,0
162811,140.171,-477.042,0,0
163071,143.685,-471.929,0,0
163331,147.604,-466.629,0,0
163592,152.36,-461.524,0,0
163852,157.595,-456.819,0,0
164112,162.902,-452.696,0,0
164373,168.152,-448.696,0,0
164633,173.595,-444.762,0,0
164893,179.117,-441.123,0,0
165154,184.424,-437.531,0,0
165414,189.82,-433.471,0,0
165674,195.529,-429.08,0,0
165935,201.955,-424.347,0,0
166195,209.28,-419.561,0,0
166455,217.597,-415.074,0,0
166716,226.719,-411.242,0,0
166976,236.212,-407.925,0,0
167236,246.351,-404.961,0,0
167497,257.437,-402.862,0,0
167757,268.871,-401.905,0,0
168017,280.409,-401.573,0,0
168277,292.515,-401.967,0,0
168538,305.183,-403.727,0,0
168798,317.945,-406.757,0,0
169058,330.591,-411.185,0,0
169319,342.833,-417.311,0,0
169579,353.745,-424.507,0,0
169839,364.119,-431.774,0,0
170100,374.408,-439.812,0,0
170360.075,384.562,-449.08,0,0
170620.4,393.669,-460.213,0,0
170880.725,400.916,-472.025,0,0
171141.05,406.835,-483.769,0,0
171401.375,412.045,-495.658,0,0
171661.7,416.319,-507.933,0,0
171922.025,419.897,-520.308,0,0
172182.35,423.061,-533.462,0,0
172442.675,424.722,-548.059,0,0
172703.0,423.887,-562.865,0,0
172963.325,421.259,-577.289,0,0
173223.65,416.667,-591.223,0,0
173483.975,410.129,-604.404,0,0
173744.3,401.337,-616.119,0,0
174004.625,391.122,-625.272,0,0
174264.95,380.631,-632.053,0,0
174525.275,370.202,-636.934,0,0
174785.6,359.722,-639.994,0,0
175045.925,350.008,-640.415,0,0
175306.25,342.534,-639.879,0,0
175566.575,335.531,-639.495,0,0
175826.9,328.667,-637.396,0,0
176087.225,323.985,-633.93,0,0
176347.55,321.289,-630.691,0,0
176607.875,319.893,-627.824,0,0
176868.2,319.966,-625.415,0,0
177128.525,321.207,-624.11,0,0
177388.85,322.925,-624.154,0,0
177649.175,324.905,-624.787,0,0
177909.5,327.898,-626.475,0,0
178169.825,331.471,-630.169,0,0
178430.15,334.633,-636.6,0,0
178690.475,335.39,-645.282,0,0
178950.8,333.311,-654.44,0,0
179211.125,328.687,-663.076,0,0
179471.45,321.995,-669.894,0,0
179731.775,315.165,-674.825,0,0
179992.1,308.322,-678.577,0,0
180252.425,301.973,-681.421,0,0
180512.75,296.339,-684.257,0,0
180773.075,290.649,-687.637,0,0
181033.4,284.242,-691.466,0,0
181293.725,276.2,-695.187,0,0
181554.05,267.066,-697.155,0,0
181814.375,258.446,-697.705,0,0
182074.7,249.855,-698.175,0,0
182335.025,240.544,-697.775,0,0
182595.35,231.218,-695.792,0,0
182855.675,222.594,-692.428,0,0
183116.0,215.261,-688.173,0,0
183376.325,209.17,-684.239,0,0
183636.65,203.127,-680.689,0,0
183896.975,196.822,-676.735,0,0
184157.3,190.928,-671.945,0,0
184417.625,185.883,-666.67,0,0
184677.95,181.874,-661.505,0,0
184938.275,178.344,-656.995,0,0
185198.6,174.657,-652.878,0,0
185458.925,170.769,-648.739,0,0
185719.25,166.61,-644.293,0,0
185979.575,162.664,-639.137,0,0
186239.9,159.34,-633.668,0,0
186500,156.482,-628.129,0,0
186761,154.053,-622.598,0,0
187021,152.01,-617.01,0,0
187281,150.484,-611.448,0,0
187542,149.396,-606.095,0,0
187802,148.678,-601.014,0,0
188062,148.267,-596.305,0,0
188322,148.184,-591.926,0,0
188583,148.018,-588.418,0,0
188843,147.2,-585.267,0,0
189103,145.873,-581.952,0,0
189364,144.351,-578.216,0,0
189624,142.904,-574.251,0,0
189884,141.422,-570.112,0,0
190145,140.098,-565.629,0,0
190405,139.121,-561.111,0,0
190665,138.109,-556.746,0,0
190926,136.984,-551.951,0,0
191186,136.307,-546.784,0,0
191446,136.253,-541.726,0,0
191707,136.384,-537.121,0,0
191967,136.334,-532.755,0,0
192227,136.002,-528.121,0,0
192488,135.926,-523.184,0,0
192748,136.173,-518.171,0,0
193008,136.688,-513.225,0,0
193269,137.392,-508.339,0,0
193529,138.216,-503.587,0,0
193789,139.067,-498.883,0,0
194050,140.007,-494.09,0,0
194310,141.075,-489.215,0,0
194570,142.402,-484.264,0,0
194831,144.095,-479.269,0,0
195091,146.176,-474.567,0,0
195351,148.341,-470.214,0,0
195612,150.423,-465.961,0,0
195872,152.675,-461.827,0,0
196132,154.966,-457.981,0,0
196393,157.229,-454.16,0,0
196653,159.527,-450.282,0,0
196913,162.076,-446.621,0,0
197174,164.592,-443.264,0,0
197434,167.015,-440.177,0,0
197694,169.128,-437.264,0,0
197955,170.836,-434.29,0,0
198215,172.309,-430.964,0,0
198475,173.979,-427.332,0,0
198735,175.859,-423.613,0,0
198996,177.689,-419.888,0,0
199256,179.524,-416.104,0,0
199516,181.195,-412.078,0,0
199777,183.177,-407.703,0,0
200037,185.442,-403.153,0,0
200297,187.976,-398.54,0,0
200558,190.807,-393.904,0,0
200818,193.909,-389.458,0,0
201078,196.885,-385.072,0,0
201339,199.945,-380.401,0,0
201599,203.294,-375.447,0,0
201859,207.016,-370.464,0,0
202120,211.154,-365.368,0,0
202380.025,215.788,-360.333,0,0
202640.35,220.839,-355.604,0,0
202900.675,226.089,-351.106,0,0
203161.0,231.489,-346.652,0,0
203421.325,237.181,-342.392,0,0
203681.65,243.158,-338.288,0,0
203941.975,249.313,-334.311,0,0
204202.3,255.604,-330.409,0,0
204462.625,262.305,-326.553,0,0
204722.95,269.319,-322.848,0,0
204983.275,276.748,-319.222,0,0
205243.6,284.93,-315.657,0,0
205503.925,293.891,-312.77,0,0
205764.25,303.322,-310.95,0,0
206024.575,312.724,-310.121,0,0
206284.9,321.866,-310.115,0,0
206545.225,330.716,-310.704,0,0
206805.55,339.011,-311.876,0,0
207065.875,346.787,-313.486,0,0
207326.2,353.927,-315.137,0,0
207586.525,360.468,-316.78,0,0
207846.85,366.423,-317.96,0,0
208107.175,372.302,-318.42,0,0
208367.5,378.526,-318.056,0,0
208627.825,385.372,-317.126,0,0
208888.15,393.603,-315.896,0,0
209148.475,403.225,-315.038,0,0
209408.8,413.857,-315.349,0,0
209669.125,424.917,-316.608,0,0
209929.45,436.668,-318.823,0,0
210189.775,449.253,-322.33,0,0
210450.1,462.295,-328.03,0,0
210710.425,474.401,-336.412,0,0
210970.75,484.458,-346.195,0,0
211231.075,492.834,-356.112,0,0
211491.4,500.235,-366.199,0,0
211751.725,506.664,-376.502,0,0
212012.05,512.097,-386.878,0,0
212272.375,516.585,-397.111,0,0
212532.7,520.694,-407.002,0,0
212793.025,524.628,-417.366,0,0
213053.35,527.25,-428.511,0,0
213313.675,528.07,-438.956,0,0
213574.0,528.523,-447.867,0,0
213834.325,529.479,-456.334,0,0
214094.65,530.517,-465.155,0,0
214354.975,531.025,-474.433,0,0
214615.3,530.534,-483.475,0,0
214875.625,529.761,-491.984,0,0
215135.95,528.479,-500.397,0,0
215396.275,526.575,-508.176,0,0
215656.6,524.69,-515.015,0,0
215916.925,523.447,-521.202,0,0
216177.25,523.149,-527.799,0,0
216437.575,523.082,-535.432,0,0
216697.9,522.285,-544.228,0,0
216958.225,520.204,-553.658,0,0
217218.55,516.369,-562.892,0,0
217478.875,511.341,-570.994,0,0
217739.2,506.211,-577.827,0,0
217999.525,501.29,-584.268,0,0
218259.85,496.021,-590.759,0,0
218520,490.347,-596.83,0,0
218780,484.087,-602.702,0,0
219041,477.043,-608.057,0,0
219301,469.178,-612.316,0,0
219561,461.189,-615.191,0,0
219822,453.387,-616.961,0,0
220082,445.911,-617.757,0,0
220342,438.935,-617.589,0,0
220603,432.643,-616.833,0,0
220863,426.951,-615.572,0,0
221123,421.856,-613.824,0,0
221384,417.469,-611.724,0,0
221644,413.833,-609.512,0,0
221904,410.718,-607.169,0,0
222165,408.258,-604.704,0,0
222425,406.613,-602.338,0,0
222685,405.594,-600.465,0,0
222946,404.675,-599.095,0,0
223206,403.946,-597.78,0,0
223466,403.448,-596.759,0,0
223727,403.02,-596.089,0,0
223987,402.48,-595.607,0,0
224247,401.792,-595.159,0,0
224508,400.945,-594.613,0,0
224768,400.127,-593.691,0,0
225028,399.489,-592.315,0,0
225289,399.378,-590.673,0,0
225549,400.174,-588.781,0,0
225809,401.869,-587.234,0,0
226070,404.13,-586.436,0,0
226330,406.699,-586.35,0,0
226590,409.241,-587.081,0,0
226851,411.397,-588.267,0,0
227111,413.349,-589.554,0,0
227371,415.349,-590.853,0,0
227632,417.609,-592.267,0,0
227892,420.272,-594.109,0,0
228152,423.057,-596.729,0,0
228413,425.639,-600.022,0,0
228673,427.891,-603.865,0,0
228933,429.704,-608.201,0,0
229193,430.926,-612.805,0,0
229454,431.572,-617.385,0,0
229714,432.15,-621.584,0,0
229974,433.039,-626.027,0,0
230235,434.145,-631.276,0,0
230495,434.54,-637.458,0,0
230755,433.843,-643.982,0,0
231016,432.179,-650.243,0,0
231276,430.021,-656.096,0,0
231536,427.626,-661.629,0,0
231797,425.232,-666.993,0,0
232057,422.865,-672.555,0,0
232317,420.126,-678.59,0,0
232578,416.648,-684.988,0,0
232838,412.319,-691.258,0,0
233098,407.374,-697.186,0,0
233359,401.939,-703.105,0,0
233619,395.535,-709.021,0,0
233879,387.884,-714.311,0,0
234140,379.501,-718.416,0,0
234400,370.985,-721.468,0,0
234660.3,362.233,-723.717,0,0
234920.625,353.044,-725.057,0,0
235180.95,343.944,-725.106,0,0
235441.275,335.206,-723.773,0,0
235701.6,327.459,-721.506,0,0
235961.925,320.668,-718.719,0,0
236222.25,314.892,-715.749,0,0
236482.575,310.027,-713.019,0,0
236742.9,305.601,-710.882,0,0
237003.225,301.189,-709.23,0,0
237263.55,296.298,-707.694,0,0
237523.875,291.312,-705.812,0,0
237784.2,286.328,-703.727,0,0
238044.525,281.232,-701.391,0,0
238304.85,275.962,-698.644,0,0
238565.175,270.672,-695.059,0,0
238825.5,265.9,-690.605,0,0
239085.825,262.141,-685.501,0,0
239346.15,259.447,-680.078,0,0
239606.475,258.019,-674.95,0,0
239866.8,257.639,-670.51,0,0
240127.125,257.521,-667.204,0,0
240387.45,257.794,-664.745,0,0
240647.775,257.678,-663.237,0,0
240908.1,256.932,-662.251,0,0
241168.425,255.587,-661.309,0,0
241428.75,253.784,-660.447,0,0
241689.075,251.715,-659.306,0,0
241949.4,249.327,-658.085,0,0
242209.725,246.425,-656.701,0,0
242470.05,243.296,-654.647,0,0
242730.375,240.269,-651.889,0,0
242990.7,237.741,-648.671,0,0
243251.025,235.539,-645.402,0,0
243511.35,233.522,-642.03,0,0
243771.675,231.644,-638.266,0,0
244032.0,230.317,-633.989,0,0
244292.325,229.813,-629.62,0,0
244552.65,230.142,-625.648,0,0
244812.975,231.002,-622.191,0,0
245073.3,232.084,-619.506,0,0
245333.625,232.935,-617.451,0,0
245593.95,233.592,-615.679,0,0
245854.275,234.015,-614.123,0,0
246114.6,234.146,-612.648,0,0
246374.925,234.134,-611.169,0,0
246635.25,233.974,-609.684,0,0
246895.575,233.601,-608.179,0,0
247155.9,233.141,-606.49,0,0
247416.225,232.663,-604.558,0,0
247676.55,232.358,-602.462,0,0
247936.875,232.227,-600.268,0,0
248197.2,232.276,-598.08,0,0
248457.525,232.307,-595.904,0,0
248717.85,232.474,-593.724,0,0
248978.175,232.867,-591.467,0,0
249238.5,233.276,-589.347,0,0
249498.825,233.766,-587.077,0,0
249759.15,234.412,-584.782,0,0
250019.475,235.311,-582.421,0,0
250279.8,236.515,-580.215,0,0
250540,237.87,-578.057,0,0
250800,239.449,-576.058,0,0
251061,241.2,-574.228,0,0
251321,243.008,-572.538,0,0
251581,244.957,-571.006,0,0
251842,247.148,-569.483,0,0
252102,249.65,-568.24,0,0
252362,252.39,-567.363,0,0
252623,255.24,-566.882,0,0
252883,258.143,-566.845,0,0
253143,261.047,-567.264,0,0
253404,263.857,-568.177,0,0
253664,266.401,-569.554,0,0
253924,268.718,-571.305,0,0
254185,270.444,-573.52,0,0
254445,271.738,-575.753,0,0
254705,272.68,-578.011,0,0
254966,273.205,-580.342,0,0
255226,273.431,-582.694,0,0
255486,273.224,-585.042,0,0
255747,272.643,-587.227,0,0
256007,271.777,-589.119,0,0
256267,270.697,-590.784,0,0
256528,269.504,-592.27,0,0
256788,268.119,-593.582,0,0
257048,266.567,-594.636,0,0
257309,264.938,-595.349,0,0
257569,263.33,-595.782,0,0
257829,261.81,-596.003,0,0
258090,260.389,-595.979,0,0
258350,259.143,-595.81,0,0
258610,258.1,-595.52,0,0
258871,257.288,-595.374,0,0
259131,256.511,-595.303,0,0
259391,255.657,-595.436,0,0
259651,254.565,-595.582,0,0
259912,253.345,-595.602,0,0
260172,251.818,-595.354,0,0
260432,250.401,-594.721,0,0
260693,249.141,-593.837,0,0
260953,248.031,-592.82,0,0
261213,247.113,-591.605,0,0
261474,246.364,-590.289,0,0
261734,245.869,-588.822,0,0
261994,245.624,-587.214,0,0
262255,245.771,-585.501,0,0
262515,246.378,-583.856,0,0
262775,247.419,-582.443,0,0
263036,248.807,-581.363,0,0
263296,250.444,-580.762,0,0
263556,252.095,-580.641,0,0
263817,253.767,-580.925,0,0
264077,255.306,-581.678,0,0
264337,256.498,-582.822,0,0
264598,257.367,-584.228,0,0
264858,257.767,-585.728,0,0
265118,257.857,-587.142,0,0
265379,257.511,-588.455,0,0
265639,257.006,-589.462,0,0
265899,256.577,-590.178,0,0
266160,256.184,-590.766,0,0
266420,255.959,-591.292,0,0
266680.25,255.897,-591.859,0,0
266940.575,255.895,-592.652,0,0
267200.9,255.765,-593.603,0,0
267461.225,255.476,-594.628,0,0
267721.55,255.029,-595.717,0,0
267981.875,254.36,-596.789,0,0
268242.2,253.477,-597.655,0,0
268502.525,252.452,-598.301,0,0
268762.85,251.489,-598.703,0,0
269023.175,250.55,-598.848,0,0
269283.5,249.769,-598.767,0,0
269543.825,249.215,-598.522,0,0
269804.15,249.016,-598.117,0,0
270064.475,249.186,-597.766,0,0
270324.8,249.782,-597.56,0,0
270585.125,250.643,-597.624,0,0
270845.45,251.739,-597.909,0,0
271105.775,253.036,-598.475,0,0
271366.1,254.641,-599.328,0,0
271626.425,256.683,-600.702,0,0
271886.75,258.991,-602.824,0,0
272147.075,261.272,-606.02,0,0
272407.4,263.145,-610.32,0,0
272667.725,264.125,-615.544,0,0
272928.05,264.072,-621.322,0,0
273188.375,262.899,-627.236,0,0
273448.7,260.727,-633.232,0,0
273709.025,257.529,-639.077,0,0
273969.35,253.346,-644.568,0,0
274229.675,248.329,-649.426,0,0
274490.0,242.786,-653.729,0,0
274750.325,236.784,-657.527,0,0
275010.65,230.104,-660.844,0,0
275270.975,222.71,-663.329,0,0
275531.3,214.856,-664.734,0,0
275791.625,207.029,-664.97,0,0
276051.95,199.402,-664.255,0,0
276312.275,192.133,-662.799,0,0
276572.6,185.265,-660.721,0,0
276832.925,178.646,-658.055,0,0
277093.25,172.36,-654.847,0,0
277353.575,166.527,-651.06,0,0
277613.9,161.229,-646.761,0,0
277874.225,156.655,-642.063,0,0
278134.55,152.722,-637.201,0,0
278394.875,149.408,-632.295,0,0
278655.2,146.705,-627.422,0,0
278915.525,144.498,-622.694,0,0
279175.85,142.649,-618.166,0,0
279436.175,141.071,-613.742,0,0
279696.5,139.744,-609.434,0,0
279956.825,138.658,-605.215,0,0
280217.15,138.021,-601.045,0,0
280477.475,137.722,-597.056,0,0
280737.8,137.748,-593.421,0,0
280998.125,137.95,-590.212,0,0
281258.45,138.153,-587.453,0,0
281518.775,138.124,-584.984,0,0
281779.1,137.915,-582.654,0,0
282039.425,137.522,-580.364,0,0
282299.75,137.005,-578.043,0,0
282560,136.308,-575.758,0,0
282820,135.496,-572.974,0,0
283081,134.821,-570.182,0,0
283341,134.341,-567.18,0,0
283601,133.997,-564.021,0,0
283862,133.914,-560.866,0,0
284122,134.164,-557.549,0,0
284382,134.642,-554.436,0,0
284643,135.405,-551.413,0,0
284903,136.293,-548.546,0,0
285163,137.337,-545.859,0,0
285424,138.518,-543.422,0,0
285684,139.654,-541.112,0,0
285944,141.014,-539.1,0,0
286205,142.238,-537.11,0,0
286465,143.586,-535.459,0,0
286725,144.863,-533.992,0,0
286986,146.077,-532.639,0,0
287246,147.06,-531.527,0,0
287506,147.803,-530.493,0,0
287767,148.379,-529.359,0,0
288027,148.851,-528.235,0,0
288287,149.192,-526.864,0,0
288548,149.626,-525.362,0,0
288808,150.049,-523.801,0,0
289068,150.486,-522.175,0,0
289329,150.953,-520.423,0,0
289589,151.691,-518.638,0,0
289849,152.414,-516.861,0,0
290109,153.227,-515.062,0,0
290370,154.171,-513.118,0,0
290630,155.353,-511.168,0,0
290890,156.741,-509.483,0,0
291151,158.247,-507.795,0,0
291411,159.804,-506.371,0,0
291671,161.29,-505.115,0,0
291932,162.688,-503.862,0,0
292192,164.156,-502.697,0,0
292452,165.596,-501.458,0,0
292713,167.133,-500.244,0,0
292973,168.766,-499.119,0,0
293233,170.423,-498.159,0,0
293494,171.991,-497.152,0,0
293754,173.677,-496.235,0,0
294014,175.307,-495.327,0,0
294275,176.997,-494.482,0,0
294535,178.624,-493.649,0,0
294795,180.374,-492.761,0,0
295056,182.201,-491.894,0,0
295316,184.16,-491.117,0,0
295576,186.234,-490.479,0,0
295837,188.281,-489.877,0,0
296097,190.478,-489.28,0,0
296357,192.711,-488.795,0,0
296618,194.935,-488.361,0,0
296878,197.461,-487.983,0,0
297138,200.026,-487.697,0,0
297399,202.699,-487.728,0,0
297659,205.457,-488.031,0,0
297919,208.133,-488.47,0,0
298180,210.791,-489.107,0,0
298440,213.364,-489.816,0,0
298700.2,215.995,-490.624,0,0
298960.525,218.622,-491.683,0,0
299220.85,221.209,-492.682,0,0
299481.175,223.887,-493.827,0,0
299741.5,226.586,-495.209,0,0
300001.825,229.34,-496.75,0,0
300262.15,232.04,-498.528,0,0
300522.475,234.821,-500.359,0,0
300782.8,237.634,-502.46,0,0
301043.125,240.462,-504.849,0,0
301303.45,243.398,-507.513,0,0
301563.775,246.363,-510.616,0,0
301824.1,249.297,-514.099,0,0
302084.425,252.053,-518.147,0,0
302344.75,254.652,-522.882,0,0
302605.075,256.7,-528.281,0,0
302865.4,258.016,-534.065,0,0
303125.725,258.508,-540.153,0,0
303386.05,258.104,-546.273,0,0
303646.375,256.917,-552.188,0,0
303906.7,255.087,-557.738,0,0
304167.025,252.772,-562.902,0,0
304427.35,250.1,-567.656,0,0
304687.675,247.148,-572.018,0,0
304948.0,243.984,-576.067,0,0
305208.325,240.663,-579.812,0,0
305468.65,237.161,-583.292,0,0
305728.975,233.472,-586.537,0,0
305989.3,229.538,-589.455,0,0
306249.625,225.444,-592.022,0,0
306509.95,221.242,-594.203,0,0
306770.275,217.027,-596.014,0,0
307030.6,212.835,-597.483,0,0
307290.925,208.685,-598.702,0,0
307551.25,204.572,-599.689,0,0
307811.575,200.487,-600.438,0,0
308071.9,196.409,-600.954,0,0
308332.225,192.366,-601.231,0,0
308592.55,188.35,-601.242,0,0
308852.875,184.425,-600.976,0,0
309113.2,180.606,-600.45,0,0
309373.525,176.951,-599.671,0,0
309633.85,173.505,-598.645,0,0
309894.175,170.326,-597.484,0,0
310154.5,167.363,-596.259,0,0
310414.825,164.634,-594.959,0,0
310675.15,162.065,-593.684,0,0
310935.475,159.63,-592.404,0,0
311195.8,157.343,-591.117,0,0
311456.125,155.17,-589.894,0,0
311716.45,153.074,-588.649,0,0
311976.775,151.037,-587.459,0,0
312237.1,149.036,-586.293,0,0
312497.425,147.066,-585.118,0,0
312757.75,145.098,-583.948,0,0
313018.075,143.138,-582.703,0,0
313278.4,141.228,-581.407,0,0
313538.725,139.306,-580.074,0,0
313799.05,137.425,-578.649,0,0
314059.375,135.598,-577.128,0,0
314319.7,133.842,-575.502,0,0
314580,132.23,-573.764,0,0
314840,130.818,-571.95,0,0
315101,129.438,-570.219,0,0
315361,128.367,-568.39,0,0
315621,127.368,-566.573,0,0
315882,126.52,-564.997,0,0
316142,125.772,-563.378,0,0
316402,125.069,-561.78,0,0
316663,124.439,-560.362,0,0
316923,123.856,-559.084,0,0
317183,123.295,-557.721,0,0
317444,122.788,-556.514,0,0
317704,122.25,-555.327,0,0
317964,121.701,-554.194,0,0
318225,121.184,-553.085,0,0
318485,120.623,-552.043,0,0
318745,120.038,-550.945,0,0
319006,119.499,-549.828,0,0
319266,119.12,-548.682,0,0
319526,118.748,-547.726,0,0
319787,118.366,-546.751,0,0
320047,117.968,-545.891,0,0
320307,117.62,-544.995,0,0
320567,117.195,-544.21,0,0
320828,116.78,-543.474,0,0
321088,116.376,-542.694,0,0
321348,115.89,-541.878,0,0
321609,115.46,-541.245,0,0
321869,114.902,-540.527,0,0
322129,114.48,-539.736,0,0
322390,114.024,-539.111,0,0
322650,113.535,-538.437,0,0
322910,113.023,-537.703,0,0
323171,112.534,-537.071,0,0
323431,111.972,-536.505,0,0
323691,111.452,-535.775,0,0
323952,110.843,-535.102,0,0
324212,110.218,-534.367,0,0
324472,109.644,-533.65,0,0
324733,109.034,-532.871,0,0
324993,108.537,-532.083,0,0
325253,108.053,-531.227,0,0
325514,107.675,-530.393,0,0
325774,107.399,-529.743,0,0
326034,107.096,-529.076,0,0
326295,106.735,-528.514,0,0
326555,106.384,-527.96,0,0
326815,106.011,-527.501,0,0
327076,105.594,-527,0,0
327336,105.112,-526.591,0,0
327596,104.605,-526.193,0,0
327857,104.034,-525.728,0,0
328117,103.414,-525.346,0,0
328377,102.792,-524.843,0,0
328638,102.117,-524.381,0,0
328898,101.465,-523.907,0,0
329158,100.772,-523.294,0,0
329419,100.128,-522.905,0,0
329679,99.4571,-522.347,0,0
329939,98.8087,-521.741,0,0
330200,98.1088,-521.224,0,0
330460,97.3751,-520.742,0,0
330720.15,96.7457,-520.177,0,0
330980.475,95.9626,-519.671,0,0
331240.8,95.2527,-519.187,0,0
331501.125,94.5331,-518.73,0,0
331761.45,93.7854,-518.145,0,0
332021.775,92.9109,-517.643,0,0
332282.1,92.0736,-517.107,0,0
332542.425,91.1482,-516.578,0,0
332802.75,90.222,-516.011,0,0
333063.075,89.2865,-515.369,0,0
333323.4,88.2693,-514.678,0,0
333583.725,87.2431,-513.934,0,0
333844.05,86.2225,-513.164,0,0
334104.375,85.1962,-512.302,0,0
334364.7,84.244,-511.425,0,0
334625.025,83.2425,-510.453,0,0
334885.35,82.2777,-509.544,0,0
335145.675,81.4017,-508.485,0,0
335406.0,80.4802,-507.514,0,0
335666.325,79.524,-506.491,0,0
335926.65,78.6136,-505.361,0,0
336186.975,77.7861,-504.296,0,0
336447.3,76.8437,-503.12,0,0
336707.625,76.0656,-501.95,0,0
336967.95,75.193,-500.67,0,0
337228.275,74.507,-499.43,0,0
337488.6,73.7727,-498.075,0,0
337748.925,73.0823,-496.802,0,0
338009.25,72.478,-495.514,0,0
338269.575,71.864,-494.239,0,0
338529.9,71.287,-493.03,0,0
338790.225,70.7089,-491.647,0,0
339050.55,70.1835,-490.314,0,0
339310.875,69.6773,-488.979,0,0
339571.2,69.1694,-487.677,0,0
339831.525,68.7296,-486.301,0,0
340091.85,68.2454,-485.016,0,0
340352.175,67.8353,-483.668,0,0
340612.5,67.4653,-482.287,0,0
340872.825,67.1467,-480.825,0,0
341133.15,66.7979,-479.48,0,0
341393.475,66.5372,-478.037,0,0
341653.8,66.3159,-476.643,0,0
341914.125,66.1036,-475.216,0,0
342174.45,65.9806,-473.892,0,0
342434.775,65.8444,-472.471,0,0
342695.1,65.847,-471.11,0,0
342955.425,65.7651,-469.78,0,0
343215.75,65.815,-468.454,0,0
343476.075,65.8554,-467.17,0,0
343736.4,65.9572,-465.812,0,0
343996.725,66.0852,-464.635,0,0
344257.05,66.2278,-463.392,0,0
344517.375,66.4741,-462.264,0,0
344777.7,66.621,-461.193,0,0
345038.025,66.8304,-460.115,0,0
345298.35,67.0718,-459.097,0,0
345558.675,67.2754,-458.145,0,0
345819.0,67.4566,-457.182,0,0
346079.325,67.6421,-456.349,0,0
346339.65,67.8069,-455.523,0,0
346599.975,67.8943,-454.722,0,0
346860,67.9708,-453.968,0,0
347121,68.0246,-453.172,0,0
347381,68.0482,-452.408,0,0
347641,67.9062,-451.699,0,0
347902,67.8379,-450.863,0,0
348162,67.7234,-450.056,0,0
348422,67.5604,-449.239,0,0
348683,67.3755,-448.399,0,0
348943,67.1768,-447.423,0,0
349203,67.015,-446.462,0,0
349464,66.8091,-445.427,0,0
349724,66.7087,-444.419,0,0
349984,66.6221,-443.386,0,0
350245,66.4945,-442.319,0,0
350505,66.4096,-441.233,0,0
350765,66.3129,-440.116,0,0
351025,66.259,-438.916,0,0
351286,66.2304,-437.691,0,0
351546,66.3087,-436.435,0,0
351806,66.4547,-435.184,0,0
352067,66.6265,-433.961,0,0
352327,66.9377,-432.745,0,0
352587,67.2315,-431.531,0,0
352848,67.6441,-430.369,0,0
353108,68.0238,-429.296,0,0
353368,68.5023,-428.224,0,0
353629,69.0236,-427.241,0,0
353889,69.518,-426.333,0,0
354149,70.0454,-425.451,0,0
354410,70.5388,-424.599,0,0
354670,71.034,-423.798,0,0
354930,71.5191,-423.057,0,0
355191,72.1034,-422.363,0,0
355451,72.6234,-421.724,0,0
355711,73.1596,-421.228,0,0
355972,73.6092,-420.77,0,0
356232,74.033,-420.418,0,0
356492,74.2509,-420.034,0,0
356753,74.4261,-419.704,0,0
357013,74.5132,-419.302,0,0
357273,74.5329,-418.939,0,0
357534,74.5494,-418.508,0,0
357794,74.4243,-417.996,0,0
358054,74.2893,-417.43,0,0
358315,74.1058,-416.801,0,0
358575,73.8881,-416.102,0,0
358835,73.7253,-415.287,0,0
359096,73.5649,-414.431,0,0
359356,73.4582,-413.522,0,0
359616,73.3578,-412.497,0,0
359877,73.3938,-411.47,0,0
360137,73.4333,-410.469,0,0
360397,73.5704,-409.366,0,0
360658,73.7039,-408.287,0,0
360918,73.928,-407.179,0,0
361178,74.1857,-406.104,0,0
361438,74.5303,-405.028,0,0
361699,74.9151,-403.986,0,0
361959,75.3528,-402.983,0,0
362219,75.85,-402.008,0,0
362480,76.3283,-401.078,0,0
362740.1,76.8244,-400.131,0,0
363000.425,77.3556,-399.305,0,0
363260.75,77.922,-398.478,0,0
363521.075,78.3979,-397.627,0,0
363781.4,78.9595,-396.824,0,0
364041.725,79.5506,-395.986,0,0
364302.05,80.106,-395.189,0,0
364562.375,80.7847,-394.363,0,0
364822.7,81.4624,-393.6,0,0
365083.025,82.2052,-392.91,0,0
365343.35,83.0002,-392.304,0,0
365603.675,83.7856,-391.709,0,0
365864.0,84.5479,-391.284,0,0
366124.325,85.2395,-390.922,0,0
366384.65,85.8879,-390.57,0,0
366644.975,86.5042,-390.23,0,0
366905.3,87.0872,-389.899,0,0
367165.625,87.6482,-389.542,0,0
367425.95,88.1957,-389.212,0,0
367686.275,88.7274,-388.888,0,0
367946.6,89.2281,-388.602,0,0
368206.925,89.7399,-388.328,0,0
368467.25,90.2977,-388.087,0,0
368727.575,90.7884,-387.864,0,0
368987.9,91.3147,-387.658,0,0
369248.225,91.7894,-387.534,0,0
369508.55,92.2625,-387.416,0,0
369768.875,92.7244,-387.376,0,0
370029.2,93.0805,-387.393,0,0
370289.525,93.3488,-387.438,0,0
370549.85,93.5453,-387.543,0,0
370810.175,93.5727,-387.62,0,0
371070.5,93.5222,-387.649,0,0
371330.825,93.3876,-387.564,0,0
371591.15,93.172,-387.427,0,0
371851.475,92.9093,-387.154,0,0
372111.8,92.6171,-386.749,0,0
372372.125,92.3887,-386.26,0,0
372632.45,92.2043,-385.68,0,0
372892.775,92.0879,-385.026,0,0
373153.1,92.0126,-384.325,0,0
373413.425,92.0425,-383.585,0,0
373673.75,92.1351,-382.866,0,0
373934.075,92.2447,-382.163,0,0
374194.4,92.4521,-381.401,0,0
374454.725,92.7075,-380.736,0,0
374715.05,92.9369,-380.096,0,0
374975.375,93.2384,-379.449,0,0
375235.7,93.5305,-378.824,0,0
375496.025,93.8398,-378.237,0,0
375756.35,94.1376,-377.675,0,0
376016.675,94.4742,-377.161,0,0
376277.0,94.7255,-376.686,0,0
376537.325,94.9997,-376.193,0,0
376797.65,95.1693,-375.704,0,0
377057.975,95.3182,-375.189,0,0
377318.3,95.4365,-374.603,0,0
377578.625,95.5907,-373.949,0,0
377838.95,95.8237,-373.231,0,0
378099.275,96.0684,-372.483,0,0
378359.6,96.3518,-371.777,0,0
378619.925,96.6989,-371.019,0,0
378880,97.1234,-370.273,0,0
379141,97.548,-369.585,0,0
379401,97.9985,-368.897,0,0
379661,98.522,-368.219,0,0
379922,99.011,-367.622,0,0
380182,99.5617,-367.048,0,0
380442,100.029,-366.443,0,0
380703,100.57,-365.922,0,0
380963,101.042,-365.378,0,0
381223,101.56,-364.881,0,0
381483,102.065,-364.325,0,0
381744,102.523,-363.805,0,0
382004,103.045,-363.264,0,0
382264,103.539,-362.708,0,0
382525,104.102,-362.11,0,0
382785,104.675,-361.61,0,0
383045,105.238,-361.078,0,0
383306,105.872,-360.548,0,0
383566,106.456,-360.089,0,0
383826,107.103,-359.596,0,0
384087,107.722,-359.131,0,0
384347,108.416,-358.681,0,0
384607,109.073,-358.279,0,0
384868,109.737,-357.956,0,0
385128,110.362,-357.652,0,0
385388,110.967,-357.365,0,0
385649,111.464,-357.025,0,0
385909,112.019,-356.688,0,0
386169,112.537,-356.325,0,0
386430,113.096,-355.901,0,0
386690,113.702,-355.515,0,0
386950,114.276,-355.119,0,0
387211,114.856,-354.781,0,0
387471,115.425,-354.405,0,0
387731,115.962,-354.024,0,0
387992,116.533,-353.583,0,0
388252,117.037,-353.071,0,0
388512,117.659,-352.541,0,0
388773,118.361,-351.964,0,0
389033,119.139,-351.364,0,0
389293,120.031,-350.805,0,0
389554,121.003,-350.331,0,0
389814,122.019,-349.929,0,0
390074,123.015,-349.595,0,0
390335,124.076,-349.39,0,0
390595,125.125,-349.195,0,0
390855,126.154,-349.074,0,0
391116,127.094,-349.031,0,0
391376,127.998,-348.959,0,0
391636,128.891,-348.971,0,0
391896,129.765,-348.913,0,0
392157,130.622,-348.842,0,0
392417,131.484,-348.844,0,0
392677,132.364,-348.823,0,0
392938,133.222,-348.866,0,0
393198,134.059,-348.872,0,0
393458,134.848,-348.875,0,0
393719,135.648,-348.87,0,0
393979,136.422,-348.799,0,0
394239,137.204,-348.702,0,0
394500,138.078,-348.579,0,0
394760.05,138.988,-348.384,0,0
395020.375,139.954,-348.194,0,0
395280.7,141.035,-348.051,0,0
395541.025,142.157,-347.871,0,0
395801.35,143.387,-347.748,0,0
396061.675,144.698,-347.696,0,0
396322.0,146.113,-347.639,0,0
396582.325,147.644,-347.722,0,0
396842.65,149.211,-347.913,0,0
397102.975,150.831,-348.222,0,0
397363.3,152.514,-348.666,0,0
397623.625,154.236,-349.2,0,0
397883.95,155.998,-349.924,0,0
398144.275,157.753,-350.78,0,0
398404.6,159.516,-351.836,0,0
398664.925,161.275,-353.042,0,0
398925.25,162.959,-354.466,0,0
399185.575,164.581,-356.069,0,0
399445.9,166.116,-357.929,0,0
399706.225,167.448,-359.916,0,0
399966.55,168.605,-362.11,0,0
400006.6,168.758,-362.46,0,0