File: Accelerated corrosion test data/2025-10-14_08-28-47/sample_3.csv
Frequency (Hz),Impedance (ohms),Phase (Radians),Temperature (C),Humidity (%)
10000.0,250.265,-11798,0,0
10260.325,243.936,-11500.5,0,0
10520.65,238.556,-11217.7,0,0
10780.975,234.011,-10947.8,0,0
11041.3,228.425,-10695.5,0,0
11301.625,222.477,-10450.4,0,0
11561.95,217.821,-10216.6,0,0
11822.275,213.518,-9992.71,0,0
12082.6,210.375,-9779.4,0,0
12342.925,208.9,-9573.96,0,0
12603.25,201.719,-9378.78,0,0
12863.575,198.121,-9188.85,0,0
13123.9,198.344,-9006.06,0,0
13384.225,191.646,-8838.13,0,0
13644.55,188.893,-8669.5,0,0
13904.875,184.219,-8506.19,0,0
14165.2,185.461,-8348.85,0,0
14425.525,179.788,-8199.3,0,0
14685.8,176.76,-8054.84,0,0
14946.175,174.47,-7914.68,0,0
15206.5,172.768,-7774.6,0,0
15466.825,180.57,-7633.78,0,0
15727.15,192.397,-7537.93,0,0
15987.5,171.637,-7420.85,0,0
16247.8,166.919,-7291.61,0,0
16508.125,160.537,-7179.36,0,0
16768.45,166.607,-7059.12,0,0
17028.775,157.024,-6960.71,0,0
17289.1,160.682,-6847.27,0,0
17549.425,156.002,-6756.4,0,0
17809.75,156.147,-6650.59,0,0
18070.075,160.786,-6564.82,0,0
18330.4,150.108,-6470.54,0,0
18590.725,147.595,-6379.98,0,0
18851.05,144.412,-6289.31,0,0
19111.375,145.776,-6200.59,0,0
19371.7,144.196,-6117.31,0,0
19632.025,145.379,-6033.01,0,0
19892.35,146.292,-5952.7,0,0
20152.675,148.734,-5877.39,0,0
20413.0,159.207,-5801.15,0,0
20673.3,164.215,-5731.91,0,0
20933.65,160.44,-5680.45,0,0
21193.975,160.212,-5613.5,0,0
21454.3,144.061,-5553.18,0,0
21714.625,138.395,-5477.78,0,0
21974.9,141.109,-5412.5,0,0
22235.275,138.293,-5354.35,0,0
22495.6,135.982,-5291.88,0,0
22755.925,128.741,-5231.65,0,0
23016.25,127.684,-5171.89,0,0
23276.6,127.407,-5109.97,0,0
23536.9,127.993,-5064.07,0,0
23797.225,120.293,-5005.37,0,0
24057.55,118.38,-4948.05,0,0
24317.875,118.744,-4892.37,0,0
24578.2,116.012,-4842.95,0,0
24838.525,116.864,-4789.53,0,0
25098.85,115.515,-4742.11,0,0
25359.175,112.97,-4692.11,0,0
25619.5,112.918,-4645.31,0,0
25879.8,110.069,-4597.92,0,0
26140.1,107.927,-4550.18,0,0
26400.5,107.347,-4503.23,0,0
26660.8,107.18,-4458.33,0,0
26921.1,107.841,-4413.71,0,0
27181.4,108.215,-4373.42,0,0
27441.8,107.053,-4329.5,0,0
27702.1,107.397,-4290.62,0,0
27962.4,104.78,-4249.84,0,0
28222.7,102.984,-4207.03,0,0
28483.1,111.254,-4164.57,0,0
28743.4,113.091,-4130.59,0,0
29003.7,114.531,-4100.59,0,0
29264,107.729,-4067.08,0,0
29524.4,108.238,-4030.18,0,0
29784.7,103.968,-3995.14,0,0
30045,101.812,-3961.12,0,0
30305.3,100.064,-3923.78,0,0
30565.7,101.536,-3890.34,0,0
30826,100.529,-3858.28,0,0
31086.3,102.014,-3825.33,0,0
31346.6,98.4371,-3795.03,0,0
31607,97.6618,-3761.1,0,0
31867.3,97.8058,-3727.19,0,0
32127.6,100.922,-3693.33,0,0
32387.9,109.441,-3665.52,0,0
32648.3,111.519,-3648.05,0,0
32908.6,103.471,-3623.91,0,0
33168.9,100.408,-3596.03,0,0
33429.2,98.7424,-3569.16,0,0
33689.6,93.0678,-3541.58,0,0
33949.9,90.1478,-3511.7,0,0
34210.2,90.2733,-3483.59,0,0
34470.5,89.4375,-3457.64,0,0
34730.9,87.4508,-3431.56,0,0
34991.2,85.9534,-3404.77,0,0
35251.5,85.2161,-3378.46,0,0
35511.8,84.2752,-3353.74,0,0
35772.2,83.6071,-3328.2,0,0
36032.5,83.0007,-3303.55,0,0
36292.8,82.3545,-3278.82,0,0
36553.1,81.7886,-3254.71,0,0
36813.5,80.7611,-3231.54,0,0
37073.8,80.3545,-3208.41,0,0
37334.1,79.9273,-3185.13,0,0
37594.4,79.523,-3162.43,0,0
37854.8,79.1269,-3140.36,0,0
38115.1,78.4546,-3118.45,0,0
38375.4,77.9694,-3096.89,0,0
38635.7,77.544,-3075.19,0,0
38896.1,77.1624,-3054.04,0,0
39156.4,76.8393,-3033.19,0,0
39416.7,76.4787,-3013.09,0,0
39677,75.8907,-2992.73,0,0
39937.4,75.3045,-2972.74,0,0
40197.7,75.0246,-2952.68,0,0
40458,74.563,-2933.39,0,0
40718.3,74.2922,-2913.73,0,0
40978.7,73.7847,-2894.49,0,0
41239,74.0399,-2875.7,0,0
41499.3,73.8452,-2857.19,0,0
41759.6,73.839,-2838.63,0,0
42020,73.4343,-2821.17,0,0
42280.275,73.2428,-2802.97,0,0
42540.6,72.816,-2785.73,0,0
42800.925,72.9975,-2768.02,0,0
43061.25,72.2257,-2751.36,0,0
43321.575,71.7169,-2734.09,0,0
43581.9,71.4121,-2716.72,0,0
43842.225,71.6797,-2699.95,0,0
44102.55,71.6326,-2683.39,0,0
44362.875,71.5154,-2667.98,0,0
44623.2,70.7921,-2652.18,0,0
44883.525,71.0199,-2635.81,0,0
45143.85,70.5444,-2620.29,0,0
45404.175,70.2256,-2604.85,0,0
45664.5,69.7566,-2588.84,0,0
45924.825,70.6819,-2573.97,0,0
46185.15,69.8985,-2559.66,0,0
46445.475,69.4878,-2544.72,0,0
46705.8,69.2152,-2529.35,0,0
46966.125,69.3918,-2515.19,0,0
47226.45,69.2657,-2500.91,0,0
47486.775,69.2103,-2486.43,0,0
47747.1,69.8762,-2472.05,0,0
48007.425,69.7602,-2459.22,0,0
48267.75,70.0114,-2446.14,0,0
48528.075,69.3362,-2432.94,0,0
48788.4,68.7845,-2419.83,0,0
49048.725,68.2165,-2406.69,0,0
49309.05,67.5963,-2393.09,0,0
49569.375,67.4497,-2379.94,0,0
49829.7,67.4079,-2367.19,0,0
50090.025,66.6532,-2354.33,0,0
50350.35,66.1837,-2341.44,0,0
50610.675,66.1667,-2328.4,0,0
50871.0,65.9088,-2315.68,0,0
51131.325,65.7184,-2303.33,0,0
51391.65,65.6713,-2290.82,0,0
51651.975,65.7534,-2278.69,0,0
51912.3,65.7501,-2266.8,0,0
52172.625,65.566,-2254.81,0,0
52432.95,65.5194,-2242.56,0,0
52693.275,65.7436,-2230.56,0,0
52953.6,66.0681,-2218.79,0,0
53213.925,66.7312,-2207.3,0,0
53474.25,67.5964,-2196.47,0,0
53734.575,67.2048,-2185.26,0,0
53994.9,67.8818,-2174.69,0,0
54255.225,69.0155,-2163.92,0,0
54515.55,69.7969,-2154.93,0,0
54775.875,68.9233,-2145.39,0,0
55036.2,68.3916,-2135.54,0,0
55296.525,67.7624,-2126.22,0,0
55556.85,66.289,-2116.49,0,0
55817.175,64.7878,-2105.96,0,0
56077.5,63.8625,-2095.51,0,0
56337.825,63.1388,-2084.95,0,0
56598.15,62.2293,-2074.38,0,0
56858.475,61.3287,-2063.71,0,0
57118.8,60.9273,-2052.94,0,0
57379.125,60.7374,-2042.38,0,0
57639.45,60.7914,-2031.88,0,0
57899.775,60.8352,-2021.72,0,0
58160.1,60.804,-2011.86,0,0
58420.4,60.6489,-2001.98,0,0
58680.7,60.7816,-1992.11,0,0
58941.1,60.9091,-1982.24,0,0
59201.4,60.9161,-1972.49,0,0
59461.7,61.2359,-1962.83,0,0
59722,61.5095,-1953.16,0,0
59982.4,61.8273,-1943.82,0,0
60242.7,62.1627,-1934.62,0,0
60503,62.2446,-1925.34,0,0
60763.3,62.6379,-1916.03,0,0
61023.7,62.9343,-1906.99,0,0
61284,63.3911,-1897.91,0,0
61544.3,63.943,-1888.74,0,0
61804.6,64.4803,-1880.33,0,0
62065,64.6153,-1871.31,0,0
62325.3,65.3271,-1862.5,0,0
62585.6,65.7293,-1853.81,0,0
62845.9,66.3526,-1844.8,0,0
63106.3,67.5303,-1836.15,0,0
63366.6,68.3787,-1827.9,0,0
63626.9,69.4379,-1818.89,0,0
63887.2,70.8518,-1810.78,0,0
64147.6,72.2164,-1801.99,0,0
64407.9,74.8045,-1793.69,0,0
64668.2,77.2875,-1786.41,0,0
64928.5,80.1485,-1778.67,0,0
65188.9,83.9605,-1772.76,0,0
65449.2,86.633,-1768.14,0,0
65709.5,88.8468,-1763.69,0,0
65969.8,91.6454,-1760.89,0,0
66230.2,90.769,-1760.98,0,0
66490.5,85.1126,-1758.26,0,0
66750.8,80.3979,-1751.63,0,0
67011.1,77.8689,-1743.13,0,0
67271.5,75.5255,-1735.11,0,0
67531.8,74.4348,-1726.63,0,0
67792.1,74.5281,-1718.59,0,0
68052.4,74.612,-1710.66,0,0
68312.8,75.7325,-1703.57,0,0
68573.1,75.794,-1697.44,0,0
68833.4,75.7933,-1690.94,0,0
69093.7,76.3978,-1684.45,0,0
69354.1,76.7694,-1678.98,0,0
69614.4,76.5335,-1673.88,0,0
69874.7,75.5328,-1668.31,0,0
70135,74.8382,-1662.41,0,0
70395.4,74.0024,-1656.6,0,0
70655.7,72.601,-1650.51,0,0
70916,71.4068,-1644.1,0,0
71176.3,70.5291,-1637.6,0,0
71436.7,69.7781,-1630.95,0,0
71697,69.0456,-1624.13,0,0
71957.3,69.0793,-1617.23,0,0
72217.6,69.1838,-1611.05,0,0
72478,69.2343,-1605.06,0,0
72738.3,69.3677,-1599.27,0,0
72998.6,69.1217,-1593.83,0,0
73258.9,68.4561,-1588.1,0,0
73519.3,68.0354,-1582.28,0,0
73779.6,67.6823,-1576.64,0,0
74039.9,67.1082,-1571.24,0,0
74300.225,66.3368,-1565.73,0,0
74560.55,65.5637,-1560.02,0,0
74820.875,64.8627,-1554.39,0,0
75081.2,64.0688,-1548.68,0,0
75341.525,63.3269,-1542.84,0,0
75601.85,62.5728,-1537.04,0,0
75862.175,61.7995,-1531.16,0,0
76122.5,61.0894,-1525.27,0,0
76382.825,60.4925,-1519.31,0,0
76643.15,59.965,-1513.53,0,0
76903.475,59.4247,-1507.66,0,0
77163.8,58.9647,-1501.9,0,0
77424.125,58.547,-1496.26,0,0
77684.45,57.9447,-1490.55,0,0
77944.775,57.4388,-1484.89,0,0
78205.1,56.9504,-1479.18,0,0
78465.425,56.5324,-1473.45,0,0
78725.75,56.1247,-1467.74,0,0
78986.075,55.7327,-1462.05,0,0
79246.4,55.3216,-1456.39,0,0
79506.725,54.9631,-1450.7,0,0
79767.05,54.6257,-1445.02,0,0
80027.375,54.4241,-1439.48,0,0
80287.7,54.1847,-1433.97,0,0
80548.025,53.937,-1428.49,0,0
80808.35,53.7518,-1423.03,0,0
81068.675,53.4977,-1417.61,0,0
81329.0,53.3194,-1412.27,0,0
81589.325,53.1188,-1406.84,0,0
81849.65,53.0352,-1401.49,0,0
82109.975,52.8719,-1396.16,0,0
82370.3,52.7451,-1390.91,0,0
82630.625,52.655,-1385.63,0,0
82890.95,52.6011,-1380.27,0,0
83151.275,52.4673,-1375.08,0,0
83411.6,52.412,-1369.87,0,0
83671.925,52.3154,-1364.75,0,0
83932.25,52.3071,-1359.56,0,0
84192.575,52.2777,-1354.51,0,0
84452.9,52.2265,-1349.42,0,0
84713.225,52.1711,-1344.46,0,0
84973.55,52.1951,-1339.4,0,0
85233.875,52.2292,-1334.39,0,0
85494.2,52.1774,-1329.56,0,0
85754.525,52.2255,-1324.67,0,0
86014.85,52.2688,-1319.76,0,0
86275.175,52.297,-1314.83,0,0
86535.5,52.3257,-1310.09,0,0
86795.825,52.3588,-1305.27,0,0
87056.15,52.3153,-1300.43,0,0
87316.475,52.465,-1295.59,0,0
87576.8,52.6023,-1290.8,0,0
87837.125,52.7206,-1286.04,0,0
88097.45,52.8926,-1281.34,0,0
88357.775,52.9956,-1276.62,0,0
88618.1,53.1376,-1271.96,0,0
88878.425,53.378,-1267.07,0,0
89138.75,53.7096,-1262.37,0,0
89399.075,54.239,-1257.65,0,0
89659.4,54.7744,-1253.09,0,0
89919.725,55.1678,-1248.45,0,0
90180,55.7575,-1244.46,0,0
90440.4,56.0708,-1240.31,0,0
90700.7,56.3749,-1236.16,0,0
90961,56.7939,-1231.7,0,0
91221.3,57.2731,-1227.48,0,0
91481.7,57.8124,-1223.44,0,0
91742,58.2851,-1219.43,0,0
92002.3,58.6937,-1215.35,0,0
92262.6,59.2435,-1211.33,0,0
92523,59.9566,-1207.41,0,0
92783.3,60.502,-1204.01,0,0
93043.6,60.9661,-1200.29,0,0
93303.9,61.607,-1196.57,0,0
93564.3,62.2198,-1193.21,0,0
93824.6,62.8706,-1190.13,0,0
94084.9,63.2602,-1187.56,0,0
94345.2,62.7952,-1184.87,0,0
94605.6,62.474,-1181.93,0,0
94865.9,61.8421,-1179.17,0,0
95126.2,60.5503,-1176.16,0,0
95386.5,58.9856,-1172.48,0,0
95646.9,57.9972,-1168.17,0,0
95907.2,57.3148,-1164.06,0,0
96167.5,56.5375,-1159.76,0,0
96427.8,56.1874,-1155.22,0,0
96688.2,56.1609,-1150.89,0,0
96948.5,56.1365,-1146.8,0,0
97208.8,56.0312,-1142.76,0,0
97469.1,56.0192,-1138.77,0,0
97729.5,55.9334,-1134.91,0,0
97989.8,55.8855,-1130.99,0,0
98250.1,55.7901,-1127.1,0,0
98510.4,55.7816,-1123.14,0,0
98770.8,55.9009,-1119.38,0,0
99031.1,55.7637,-1115.73,0,0
99291.4,55.6095,-1111.95,0,0
99551.7,55.3995,-1108.1,0,0
99812.1,55.2981,-1104.21,0,0
100072,55.1774,-1100.33,0,0
100333,55.1021,-1096.46,0,0
100593,54.9694,-1092.6,0,0
100853,54.8251,-1088.56,0,0
101114,54.9133,-1084.48,0,0
101374,54.9953,-1080.41,0,0
101634,55.1549,-1076.34,0,0
101895,55.4335,-1072.23,0,0
102155,55.7746,-1068.17,0,0
102415,56.2851,-1064.03,0,0
102676,57.1603,-1059.96,0,0
102936,58.1626,-1056.39,0,0
103196,58.9403,-1053.12,0,0
103457,59.5166,-1049.82,0,0
103717,60.1062,-1046.39,0,0
103977,60.8111,-1042.89,0,0
104238,61.8148,-1039.65,0,0
104498,62.7817,-1037.01,0,0
104758,63.279,-1034.62,0,0
105019,63.3634,-1032.13,0,0
105279,63.2569,-1029.33,0,0
105539,63.388,-1026.5,0,0
105800,63.3353,-1023.8,0,0
106060,63.1839,-1021.13,0,0
106320.175,62.8188,-1018.37,0,0
106580.5,62.4476,-1015.39,0,0
106840.825,62.0592,-1012.46,0,0
107101.15,61.4004,-1009.36,0,0
107361.475,60.9971,-1006.03,0,0
107621.8,60.5733,-1002.67,0,0
107882.125,60.1961,-999.319,0,0
108142.45,59.8533,-995.924,0,0
108402.775,59.492,-992.457,0,0
108663.1,59.1198,-988.97,0,0
108923.425,58.7739,-985.278,0,0
109183.75,58.5657,-981.439,0,0
109444.075,58.6936,-977.687,0,0
109704.4,58.7564,-974.111,0,0
109964.725,58.7235,-970.456,0,0
110225.05,58.8276,-966.763,0,0
110485.375,58.936,-962.888,0,0
110745.7,59.4802,-959.133,0,0
111006.025,60.0111,-955.573,0,0
111266.35,60.6096,-952.252,0,0
111526.675,61.2055,-948.795,0,0
111787.0,61.6814,-945.547,0,0
112047.325,62.0069,-942.294,0,0
112307.65,62.6305,-939.057,0,0
112567.975,62.9364,-936.004,0,0
112828.3,63.2719,-932.924,0,0
113088.625,63.576,-929.732,0,0
113348.95,63.8367,-926.579,0,0
113609.275,64.1874,-923.463,0,0
113869.6,64.4077,-920.222,0,0
114129.925,64.7025,-916.962,0,0
114390.25,64.9706,-913.764,0,0
114650.575,65.1499,-910.327,0,0
114910.9,65.6215,-906.904,0,0
115171.225,66.1625,-903.541,0,0
115431.55,66.7493,-900.182,0,0
115691.875,67.4306,-896.917,0,0
115952.2,68.0001,-893.643,0,0
116212.525,68.6031,-890.285,0,0
116472.85,69.4319,-886.812,0,0
116733.175,70.4569,-883.55,0,0
116993.5,71.4377,-880.47,0,0
117253.825,72.2898,-877.413,0,0
117514.15,73.1398,-874.112,0,0
117774.475,74.4413,-870.605,0,0
118034.8,76.2771,-867.619,0,0
118295.125,77.853,-865.169,0,0
118555.45,79.3393,-862.9,0,0
118815.775,80.3781,-860.701,0,0
119076.1,81.479,-858.136,0,0
119336.425,82.9599,-855.567,0,0
119596.75,84.8229,-853.376,0,0
119857.075,86.516,-851.848,0,0
120117.4,88.1299,-850.881,0,0
120377.725,88.9195,-850.38,0,0
120638.05,89.0041,-849.439,0,0
120898.375,89.0209,-848.417,0,0
121158.7,88.5792,-847.263,0,0
121419.025,87.7837,-845.764,0,0
121679.35,86.8076,-843.686,0,0
121939.675,86.0278,-841.053,0,0
122200.0,85.7736,-838.201,0,0
122460,85.8088,-835.54,0,0
122721,85.8616,-832.924,0,0
122981,86.0557,-830.221,0,0
123241,86.5203,-827.664,0,0
123502,86.921,-825.398,0,0
123762,87.1624,-823.09,0,0
124022,87.4549,-820.731,0,0
124283,87.7819,-818.444,0,0
124543,88.1072,-816.227,0,0
124803,88.4001,-814.035,0,0
125064,88.7398,-811.908,0,0
125324,89.0252,-809.862,0,0
125584,89.2774,-807.8,0,0
125845,89.554,-805.858,0,0
126105,89.6994,-803.992,0,0
126365,89.6838,-802.263,0,0
126626,89.4792,-800.353,0,0
126886,89.2512,-798.266,0,0
127146,89.0996,-796.136,0,0
127406,88.9237,-794.079,0,0
127667,88.6237,-791.976,0,0
127927,88.3159,-789.811,0,0
128187,87.9646,-787.687,0,0
128448,87.4944,-785.424,0,0
128708,86.9838,-782.987,0,0
128968,86.5822,-780.394,0,0
129229,86.3488,-777.746,0,0
129489,86.2001,-775.12,0,0
129749,86.0112,-772.499,0,0
130010,85.8538,-769.717,0,0
130270,86.0461,-766.864,0,0
130530,86.4586,-764.222,0,0
130791,86.8516,-761.88,0,0
131051,87.0713,-759.729,0,0
131311,87.1905,-757.632,0,0
131572,87.1322,-755.504,0,0
131832,86.935,-753.319,0,0
132092,86.6578,-751.07,0,0
132353,86.3623,-748.665,0,0
132613,86.2095,-746.104,0,0
132873,86.1717,-743.692,0,0
133134,86.0902,-741.391,0,0
133394,85.9286,-739.075,0,0
133654,85.7039,-736.783,0,0
133915,85.3005,-734.367,0,0
134175,84.9469,-731.825,0,0
134435,84.7009,-729.236,0,0
134696,84.4717,-726.733,0,0
134956,84.1282,-724.19,0,0
135216,83.7691,-721.465,0,0
135477,83.5704,-718.738,0,0
135737,83.45,-716.158,0,0
135997,83.113,-713.557,0,0
136258,82.6751,-710.85,0,0
136518,82.2739,-707.877,0,0
136778,82.0818,-704.667,0,0
137039,82.082,-701.614,0,0
137299,82.2598,-698.612,0,0
137559,82.3871,-695.681,0,0
137819,82.5633,-692.82,0,0
138080,82.7774,-689.963,0,0
138340.125,83.0725,-687.105,0,0
138600.45,83.4661,-684.484,0,0
138860.775,83.6612,-682.089,0,0
139121.1,83.6477,-679.648,0,0
139381.425,83.5044,-677.113,0,0
139641.75,83.2708,-674.431,0,0
139902.075,83.0293,-671.626,0,0
140162.4,82.9435,-668.643,0,0
140422.725,82.9952,-665.758,0,0
140683.05,83.0457,-663.005,0,0
140943.375,82.9729,-660.271,0,0
141203.7,82.7797,-657.472,0,0
141464.025,82.561,-654.6,0,0
141724.35,82.1841,-651.589,0,0
141984.675,81.9893,-648.376,0,0
142245.0,81.945,-645.138,0,0
142505.325,81.8556,-641.936,0,0
142765.65,81.7514,-638.686,0,0
143025.975,81.7109,-635.311,0,0
143286.3,81.702,-631.915,0,0
143546.625,81.774,-628.445,0,0
143806.95,81.9193,-624.989,0,0
144067.275,82.0606,-621.522,0,0
144327.6,82.2192,-617.948,0,0
144587.925,82.4905,-614.304,0,0
144848.25,82.8469,-610.679,0,0
145108.575,83.2919,-607.057,0,0
145368.9,83.7215,-603.486,0,0
145629.225,84.1712,-599.881,0,0
145889.55,84.5442,-596.22,0,0
146149.875,85.0144,-592.388,0,0
146410.2,85.6692,-588.554,0,0
146670.525,86.335,-584.791,0,0
146930.85,86.9766,-580.931,0,0
147191.175,87.7038,-576.968,0,0
147451.5,88.5315,-572.966,0,0
147711.825,89.5325,-568.887,0,0
147972.15,90.685,-564.893,0,0
148232.475,91.852,-560.94,0,0
148492.8,93.0639,-556.952,0,0
148753.125,94.3252,-552.91,0,0
149013.45,95.6738,-548.832,0,0
149273.775,97.1387,-544.677,0,0
149534.1,98.8225,-540.427,0,0
149794.425,100.82,-536.224,0,0
150054.75,102.95,-532.234,0,0
150315.075,105.182,-528.351,0,0
150575.4,107.537,-524.563,0,0
150835.725,109.948,-520.93,0,0
151096.05,112.472,-517.398,0,0
151356.375,115.028,-514.06,0,0
151616.7,117.558,-510.85,0,0
151877.025,120.1,-507.7,0,0
152137.35,122.739,-504.707,0,0
152397.675,125.313,-501.93,0,0
152658.0,127.764,-499.21,0,0
152918.325,130.249,-496.542,0,0
153178.65,132.69,-494.101,0,0
153438.975,134.834,-491.744,0,0
153699.3,136.872,-489.302,0,0
153959.625,138.871,-486.813,0,0
154219.95,140.881,-484.39,0,0
154480,142.614,-482.209,0,0
154741,143.88,-479.692,0,0
155001,144.911,-476.629,0,0
155261,146.289,-472.937,0,0
155522,148.458,-469.201,0,0
155782,150.917,-465.816,0,0
156042,153.265,-462.746,0,0
156303,155.353,-459.651,0,0
156563,157.349,-456.196,0,0
156823,159.684,-452.288,0,0
157084,162.815,-448.435,0,0
157344,166.465,-445.065,0,0
157604,170.192,-442.47,0,0
157864,173.545,-440.42,0,0
158125,176.815,-438.713,0,0
158385,179.214,-437.701,0,0
158645,180.348,-436.121,0,0
158906,181.332,-433.745,0,0
159166,182.074,-430.814,0,0
159426,182.935,-427.281,0,0
159687,183.575,-423.108,0,0
159947,184.592,-417.734,0,0
160207,186.777,-411.641,0,0
160468,190.201,-405.66,0,0
160728,194.497,-400.237,0,0
160988,198.898,-395.867,0,0
161249,202.36,-391.24,0,0
161509,206.194,-385.357,0,0
161769,211.669,-379.224,0,0
162030,218.201,-374.264,0,0
162290,224.123,-370.082,0,0
162550,230.426,-365.518,0,0
162811,237.028,-361.352,0,0
163071,243.845,-357.057,0,0
163331,251.246,-352.643,0,0
163592,259.671,-348.62,0,0
163852,268.525,-345.475,0,0
164112,277.674,-342.801,0,0
164373,286.997,-340.721,0,0
164633,296.657,-338.713,0,0
164893,307.57,-337.134,0,0
165154,319.416,-337.705,0,0
165414,330.303,-340.177,0,0
165674,339.953,-343.012,0,0
165935,349.671,-345.928,0,0
166195,359.401,-349.61,0,0
166455,368.959,-354.299,0,0
166716,378.064,-360.113,0,0
166976,386.001,-366.87,0,0
167236,392.819,-373.982,0,0
167497,398.584,-381.015,0,0
167757,403.893,-387.751,0,0
168017,409.084,-394.765,0,0
168277,413.551,-402.388,0,0
168538,416.973,-409.739,0,0
168798,420.195,-417.318,0,0
169058,423.209,-425.19,0,0
169319,425.387,-434.15,0,0
169579,425.407,-443.548,0,0
169839,423.256,-452.006,0,0
170100,419.939,-458.52,0,0
170360.075,416.693,-463.308,0,0
170620.4,413.722,-467.099,0,0
170880.725,411.075,-470.267,0,0
171141.05,408.356,-472.989,0,0
171401.375,405.609,-474.501,0,0
171661.7,404.041,-475.108,0,0
171922.025,403.415,-476.106,0,0
172182.35,402.502,-477.227,0,0
172442.675,401.643,-477.627,0,0
172703.0,401.568,-477.34,0,0
172963.325,403.337,-476.884,0,0
173223.65,406.278,-478.16,0,0
173483.975,408.584,-481.171,0,0
173744.3,409.56,-484.605,0,0
174004.625,409.828,-487.193,0,0
174264.95,410.88,-489.228,0,0
174525.275,412.653,-492.401,0,0
174785.6,413.358,-496.776,0,0
175045.925,412.873,-500.861,0,0
175306.25,411.772,-504.033,0,0
175566.575,411.43,-506.434,0,0
175826.9,411.872,-509.567,0,0
176087.225,411.918,-513.833,0,0
176347.55,410.732,-518.451,0,0
176607.875,409.23,-522.641,0,0
176868.2,407.433,-527.587,0,0
177128.525,403.815,-532.954,0,0
177388.85,398.363,-536.906,0,0
177649.175,392.845,-539.117,0,0
177909.5,387.616,-540.716,0,0
178169.825,381.699,-541.812,0,0
178430.15,375.457,-540.906,0,0
178690.475,370.463,-538.481,0,0
178950.8,366.756,-535.545,0,0
179211.125,364.055,-532.754,0,0
179471.45,361.713,-530.057,0,0
179731.775,359.834,-526.931,0,0
179992.1,359.29,-523.685,0,0
180252.425,359.39,-521.53,0,0
180512.75,359.31,-519.645,0,0
180773.075,359.558,-517.79,0,0
181033.4,360.381,-516.172,0,0
181293.725,361.663,-515.21,0,0
181554.05,363.055,-515.151,0,0
181814.375,364.43,-516.122,0,0
182074.7,364.701,-518.144,0,0
182335.025,363.431,-520.281,0,0
182595.35,361.352,-521.526,0,0
182855.675,359.188,-521.985,0,0
183116.0,357.292,-522.277,0,0
183376.325,355.196,-522.773,0,0
183636.65,352.476,-523.17,0,0
183896.975,349.116,-522.993,0,0
184157.3,345.677,-521.772,0,0
184417.625,342.881,-520.127,0,0
184677.95,340.072,-518.658,0,0
184938.275,336.898,-516.811,0,0
185198.6,333.74,-514.226,0,0
185458.925,330.82,-511.086,0,0
185719.25,328.229,-507.496,0,0
185979.575,325.978,-503.409,0,0
186239.9,324.276,-498.987,0,0
186500,323.037,-494.348,0,0
186761,322.66,-489.293,0,0
187021,323.122,-484.592,0,0
187281,323.908,-480.323,0,0
187542,325.001,-476.236,0,0
187802,326.465,-472.476,0,0
188062,328.049,-469.231,0,0
188322,329.655,-466.295,0,0
188583,331.191,-463.827,0,0
188843,332.107,-461.625,0,0
189103,332.504,-458.917,0,0
189364,333.089,-455.53,0,0
189624,334.307,-451.838,0,0
189884,336.116,-448.273,0,0
190145,338.238,-445.254,0,0
190405,340.224,-442.591,0,0
190665,342.046,-439.888,0,0
190926,343.948,-437.232,0,0
191186,345.886,-434.711,0,0
191446,347.635,-432.268,0,0
191707,349.207,-429.608,0,0
191967,351.076,-426.668,0,0
192227,353.093,-423.991,0,0
192488,354.709,-421.286,0,0
192748,356.216,-417.995,0,0
193008,358.094,-414.145,0,0
193269,360.539,-410.073,0,0
193529,363.709,-405.764,0,0
193789,367.571,-401.79,0,0
194050,371.726,-398.106,0,0
194310,376.248,-394.493,0,0
194570,381.272,-391.107,0,0
194831,386.834,-388.079,0,0
195091,392.789,-385.545,0,0
195351,399.269,-383.529,0,0
195612,405.803,-382.336,0,0
195872,412.544,-381.894,0,0
196132,419.181,-382.281,0,0
196393,425.543,-383.546,0,0
196653,431.401,-385.574,0,0
196913,436.442,-388.499,0,0
197174,439.903,-391.58,0,0
197434,442.376,-393.749,0,0
197694,444.902,-395.11,0,0
197955,447.736,-396.232,0,0
198215,450.593,-397.413,0,0
198475,453.511,-398.639,0,0
198735,456.152,-400.352,0,0
198996,457.944,-401.731,0,0
199256,459.844,-402.374,0,0
199516,462.324,-403.004,0,0
199777,464.758,-404.357,0,0
200037,466.218,-405.949,0,0
200297,466.608,-406.853,0,0
200558,466.597,-406.532,0,0
200818,467.146,-404.774,0,0
201078,468.853,-402.446,0,0
201339,471.479,-400.108,0,0
201599,474.707,-398.096,0,0
201859,478.251,-396.162,0,0
202120,482.126,-394.328,0,0
202380.025,486.455,-392.418,0,0
202640.35,491.638,-390.714,0,0
202900.675,497.349,-389.663,0,0
203161.0,503.19,-389.214,0,0
203421.325,509.192,-389.166,0,0
203681.65,515.296,-389.615,0,0
203941.975,521.552,-390.543,0,0
204202.3,527.904,-392.098,0,0
204462.625,534.129,-394.388,0,0
204722.95,539.921,-397.328,0,0
204983.275,545.271,-400.602,0,0
205243.6,550.01,-404.379,0,0
205503.925,554.016,-408.431,0,0
205764.25,557.191,-412.493,0,0
206024.575,559.295,-416.337,0,0
206284.9,560.267,-419.005,0,0
206545.225,561.508,-420.013,0,0
206805.55,563.568,-420.219,0,0
207065.875,566.4,-419.664,0,0
207326.2,570.592,-418.977,0,0
207586.525,575.884,-418.947,0,0
207846.85,581.267,-419.657,0,0
208107.175,586.887,-420.403,0,0
208367.5,593.164,-421.534,0,0
208627.825,599.73,-423.324,0,0
208888.15,606.402,-425.707,0,0
209148.475,613.185,-428.608,0,0
209408.8,619.999,-432.083,0,0
209669.125,626.657,-436.062,0,0
209929.45,633.304,-440.412,0,0
210189.775,639.69,-445.431,0,0
210450.1,645.83,-450.757,0,0
210710.425,651.954,-456.417,0,0
210970.75,657.817,-462.577,0,0
211231.075,663.173,-469.213,0,0
211491.4,668.128,-476.11,0,0
211751.725,672.513,-483.018,0,0
212012.05,676.657,-489.839,0,0
212272.375,680.806,-496.587,0,0
212532.7,684.841,-503.469,0,0
212793.025,688.981,-510.391,0,0
213053.35,693.265,-517.869,0,0
213313.675,697.26,-526.017,0,0
213574.0,700.827,-534.765,0,0
213834.325,703.361,-543.686,0,0
214094.65,705.41,-552.236,0,0
214354.975,707.495,-560.59,0,0
214615.3,709.532,-569.191,0,0
214875.625,711.298,-578.123,0,0
215135.95,712.771,-587.32,0,0
215396.275,713.609,-596.762,0,0
215656.6,713.724,-606.16,0,0
215916.925,713.649,-615.246,0,0
216177.25,713.202,-624.115,0,0
216437.575,712.78,-633.105,0,0
216697.9,712.127,-642.461,0,0
216958.225,710.655,-652.049,0,0
217218.55,708.459,-661.241,0,0
217478.875,706.067,-670.045,0,0
217739.2,703.405,-678.667,0,0
217999.525,700.674,-687.165,0,0
218259.85,697.498,-695.686,0,0
218520,693.87,-704.115,0,0
218780,689.754,-711.942,0,0
219041,685.324,-719.035,0,0
219301,681.279,-725.597,0,0
219561,677.668,-732.111,0,0
219822,674.411,-738.779,0,0
220082,671.356,-745.855,0,0
220342,667.681,-753.599,0,0
220603,663.422,-761.176,0,0
220863,658.83,-768.788,0,0
221123,653.715,-776.325,0,0
221384,648.383,-783.71,0,0
221644,642.854,-791.053,0,0
221904,636.606,-798.761,0,0
222165,629.358,-806.375,0,0
222425,621.355,-813.159,0,0
222685,612.641,-819.084,0,0
222946,603.725,-824.497,0,0
223206,594.292,-829.03,0,0
223466,584.296,-832.463,0,0
223727,574.845,-834.422,0,0
223987,565.855,-835.534,0,0
224247,557.31,-835.774,0,0
224508,549.641,-835.463,0,0
224768,542.809,-834.395,0,0
225028,537.041,-833.228,0,0
225289,532.356,-832.226,0,0
225549,528.209,-831.708,0,0
225809,524.711,-831.692,0,0
226070,521.652,-832.183,0,0
226330,518.386,-833.495,0,0
226590,514.879,-835.277,0,0
226851,511.234,-836.788,0,0
227111,507.678,-838.606,0,0
227371,504.156,-841.139,0,0
227632,499.865,-843.966,0,0
227892,494.898,-846.693,0,0
228152,489.817,-848.999,0,0
228413,484.299,-851.128,0,0
228673,478.706,-852.811,0,0
228933,473.143,-854.267,0,0
229193,467.73,-855.402,0,0
229454,462.4,-856.518,0,0
229714,457.14,-857.495,0,0
229974,451.637,-858.582,0,0
230235,446.215,-859.434,0,0
230495,440.737,-860.321,0,0
230755,435.004,-860.878,0,0
231016,429.336,-861.128,0,0
231276,423.866,-861.121,0,0
231536,418.524,-861.045,0,0
231797,413.235,-860.88,0,0
232057,408.07,-860.681,0,0
232317,402.835,-860.317,0,0
232578,397.659,-859.802,0,0
232838,392.703,-859.296,0,0
233098,387.761,-858.728,0,0
233359,382.908,-857.994,0,0
233619,378.19,-857.291,0,0
233879,373.398,-856.649,0,0
234140,368.643,-855.772,0,0
234400,363.924,-854.737,0,0
234660.3,359.377,-853.715,0,0
234920.625,355.057,-852.794,0,0
235180.95,350.737,-852.123,0,0
235441.275,346.254,-851.361,0,0
235701.6,341.584,-850.677,0,0
235961.925,336.692,-849.864,0,0
236222.25,331.63,-848.834,0,0
236482.575,326.628,-847.476,0,0
236742.9,321.76,-845.864,0,0
237003.225,317.039,-844.308,0,0
237263.55,312.333,-842.66,0,0
237523.875,307.485,-841.028,0,0
237784.2,302.465,-839.196,0,0
238044.525,297.362,-836.976,0,0
238304.85,292.406,-834.391,0,0
238565.175,287.635,-831.603,0,0
238825.5,283.042,-828.386,0,0
239085.825,278.708,-825.044,0,0
239346.15,274.699,-821.489,0,0
239606.475,271.083,-817.95,0,0
239866.8,267.763,-814.51,0,0
240127.125,264.614,-811.107,0,0
240387.45,261.416,-807.905,0,0
240647.775,258.405,-804.576,0,0
240908.1,255.365,-801.205,0,0
241168.425,252.519,-797.802,0,0
241428.75,249.712,-794.216,0,0
241689.075,247.091,-790.457,0,0
241949.4,244.807,-786.596,0,0
242209.725,242.804,-782.803,0,0
242470.05,241.191,-779.137,0,0
242730.375,239.632,-775.568,0,0
242990.7,238.239,-772.078,0,0
243251.025,237.033,-768.643,0,0
243511.35,236.134,-765.493,0,0
243771.675,235.358,-762.59,0,0
244032.0,234.588,-759.935,0,0
244292.325,233.757,-757.488,0,0
244552.65,232.625,-755.032,0,0
244812.975,231.635,-752.741,0,0
245073.3,230.617,-750.49,0,0
245333.625,229.385,-748.225,0,0
245593.95,228.149,-745.966,0,0
245854.275,226.937,-743.614,0,0
246114.6,225.837,-741.194,0,0
246374.925,224.696,-738.827,0,0
246635.25,223.682,-736.26,0,0
246895.575,222.73,-733.726,0,0
247155.9,221.968,-731.344,0,0
247416.225,221.224,-728.999,0,0
247676.55,220.424,-726.709,0,0
247936.875,219.62,-724.332,0,0
248197.2,218.873,-721.824,0,0
248457.525,218.383,-719.298,0,0
248717.85,218.117,-716.843,0,0
248978.175,218.143,-714.575,0,0
249238.5,218.313,-712.574,0,0
249498.825,218.494,-711.062,0,0
249759.15,218.42,-709.632,0,0
250019.475,218.279,-708.44,0,0
250279.8,218.007,-707.416,0,0
250540,217.524,-706.477,0,0
250800,216.725,-705.62,0,0
251061,215.659,-704.612,0,0
251321,214.504,-703.495,0,0
251581,213.218,-702.284,0,0
251842,211.839,-700.961,0,0
252102,210.266,-699.644,0,0
252362,208.711,-698.034,0,0
252623,206.943,-696.176,0,0
252883,205.157,-693.93,0,0
253143,203.559,-691.421,0,0
253404,202.247,-688.807,0,0
253664,200.973,-686.152,0,0
253924,199.898,-683.35,0,0
254185,198.871,-680.417,0,0
254445,198.071,-677.341,0,0
254705,197.51,-674.173,0,0
254966,197.077,-670.956,0,0
255226,196.902,-667.66,0,0
255486,196.95,-664.265,0,0
255747,197.336,-660.82,0,0
256007,198.047,-657.468,0,0
256267,199.151,-654.261,0,0
256528,200.552,-651.294,0,0
256788,202.101,-648.523,0,0
257048,203.85,-646.072,0,0
257309,205.565,-644.03,0,0
257569,207.211,-642.181,0,0
257829,208.739,-640.426,0,0
258090,210.131,-638.759,0,0
258350,211.511,-637.067,0,0
258610,212.86,-635.292,0,0
258871,214.36,-633.268,0,0
259131,216.283,-631.248,0,0
259391,218.632,-629.28,0,0
259651,221.43,-627.677,0,0
259912,224.529,-626.676,0,0
260172,227.547,-625.961,0,0
260432,230.587,-625.677,0,0
260693,233.756,-625.692,0,0
260953,237.08,-626.156,0,0
261213,240.381,-627.312,0,0
261474,243.379,-629.074,0,0
261734,245.922,-631.313,0,0
261994,248.065,-633.9,0,0
262255,249.739,-636.823,0,0
262515,250.773,-639.884,0,0
262775,251.243,-643.076,0,0
263036,251.17,-646.04,0,0
263296,250.754,-648.948,0,0
263556,250.109,-651.716,0,0
263817,249.057,-654.442,0,0
264077,247.698,-657.103,0,0
264337,245.879,-659.548,0,0
264598,243.682,-661.687,0,0
264858,241.321,-663.454,0,0
265118,238.87,-665.088,0,0
265379,236.179,-666.378,0,0
265639,233.352,-667.302,0,0
265899,230.473,-667.97,0,0
266160,227.407,-668.42,0,0
266420,224.406,-668.431,0,0
266680.25,221.304,-668.183,0,0
266940.575,218.329,-667.552,0,0
267200.9,215.466,-666.557,0,0
267461.225,212.734,-665.363,0,0
267721.55,210.277,-663.897,0,0
267981.875,207.949,-662.225,0,0
268242.2,205.957,-660.456,0,0
268502.525,204.144,-658.651,0,0
268762.85,202.608,-656.764,0,0
269023.175,201.253,-655.023,0,0
269283.5,200.039,-653.277,0,0
269543.825,198.772,-651.566,0,0
269804.15,197.599,-649.714,0,0
270064.475,196.522,-647.826,0,0
270324.8,195.571,-645.823,0,0
270585.125,194.856,-643.697,0,0
270845.45,194.384,-641.591,0,0
271105.775,194.092,-639.608,0,0
271366.1,194.012,-637.739,0,0
271626.425,194.024,-636.006,0,0
271886.75,194.079,-634.393,0,0
272147.075,194.276,-633.086,0,0
272407.4,194.264,-631.833,0,0
272667.725,194.065,-630.728,0,0
272928.05,193.775,-629.539,0,0
273188.375,193.384,-628.277,0,0
273448.7,193.051,-626.818,0,0
273709.025,192.852,-625.189,0,0
273969.35,192.822,-623.454,0,0
274229.675,192.968,-621.586,0,0
274490.0,193.371,-619.758,0,0
274750.325,193.972,-618.093,0,0
275010.65,194.642,-616.458,0,0
275270.975,195.575,-614.92,0,0
275531.3,196.64,-613.514,0,0
275791.625,197.831,-612.261,0,0
276051.95,199.174,-611.159,0,0
276312.275,200.649,-610.223,0,0
276572.6,202.245,-609.502,0,0
276832.925,203.958,-609.068,0,0
277093.25,205.672,-608.932,0,0
277353.575,207.299,-609.099,0,0
277613.9,208.825,-609.52,0,0
277874.225,210.224,-610.101,0,0
278134.55,211.518,-610.915,0,0
278394.875,212.66,-611.913,0,0
278655.2,213.608,-613.083,0,0
278915.525,214.362,-614.38,0,0
279175.85,214.882,-615.835,0,0
279436.175,215.216,-617.356,0,0
279696.5,215.348,-618.865,0,0
279956.825,215.22,-620.512,0,0
280217.15,214.901,-622.164,0,0
280477.475,214.217,-623.809,0,0
280737.8,213.278,-625.329,0,0
280998.125,212.147,-626.613,0,0
281258.45,210.967,-627.795,0,0
281518.775,209.652,-628.859,0,0
281779.1,208.218,-629.867,0,0
282039.425,206.629,-630.746,0,0
282299.75,204.919,-631.426,0,0
282560,203.199,-631.878,0,0
282820,201.524,-632.238,0,0
283081,199.763,-632.545,0,0
283341,197.948,-632.754,0,0
283601,196.057,-632.81,0,0
283862,194.18,-632.691,0,0
284122,192.32,-632.393,0,0
284382,190.512,-631.972,0,0
284643,188.785,-631.425,0,0
284903,187.052,-630.78,0,0
285163,185.369,-630.08,0,0
285424,183.746,-629.236,0,0
285684,182.144,-628.255,0,0
285944,180.649,-627.132,0,0
286205,179.308,-625.93,0,0
286465,178.06,-624.693,0,0
286725,176.883,-623.337,0,0
286986,175.867,-621.927,0,0
287246,175.048,-620.437,0,0
287506,174.401,-618.954,0,0
287767,173.941,-617.525,0,0
288027,173.659,-616.226,0,0
288287,173.502,-615.107,0,0
288548,173.334,-614.025,0,0
288808,173.176,-613.027,0,0
289068,173.045,-612.077,0,0
289329,172.961,-611.326,0,0
289589,172.8,-610.672,0,0
289849,172.642,-610.042,0,0
290109,172.416,-609.478,0,0
290370,172.251,-608.931,0,0
290630,172.078,-608.467,0,0
290890,171.808,-608.134,0,0
291151,171.42,-607.839,0,0
291411,170.892,-607.485,0,0
291671,170.271,-607.048,0,0
291932,169.615,-606.52,0,0
292192,168.924,-605.897,0,0
292452,168.213,-605.155,0,0
292713,167.567,-604.264,0,0
292973,167.022,-603.232,0,0
293233,166.625,-602.106,0,0
293494,166.422,-601.01,0,0
293754,166.38,-599.894,0,0
294014,166.509,-598.863,0,0
294275,166.749,-597.955,0,0
294535,167.092,-597.108,0,0
294795,167.525,-596.412,0,0
295056,168.034,-595.865,0,0
295316,168.579,-595.467,0,0
295576,169.135,-595.239,0,0
295837,169.682,-595.207,0,0
296097,170.149,-595.273,0,0
296357,170.535,-595.513,0,0
296618,170.814,-595.83,0,0
296878,171.035,-596.29,0,0
297138,171.112,-596.853,0,0
297399,171.047,-597.467,0,0
297659,170.829,-598.141,0,0
297919,170.442,-598.829,0,0
298180,169.948,-599.484,0,0
298440,169.276,-600.085,0,0
298700.2,168.561,-600.595,0,0
298960.525,167.757,-601.082,0,0
299220.85,166.919,-601.547,0,0
299481.175,165.985,-601.945,0,0
299741.5,164.97,-602.346,0,0
300001.825,163.93,-602.649,0,0
300262.15,162.78,-602.884,0,0
300522.475,161.61,-603.094,0,0
300782.8,160.388,-603.223,0,0
301043.125,159.119,-603.301,0,0
301303.45,157.822,-603.298,0,0
301563.775,156.471,-603.226,0,0
301824.1,155.095,-603.071,0,0
302084.425,153.7,-602.81,0,0
302344.75,152.316,-602.437,0,0
302605.075,150.977,-601.986,0,0
302865.4,149.657,-601.492,0,0
303125.725,148.396,-600.952,0,0
303386.05,147.138,-600.357,0,0
303646.375,145.916,-599.722,0,0
303906.7,144.689,-599.061,0,0
304167.025,143.481,-598.329,0,0
304427.35,142.3,-597.535,0,0
304687.675,141.167,-596.697,0,0
304948.0,140.056,-595.787,0,0
305208.325,139.019,-594.849,0,0
305468.65,138.045,-593.864,0,0
305728.975,137.115,-592.83,0,0
305989.3,136.288,-591.799,0,0
306249.625,135.519,-590.765,0,0
306509.95,134.816,-589.733,0,0
306770.275,134.173,-588.707,0,0
307030.6,133.579,-587.718,0,0
307290.925,133.055,-586.712,0,0
307551.25,132.599,-585.781,0,0
307811.575,132.187,-584.867,0,0
308071.9,131.818,-584.043,0,0
308332.225,131.456,-583.294,0,0
308592.55,131.085,-582.609,0,0
308852.875,130.688,-581.961,0,0
309113.2,130.283,-581.342,0,0
309373.525,129.842,-580.794,0,0
309633.85,129.352,-580.228,0,0
309894.175,128.859,-579.686,0,0
310154.5,128.344,-579.188,0,0
310414.825,127.77,-578.694,0,0
310675.15,127.159,-578.231,0,0
310935.475,126.473,-577.745,0,0
311195.8,125.758,-577.26,0,0
311456.125,124.965,-576.752,0,0
311716.45,124.148,-576.188,0,0
311976.775,123.233,-575.577,0,0
312237.1,122.327,-574.875,0,0
312497.425,121.39,-574.13,0,0
312757.75,120.47,-573.278,0,0
313018.075,119.553,-572.355,0,0
313278.4,118.667,-571.346,0,0
313538.725,117.813,-570.267,0,0
313799.05,117.013,-569.136,0,0
314059.375,116.286,-567.922,0,0
314319.7,115.628,-566.67,0,0
314580,115.002,-565.419,0,0
314840,114.486,-563.962,0,0
315101,114.089,-562.582,0,0
315361,113.909,-561.271,0,0
315621,113.699,-559.955,0,0
315882,113.658,-558.557,0,0
316142,113.751,-557.414,0,0
316402,113.787,-556.232,0,0
316663,113.953,-555.22,0,0
316923,114.095,-554.291,0,0
317183,114.385,-553.453,0,0
317444,114.6,-552.659,0,0
317704,114.763,-551.986,0,0
317964,114.83,-551.385,0,0
318225,114.974,-550.754,0,0
318485,114.986,-550.176,0,0
318745,114.956,-549.557,0,0
319006,115.012,-548.99,0,0
319266,114.94,-548.416,0,0
319526,114.954,-547.834,0,0
319787,114.892,-547.242,0,0
320047,114.918,-546.597,0,0
320307,114.931,-545.968,0,0
320567,114.937,-545.461,0,0
320828,114.965,-544.885,0,0
321088,115.15,-544.369,0,0
321348,115.235,-543.827,0,0
321609,115.507,-543.259,0,0
321869,115.754,-542.858,0,0
322129,115.971,-542.52,0,0
322390,116.269,-542.24,0,0
322650,116.538,-542.147,0,0
322910,116.664,-542.13,0,0
323171,116.812,-542.111,0,0
323431,116.861,-542.178,0,0
323691,116.881,-542.331,0,0
323952,116.833,-542.512,0,0
324212,116.743,-542.671,0,0
324472,116.439,-542.876,0,0
324733,116.095,-543.194,0,0
324993,115.677,-543.409,0,0
325253,115.174,-543.644,0,0
325514,114.576,-543.784,0,0
325774,113.917,-543.932,0,0
326034,113.198,-544.059,0,0
326295,112.371,-543.991,0,0
326555,111.605,-544.026,0,0
326815,110.716,-543.996,0,0
327076,109.868,-543.763,0,0
327336,108.957,-543.607,0,0
327596,108.084,-543.306,0,0
327857,107.228,-543.042,0,0
328117,106.287,-542.716,0,0
328377,105.366,-542.37,0,0
328638,104.447,-541.955,0,0
328898,103.611,-541.517,0,0
329158,102.761,-541.019,0,0
329419,101.902,-540.46,0,0
329679,101.066,-539.88,0,0
329939,100.254,-539.25,0,0
330200,99.4687,-538.765,0,0
330460,98.5962,-538.253,0,0
330720.15,97.7714,-537.649,0,0
330980.475,96.9477,-537.078,0,0
331240.8,96.055,-536.559,0,0
331501.125,95.2187,-535.901,0,0
331761.45,94.3647,-535.201,0,0
332021.775,93.4305,-534.501,0,0
332282.1,92.5729,-533.834,0,0
332542.425,91.7008,-533.096,0,0
332802.75,90.8829,-532.316,0,0
333063.075,90.0668,-531.524,0,0
333323.4,89.17,-530.659,0,0
333583.725,88.2781,-529.834,0,0
333844.05,87.4568,-528.909,0,0
334104.375,86.5605,-527.91,0,0
334364.7,85.7518,-526.876,0,0
334625.025,84.9649,-525.764,0,0
334885.35,84.2305,-524.71,0,0
335145.675,83.4823,-523.587,0,0
335406.0,82.7781,-522.414,0,0
335666.325,82.1866,-521.284,0,0
335926.65,81.5657,-520.14,0,0
336186.975,81.0092,-518.923,0,0
336447.3,80.4837,-517.769,0,0
336707.625,79.9788,-516.463,0,0
336967.95,79.4941,-515.235,0,0
337228.275,79.1389,-514.045,0,0
337488.6,78.7148,-512.872,0,0
337748.925,78.3503,-511.662,0,0
338009.25,77.9708,-510.45,0,0
338269.575,77.6531,-509.138,0,0
338529.9,77.3332,-507.968,0,0
338790.225,77.0872,-506.586,0,0
339050.55,76.8155,-505.171,0,0
339310.875,76.6604,-503.863,0,0
339571.2,76.5133,-502.474,0,0
339831.525,76.4275,-501.169,0,0
340091.85,76.507,-499.724,0,0
340352.175,76.5732,-498.442,0,0
340612.5,76.7126,-497.069,0,0
340872.825,76.9652,-495.808,0,0
341133.15,77.2933,-494.553,0,0
341393.475,77.6836,-493.307,0,0
341653.8,78.148,-492.269,0,0
341914.125,78.6283,-491.161,0,0
342174.45,79.166,-490.254,0,0
342434.775,79.7279,-489.404,0,0
342695.1,80.2444,-488.572,0,0
342955.425,80.768,-487.885,0,0
343215.75,81.3107,-487.234,0,0
343476.075,81.861,-486.828,0,0
343736.4,82.2438,-486.372,0,0
343996.725,82.6901,-485.966,0,0
344257.05,82.9595,-485.627,0,0
344517.375,83.1706,-485.325,0,0
344777.7,83.3534,-485.045,0,0
345038.025,83.4596,-484.777,0,0
345298.35,83.4885,-484.425,0,0
345558.675,83.4136,-484.044,0,0
345819.0,83.4234,-483.673,0,0
346079.325,83.3489,-483.208,0,0
346339.65,83.2923,-482.694,0,0
346599.975,83.2771,-482.297,0,0
346860,83.2283,-481.86,0,0
347121,83.1507,-481.443,0,0
347381,83.0673,-480.947,0,0
347641,82.9065,-480.523,0,0
347902,82.8398,-480.008,0,0
348162,82.6236,-479.572,0,0
348422,82.4452,-478.953,0,0
348683,82.2488,-478.349,0,0
348943,82.1128,-477.671,0,0
349203,81.9327,-476.893,0,0
349464,81.9001,-476.164,0,0
349724,81.8816,-475.4,0,0
349984,81.9047,-474.621,0,0
350245,82.0515,-473.831,0,0
350505,82.1574,-473.086,0,0
350765,82.4526,-472.388,0,0
351025,82.7687,-471.68,0,0
351286,83.1586,-471.095,0,0
351546,83.5618,-470.672,0,0
351806,83.9503,-470.291,0,0
352067,84.2526,-470.028,0,0
352327,84.5257,-469.828,0,0
352587,84.7582,-469.697,0,0
352848,84.8734,-469.576,0,0
353108,84.9067,-469.555,0,0
353368,84.8508,-469.436,0,0
353629,84.7123,-469.367,0,0
353889,84.5244,-469.352,0,0
354149,84.2787,-469.181,0,0
354410,84.007,-468.977,0,0
354670,83.688,-468.703,0,0
354930,83.3345,-468.429,0,0
355191,82.9703,-468.052,0,0
355451,82.6382,-467.683,0,0
355711,82.3164,-467.297,0,0
355972,81.9849,-466.842,0,0
356232,81.6462,-466.473,0,0
356492,81.2865,-465.986,0,0
356753,80.9483,-465.489,0,0
357013,80.5828,-464.947,0,0
357273,80.2461,-464.425,0,0
357534,79.9414,-463.757,0,0
357794,79.5896,-463.139,0,0
358054,79.2685,-462.446,0,0
358315,79.1279,-461.664,0,0
358575,78.9173,-460.932,0,0
358835,78.8218,-460.242,0,0
359096,78.7182,-459.507,0,0
359356,78.7101,-458.791,0,0
359616,78.588,-458.072,0,0
359877,78.6909,-457.471,0,0
360137,78.7135,-456.875,0,0
360397,78.6918,-456.325,0,0
360658,78.6909,-455.736,0,0
360918,78.7076,-455.235,0,0
361178,78.6522,-454.718,0,0
361438,78.586,-454.17,0,0
361699,78.5183,-453.657,0,0
361959,78.4757,-453.043,0,0
362219,78.4198,-452.512,0,0
362480,78.3052,-451.868,0,0
362740.1,78.2349,-451.2,0,0
363000.425,78.2101,-450.472,0,0
363260.75,78.2844,-449.82,0,0
363521.075,78.378,-449.11,0,0
363781.4,78.6561,-448.445,0,0
364041.725,78.866,-447.794,0,0
364302.05,79.1531,-447.305,0,0
364562.375,79.472,-446.808,0,0
364822.7,79.7331,-446.438,0,0
365083.025,80.0907,-446.101,0,0
365343.35,80.3747,-445.85,0,0
365603.675,80.6155,-445.658,0,0
365864.0,80.8297,-445.555,0,0
366124.325,80.9374,-445.545,0,0
366384.65,80.8929,-445.562,0,0
366644.975,80.8501,-445.509,0,0
366905.3,80.6213,-445.548,0,0
367165.625,80.3989,-445.459,0,0
367425.95,80.0465,-445.353,0,0
367686.275,79.683,-445.099,0,0
367946.6,79.2264,-444.838,0,0
368206.925,78.8061,-444.607,0,0
368467.25,78.3072,-444.225,0,0
368727.575,77.8061,-443.742,0,0
368987.9,77.2963,-443.089,0,0
369248.225,76.8976,-442.432,0,0
369508.55,76.4431,-441.598,0,0
369768.875,76.2058,-440.749,0,0
370029.2,76.0426,-439.765,0,0
370289.525,76.107,-438.885,0,0
370549.85,76.3348,-438.038,0,0
370810.175,76.529,-437.233,0,0
371070.5,76.8706,-436.583,0,0
371330.825,77.2384,-436.064,0,0
371591.15,77.6208,-435.675,0,0
371851.475,77.9849,-435.401,0,0
372111.8,78.1959,-435.212,0,0
372372.125,78.3805,-435.092,0,0
372632.45,78.4942,-435.088,0,0
372892.775,78.4642,-435.096,0,0
373153.1,78.3243,-435.07,0,0
373413.425,77.9795,-434.958,0,0
373673.75,77.7034,-434.815,0,0
373934.075,77.3192,-434.594,0,0
374194.4,76.9142,-434.257,0,0
374454.725,76.545,-433.868,0,0
374715.05,76.1309,-433.476,0,0
374975.375,75.701,-432.992,0,0
375235.7,75.3214,-432.458,0,0
375496.025,74.9069,-431.819,0,0
375756.35,74.5753,-431.164,0,0
376016.675,74.3119,-430.423,0,0
376277.0,74.0775,-429.703,0,0
376537.325,73.9595,-428.938,0,0
376797.65,73.8858,-428.127,0,0
377057.975,73.7971,-427.391,0,0
377318.3,73.8304,-426.662,0,0
377578.625,73.9388,-425.948,0,0
377838.95,74.0112,-425.267,0,0
378099.275,74.1089,-424.617,0,0
378359.6,74.2674,-424.009,0,0
378619.925,74.3634,-423.413,0,0
378880,74.5641,-422.873,0,0
379141,74.7509,-422.276,0,0
379401,74.954,-421.779,0,0
379661,75.1802,-421.335,0,0
379922,75.4669,-420.964,0,0
380182,75.6471,-420.556,0,0
380442,75.7871,-420.293,0,0
380703,75.9535,-420.051,0,0
380963,76.03,-419.822,0,0
381223,76.0553,-419.576,0,0
381483,75.9926,-419.275,0,0
381744,75.9772,-418.989,0,0
382004,76.0136,-418.695,0,0
382264,75.9588,-418.329,0,0
382525,75.9194,-418.022,0,0
382785,75.9852,-417.694,0,0
383045,75.9428,-417.384,0,0
383306,75.9182,-417.129,0,0
383566,75.8793,-416.923,0,0
383826,75.7654,-416.748,0,0
384087,75.6393,-416.489,0,0
384347,75.4849,-416.245,0,0
384607,75.2545,-415.988,0,0
384868,75.0035,-415.675,0,0
385128,74.7508,-415.33,0,0
385388,74.4859,-414.969,0,0
385649,74.2615,-414.566,0,0
385909,74.0305,-414.176,0,0
386169,73.7621,-413.754,0,0
386430,73.4776,-413.229,0,0
386690,73.2129,-412.774,0,0
386950,72.9663,-412.251,0,0
387211,72.7039,-411.735,0,0
387471,72.4895,-411.196,0,0
387731,72.1954,-410.601,0,0
387992,71.9772,-409.984,0,0
388252,71.7207,-409.353,0,0
388512,71.5139,-408.666,0,0
388773,71.2716,-407.987,0,0
389033,71.1034,-407.215,0,0
389293,70.9825,-406.46,0,0
389554,70.8833,-405.615,0,0
389814,70.814,-404.833,0,0
390074,70.8367,-403.981,0,0
390335,70.8525,-403.149,0,0
390595,70.9536,-402.3,0,0
390855,71.1171,-401.427,0,0
391116,71.3045,-400.645,0,0
391376,71.5072,-399.829,0,0
391636,71.8381,-399.043,0,0
391896,72.1686,-398.247,0,0
392157,72.571,-397.521,0,0
392417,73.0296,-396.849,0,0
392677,73.4904,-396.277,0,0
392938,74.0052,-395.69,0,0
393198,74.4906,-395.178,0,0
393458,74.9512,-394.718,0,0
393719,75.4774,-394.342,0,0
393979,75.9391,-393.966,0,0
394239,76.3976,-393.648,0,0
394500,76.898,-393.355,0,0
394760.05,77.3586,-393.237,0,0
395020.375,77.7648,-392.991,0,0
395280.7,78.2341,-392.843,0,0
395541.025,78.5959,-392.691,0,0
395801.35,79.0217,-392.546,0,0
396061.675,79.3772,-392.465,0,0
396322.0,79.7388,-392.45,0,0
396582.325,80.0403,-392.375,0,0
396842.65,80.3383,-392.345,0,0
397102.975,80.5657,-392.432,0,0
397363.3,80.8141,-392.485,0,0
397623.625,81.0146,-392.53,0,0
397883.95,81.1029,-392.623,0,0
398144.275,81.1663,-392.704,0,0
398404.6,81.1948,-392.806,0,0
398664.925,81.1595,-392.912,0,0
398925.25,81.1328,-392.979,0,0
399185.575,81.0672,-393.1,0,0
399445.9,80.9679,-393.145,0,0
399706.225,80.8733,-393.187,0,0
399966.55,80.6542,-393.192,0,0
400006.6,80.6331,-393.207,0,0