File: Accelerated corrosion test data/2025-10-14_08-28-47/sample_6.csv
Frequency (Hz),Impedance (ohms),Phase (Radians),Temperature (C),Humidity (%)
10000.0,4132.83,-6680.58,0,0
10260.325,3995.09,-6597.14,0,0
10520.65,3864.3,-6514.32,0,0
10780.975,3738.93,-6432.08,0,0
11041.3,3620.13,-6350.33,0,0
11301.625,3506.25,-6270.43,0,0
11561.95,3397.64,-6190.99,0,0
11822.275,3293.71,-6112.83,0,0
12082.6,3194.19,-6035.41,0,0
12342.925,3099.42,-5959.43,0,0
12603.25,3009.9,-5883.8,0,0
12863.575,2923.49,-5810.44,0,0
13123.9,2842.34,-5739.33,0,0
13384.225,2762.2,-5670.76,0,0
13644.55,2684.82,-5601.26,0,0
13904.875,2610.82,-5532.59,0,0
14165.2,2540.54,-5465.17,0,0
14425.525,2472.76,-5399.24,0,0
14685.8,2407.8,-5333.5,0,0
14946.175,2345.6,-5270.59,0,0
15206.5,2286.18,-5208.55,0,0
15466.825,2228.21,-5147.39,0,0
15727.15,2173.25,-5087.01,0,0
15987.5,2119.83,-5028.24,0,0
16247.8,2067.9,-4970.41,0,0
16508.125,2018.34,-4913.63,0,0
16768.45,1970.57,-4857.79,0,0
17028.775,1925.03,-4803.26,0,0
17289.1,1880.62,-4749.77,0,0
17549.425,1837.39,-4696.96,0,0
17809.75,1795.96,-4646.22,0,0
18070.075,1754.76,-4594.01,0,0
18330.4,1716.17,-4544.33,0,0
18590.725,1679.4,-4494.93,0,0
18851.05,1644.62,-4446.99,0,0
19111.375,1610.15,-4400.47,0,0
19371.7,1576.48,-4354.59,0,0
19632.025,1543.63,-4310.06,0,0
19892.35,1511.85,-4265.03,0,0
20152.675,1481.57,-4221.75,0,0
20413.0,1451.12,-4179.2,0,0
20673.3,1422.24,-4136.91,0,0
20933.65,1394.3,-4095.98,0,0
21193.975,1367.23,-4055.15,0,0
21454.3,1341.43,-4014.84,0,0
21714.625,1315.5,-3975.92,0,0
21974.9,1290.51,-3936.61,0,0
22235.275,1266.25,-3899.03,0,0
22495.6,1243.17,-3861,0,0
22755.925,1221.16,-3823.28,0,0
23016.25,1200.59,-3786.73,0,0
23276.6,1180.48,-3753.15,0,0
23536.9,1159.44,-3719.86,0,0
23797.225,1138.91,-3686.13,0,0
24057.55,1118.81,-3652.73,0,0
24317.875,1099.8,-3619.86,0,0
24578.2,1080.96,-3587.1,0,0
24838.525,1062.69,-3555.23,0,0
25098.85,1045.3,-3524.31,0,0
25359.175,1028.16,-3493.28,0,0
25619.5,1010.93,-3463.2,0,0
25879.8,994.289,-3432.62,0,0
26140.1,978.686,-3403.36,0,0
26400.5,963.118,-3373.9,0,0
26660.8,948.483,-3345.36,0,0
26921.1,933.909,-3316.92,0,0
27181.4,919.848,-3289.22,0,0
27441.8,906.379,-3262.29,0,0
27702.1,892.888,-3235.72,0,0
27962.4,879.675,-3209.65,0,0
28222.7,866.256,-3184.15,0,0
28483.1,853.162,-3158.73,0,0
28743.4,839.875,-3133.13,0,0
29003.7,827.325,-3107.7,0,0
29264,815.061,-3082.17,0,0
29524.4,804.327,-3057.23,0,0
29784.7,793.546,-3032.8,0,0
30045,783.596,-3009.18,0,0
30305.3,773.254,-2985.79,0,0
30565.7,763.256,-2962.95,0,0
30826,753.486,-2941.07,0,0
31086.3,743.651,-2919.26,0,0
31346.6,733.735,-2897.16,0,0
31607,724.595,-2875.4,0,0
31867.3,715.538,-2854.52,0,0
32127.6,706.27,-2833.08,0,0
32387.9,698.302,-2812.14,0,0
32648.3,690.404,-2791.76,0,0
32908.6,683.156,-2772.07,0,0
33168.9,676.169,-2753.48,0,0
33429.2,667.734,-2736.36,0,0
33689.6,658.681,-2718.01,0,0
33949.9,650.018,-2699.77,0,0
34210.2,641.157,-2681.53,0,0
34470.5,632.75,-2662.67,0,0
34730.9,624.967,-2643.86,0,0
34991.2,617.846,-2625.58,0,0
35251.5,610.931,-2608.32,0,0
35511.8,603.327,-2591.65,0,0
35772.2,595.219,-2574.7,0,0
36032.5,587.147,-2557.2,0,0
36292.8,579.863,-2539.22,0,0
36553.1,573.219,-2521.71,0,0
36813.5,566.712,-2504.65,0,0
37073.8,560.409,-2487.76,0,0
37334.1,554.373,-2471.14,0,0
37594.4,548.477,-2454.63,0,0
37854.8,542.627,-2438.61,0,0
38115.1,536.516,-2422.68,0,0
38375.4,530.831,-2406.35,0,0
38635.7,525.358,-2390.51,0,0
38896.1,520.428,-2374.31,0,0
39156.4,515.843,-2358.62,0,0
39416.7,511.724,-2343.51,0,0
39677,507.467,-2328.87,0,0
39937.4,503.6,-2314.39,0,0
40197.7,499.825,-2300.68,0,0
40458,495.604,-2286.9,0,0
40718.3,491.934,-2273.99,0,0
40978.7,487.479,-2261.29,0,0
41239,482.943,-2248.59,0,0
41499.3,478.244,-2236.09,0,0
41759.6,473.445,-2223.06,0,0
42020,469.516,-2211,0,0
42280.275,464.018,-2199.5,0,0
42540.6,458.006,-2186.39,0,0
42800.925,452.887,-2172.43,0,0
43061.25,449.129,-2158.71,0,0
43321.575,445.654,-2145.83,0,0
43581.9,441.937,-2133.27,0,0
43842.225,438.353,-2120.43,0,0
44102.55,434.961,-2108.09,0,0
44362.875,432.091,-2095.57,0,0
44623.2,429.368,-2083.81,0,0
44883.525,426.482,-2072.21,0,0
45143.85,423.85,-2060.79,0,0
45404.175,421.385,-2049.82,0,0
45664.5,418.249,-2038.9,0,0
45924.825,415.794,-2028.21,0,0
46185.15,413.161,-2017.73,0,0
46445.475,410.782,-2007.7,0,0
46705.8,407.608,-1997.85,0,0
46966.125,404.407,-1987.33,0,0
47226.45,402.027,-1976.92,0,0
47486.775,399.984,-1967.21,0,0
47747.1,397.699,-1958.14,0,0
48007.425,395.149,-1949.02,0,0
48267.75,392.697,-1939.81,0,0
48528.075,390.39,-1930.98,0,0
48788.4,388.139,-1922.79,0,0
49048.725,385.465,-1914.86,0,0
49309.05,382.31,-1907.31,0,0
49569.375,378.654,-1899.87,0,0
49829.7,374.479,-1892.12,0,0
50090.025,370.148,-1884.1,0,0
50350.35,365.291,-1875.82,0,0
50610.675,360.666,-1866.75,0,0
50871.0,356.439,-1857.49,0,0
51131.325,352.425,-1848.17,0,0
51391.65,348.686,-1838.8,0,0
51651.975,345.117,-1829.36,0,0
51912.3,341.733,-1820.25,0,0
52172.625,338.399,-1810.87,0,0
52432.95,335.542,-1801.52,0,0
52693.275,332.899,-1792.6,0,0
52953.6,330.084,-1784.06,0,0
53213.925,327.187,-1775.39,0,0
53474.25,324.112,-1766.89,0,0
53734.575,321.034,-1758.1,0,0
53994.9,318.092,-1749.11,0,0
54255.225,315.585,-1739.97,0,0
54515.55,313.587,-1731.33,0,0
54775.875,311.72,-1722.93,0,0
55036.2,309.518,-1715.1,0,0
55296.525,307.069,-1707.33,0,0
55556.85,304.516,-1699.35,0,0
55817.175,301.723,-1691.32,0,0
56077.5,299.023,-1683.01,0,0
56337.825,296.548,-1674.29,0,0
56598.15,294.636,-1665.52,0,0
56858.475,293.223,-1656.92,0,0
57118.8,292.258,-1648.88,0,0
57379.125,291.244,-1641.35,0,0
57639.45,290.316,-1634.09,0,0
57899.775,289.195,-1627.34,0,0
58160.1,287.525,-1620.83,0,0
58420.4,286.007,-1614.47,0,0
58680.7,284.102,-1608.13,0,0
58941.1,282.101,-1601.74,0,0
59201.4,279.979,-1595.21,0,0
59461.7,277.775,-1588.79,0,0
59722,275.549,-1582.26,0,0
59982.4,273.173,-1575.69,0,0
60242.7,270.833,-1568.99,0,0
60503,268.571,-1562.28,0,0
60763.3,266.392,-1555.62,0,0
61023.7,264.117,-1549.12,0,0
61284,261.625,-1542.6,0,0
61544.3,258.901,-1535.88,0,0
61804.6,256.126,-1528.67,0,0
62065,253.544,-1520.91,0,0
62325.3,251.777,-1512.74,0,0
62585.6,250.82,-1504.77,0,0
62845.9,250.315,-1497.42,0,0
63106.3,250.034,-1490.55,0,0
63366.6,249.863,-1484.29,0,0
63626.9,249.509,-1478.5,0,0
63887.2,248.817,-1473.32,0,0
64147.6,247.743,-1468.41,0,0
64407.9,245.948,-1463.49,0,0
64668.2,243.657,-1458.13,0,0
64928.5,241.252,-1452.23,0,0
65188.9,239.505,-1445.86,0,0
65449.2,237.6,-1439.6,0,0
65709.5,236.365,-1433.46,0,0
65969.8,235.121,-1427.41,0,0
66230.2,234.011,-1421.71,0,0
66490.5,232.731,-1416.08,0,0
66750.8,231.536,-1410.61,0,0
67011.1,230.145,-1405.15,0,0
67271.5,228.533,-1399.74,0,0
67531.8,227.094,-1394.34,0,0
67792.1,225.632,-1388.87,0,0
68052.4,224.178,-1383.4,0,0
68312.8,222.726,-1378.02,0,0
68573.1,221.163,-1372.51,0,0
68833.4,219.737,-1367.26,0,0
69093.7,218.265,-1361.82,0,0
69354.1,216.708,-1356.5,0,0
69614.4,215.318,-1351.14,0,0
69874.7,213.797,-1345.83,0,0
70135,212.406,-1340.7,0,0
70395.4,210.788,-1335.26,0,0
70655.7,209.288,-1329.9,0,0
70916,207.904,-1324.51,0,0
71176.3,206.513,-1319.24,0,0
71436.7,205.101,-1313.86,0,0
71697,203.789,-1308.47,0,0
71957.3,202.476,-1303.07,0,0
72217.6,201.4,-1297.74,0,0
72478,200.221,-1292.49,0,0
72738.3,199.081,-1287.28,0,0
72998.6,198.021,-1282.08,0,0
73258.9,196.979,-1276.99,0,0
73519.3,195.844,-1271.92,0,0
73779.6,194.822,-1266.8,0,0
74039.9,193.831,-1261.73,0,0
74300.225,192.817,-1256.86,0,0
74560.55,191.911,-1252.05,0,0
74820.875,190.983,-1247.23,0,0
75081.2,189.99,-1242.54,0,0
75341.525,188.99,-1237.78,0,0
75601.85,187.927,-1233.06,0,0
75862.175,186.879,-1228.32,0,0
76122.5,185.793,-1223.6,0,0
76382.825,184.805,-1218.9,0,0
76643.15,183.756,-1214.23,0,0
76903.475,182.734,-1209.53,0,0
77163.8,181.719,-1204.79,0,0
77424.125,180.741,-1200.13,0,0
77684.45,179.739,-1195.45,0,0
77944.775,178.767,-1190.81,0,0
78205.1,177.788,-1186.15,0,0
78465.425,176.889,-1181.52,0,0
78725.75,175.914,-1176.92,0,0
78986.075,174.999,-1172.33,0,0
79246.4,174.066,-1167.73,0,0
79506.725,173.203,-1163.14,0,0
79767.05,172.312,-1158.58,0,0
80027.375,171.455,-1154.02,0,0
80287.7,170.636,-1149.43,0,0
80548.025,169.778,-1144.87,0,0
80808.35,168.937,-1140.27,0,0
81068.675,168.155,-1135.7,0,0
81329.0,167.473,-1131.18,0,0
81589.325,166.762,-1126.6,0,0
81849.65,166.116,-1122.09,0,0
82109.975,165.48,-1117.51,0,0
82370.3,164.878,-1113,0,0
82630.625,164.345,-1108.58,0,0
82890.95,163.781,-1104.16,0,0
83151.275,163.262,-1099.72,0,0
83411.6,162.779,-1095.24,0,0
83671.925,162.332,-1090.8,0,0
83932.25,161.927,-1086.44,0,0
84192.575,161.481,-1081.99,0,0
84452.9,161.188,-1077.53,0,0
84713.225,160.99,-1073.23,0,0
84973.55,160.76,-1068.85,0,0
85233.875,160.742,-1064.54,0,0
85494.2,160.705,-1060.38,0,0
85754.525,160.707,-1056.29,0,0
86014.85,160.808,-1052.22,0,0
86275.175,160.776,-1048.26,0,0
86535.5,160.745,-1044.39,0,0
86795.825,160.743,-1040.54,0,0
87056.15,160.746,-1036.79,0,0
87316.475,160.723,-1032.95,0,0
87576.8,160.741,-1029.16,0,0
87837.125,160.725,-1025.45,0,0
88097.45,160.718,-1021.84,0,0
88357.775,160.782,-1018.05,0,0
88618.1,161.01,-1014.53,0,0
88878.425,161.101,-1010.85,0,0
89138.75,161.342,-1007.38,0,0
89399.075,161.551,-1003.92,0,0
89659.4,161.963,-1000.68,0,0
89919.725,162.247,-997.654,0,0
90180,162.426,-994.625,0,0
90440.4,162.682,-991.921,0,0
90700.7,162.592,-989.401,0,0
90961,162.277,-986.899,0,0
91221.3,161.756,-984.259,0,0
91481.7,161.041,-981.641,0,0
91742,160.279,-978.662,0,0
92002.3,159.468,-975.571,0,0
92262.6,158.598,-972.22,0,0
92523,157.99,-968.916,0,0
92783.3,157.366,-965.572,0,0
93043.6,156.659,-962.234,0,0
93303.9,156.213,-958.568,0,0
93564.3,155.652,-955.018,0,0
93824.6,155.401,-951.413,0,0
94084.9,155.325,-947.712,0,0
94345.2,155.374,-944.196,0,0
94605.6,155.573,-940.914,0,0
94865.9,155.578,-937.783,0,0
95126.2,155.676,-934.531,0,0
95386.5,155.715,-931.329,0,0
95646.9,155.858,-928.318,0,0
95907.2,156.095,-925.303,0,0
96167.5,156.329,-922.529,0,0
96427.8,156.552,-919.847,0,0
96688.2,156.584,-917.28,0,0
96948.5,156.514,-914.83,0,0
97208.8,156.165,-912.417,0,0
97469.1,155.682,-909.811,0,0
97729.5,155.189,-907.012,0,0
97989.8,154.718,-904.131,0,0
98250.1,154.321,-901.155,0,0
98510.4,154.038,-898.106,0,0
98770.8,153.858,-894.967,0,0
99031.1,153.886,-891.84,0,0
99291.4,154.161,-888.876,0,0
99551.7,154.447,-886.125,0,0
99812.1,154.698,-883.581,0,0
100072,154.9,-881.107,0,0
100333,155.07,-878.787,0,0
100593,155.238,-876.595,0,0
100853,155.259,-874.541,0,0
101114,155.025,-872.668,0,0
101374,154.573,-870.684,0,0
101634,153.965,-868.503,0,0
101895,153.424,-866.128,0,0
102155,152.997,-863.733,0,0
102415,152.645,-861.395,0,0
102676,152.382,-859.146,0,0
102936,152.104,-857.163,0,0
103196,151.581,-855.318,0,0
103457,150.91,-853.465,0,0
103717,150.049,-851.551,0,0
103977,149.088,-849.598,0,0
104238,148.056,-847.623,0,0
104498,146.818,-845.683,0,0
104758,145.432,-843.735,0,0
105019,143.662,-841.661,0,0
105279,141.649,-839.221,0,0
105539,139.61,-836.393,0,0
105800,137.633,-833.215,0,0
106060,135.661,-829.727,0,0
106320.175,133.808,-825.933,0,0
106580.5,132.496,-821.749,0,0
106840.825,131.549,-817.52,0,0
107101.15,130.836,-813.347,0,0
107361.475,130.333,-809.194,0,0
107621.8,129.977,-805.065,0,0
107882.125,129.904,-800.898,0,0
108142.45,130.119,-796.903,0,0
108402.775,130.434,-793.138,0,0
108663.1,130.747,-789.465,0,0
108923.425,131.13,-785.883,0,0
109183.75,131.563,-782.383,0,0
109444.075,131.983,-778.9,0,0
109704.4,132.661,-775.424,0,0
109964.725,133.419,-772.171,0,0
110225.05,134.042,-769.052,0,0
110485.375,134.748,-765.864,0,0
110745.7,135.612,-762.89,0,0
111006.025,136.615,-759.661,0,0
111266.35,137.804,-756.785,0,0
111526.675,139.12,-754.249,0,0
111787.0,140.217,-751.797,0,0
112047.325,141.368,-749.739,0,0
112307.65,142.452,-747.882,0,0
112567.975,143.299,-746.253,0,0
112828.3,143.846,-744.655,0,0
113088.625,144.27,-743.009,0,0
113348.95,144.504,-741.33,0,0
113609.275,144.495,-739.679,0,0
113869.6,144.508,-737.769,0,0
114129.925,144.49,-735.788,0,0
114390.25,144.564,-733.672,0,0
114650.575,144.677,-731.645,0,0
114910.9,144.865,-729.513,0,0
115171.225,145.29,-727.466,0,0
115431.55,145.863,-725.678,0,0
115691.875,146.32,-724.184,0,0
115952.2,146.672,-722.994,0,0
116212.525,146.766,-722.059,0,0
116472.85,146.453,-721.342,0,0
116733.175,145.584,-720.607,0,0
116993.5,144.235,-719.462,0,0
117253.825,142.642,-717.986,0,0
117514.15,140.969,-716.039,0,0
117774.475,139.388,-713.756,0,0
118034.8,137.854,-711.046,0,0
118295.125,136.513,-708.061,0,0
118555.45,135.484,-705.001,0,0
118815.775,134.609,-701.727,0,0
119076.1,134.044,-698.392,0,0
119336.425,133.676,-695.065,0,0
119596.75,133.514,-691.814,0,0
119857.075,133.483,-688.597,0,0
120117.4,133.654,-685.211,0,0
120377.725,134.147,-681.933,0,0
120638.05,135.014,-678.915,0,0
120898.375,136.117,-676.364,0,0
121158.7,137.083,-674.386,0,0
121419.025,137.71,-672.694,0,0
121679.35,137.984,-671.099,0,0
121939.675,137.921,-669.524,0,0
122200.0,137.566,-667.755,0,0
122460,137.054,-665.694,0,0
122721,136.67,-663.374,0,0
122981,136.409,-661.013,0,0
123241,136.238,-658.574,0,0
123502,136.233,-656.173,0,0
123762,136.277,-653.884,0,0
124022,136.261,-651.68,0,0
124283,136.22,-649.518,0,0
124543,136.111,-647.359,0,0
124803,135.958,-645.221,0,0
125064,135.697,-643.048,0,0
125324,135.427,-640.817,0,0
125584,135.161,-638.514,0,0
125845,134.861,-636.161,0,0
126105,134.597,-633.813,0,0
126365,134.269,-631.392,0,0
126626,133.94,-628.906,0,0
126886,133.648,-626.314,0,0
127146,133.386,-623.676,0,0
127406,133.24,-620.967,0,0
127667,133.119,-618.221,0,0
127927,133.007,-615.464,0,0
128187,133.098,-612.661,0,0
128448,133.253,-609.735,0,0
128708,133.596,-606.984,0,0
128968,133.981,-604.295,0,0
129229,134.364,-601.723,0,0
129489,134.798,-599.207,0,0
129749,135.159,-596.733,0,0
130010,135.568,-594.295,0,0
130270,135.858,-591.924,0,0
130530,136.112,-589.544,0,0
130791,136.361,-587.058,0,0
131051,136.676,-584.497,0,0
131311,137.011,-582.002,0,0
131572,137.429,-579.49,0,0
131832,137.862,-576.979,0,0
132092,138.327,-574.481,0,0
132353,138.829,-572,0,0
132613,139.359,-569.508,0,0
132873,139.969,-567.048,0,0
133134,140.637,-564.668,0,0
133394,141.297,-562.39,0,0
133654,142.025,-560.121,0,0
133915,142.653,-557.907,0,0
134175,143.246,-555.729,0,0
134435,143.812,-553.594,0,0
134696,144.439,-551.35,0,0
134956,145.04,-549.122,0,0
135216,145.741,-546.934,0,0
135477,146.407,-544.809,0,0
135737,146.982,-542.67,0,0
135997,147.67,-540.545,0,0
136258,148.363,-538.415,0,0
136518,149.119,-536.302,0,0
136778,149.928,-534.281,0,0
137039,150.76,-532.324,0,0
137299,151.645,-530.437,0,0
137559,152.468,-528.682,0,0
137819,153.221,-527.027,0,0
138080,153.929,-525.443,0,0
138340.125,154.412,-523.939,0,0
138600.45,154.879,-522.31,0,0
138860.775,155.263,-520.714,0,0
139121.1,155.532,-519.139,0,0
139381.425,155.839,-517.449,0,0
139641.75,155.995,-515.759,0,0
139902.075,156.233,-513.886,0,0
140162.4,156.474,-511.928,0,0
140422.725,156.815,-509.963,0,0
140683.05,157.239,-508.119,0,0
140943.375,157.703,-506.295,0,0
141203.7,158.146,-504.501,0,0
141464.025,158.575,-502.866,0,0
141724.35,158.837,-501.207,0,0
141984.675,159.105,-499.596,0,0
142245.0,159.204,-498.06,0,0
142505.325,159.11,-496.514,0,0
142765.65,158.952,-494.664,0,0
143025.975,158.645,-492.671,0,0
143286.3,158.573,-490.603,0,0
143546.625,158.428,-488.314,0,0
143806.95,158.472,-485.953,0,0
144067.275,158.554,-483.639,0,0
144327.6,158.775,-481.309,0,0
144587.925,159.081,-478.865,0,0
144848.25,159.468,-476.509,0,0
145108.575,159.917,-474.189,0,0
145368.9,160.428,-471.92,0,0
145629.225,161.044,-469.8,0,0
145889.55,161.617,-467.769,0,0
146149.875,162.188,-465.789,0,0
146410.2,162.605,-463.911,0,0
146670.525,162.988,-462.001,0,0
146930.85,163.256,-460.083,0,0
147191.175,163.554,-458.325,0,0
147451.5,163.583,-456.562,0,0
147711.825,163.514,-454.643,0,0
147972.15,163.22,-452.592,0,0
148232.475,163.021,-450.334,0,0
148492.8,162.842,-447.827,0,0
148753.125,162.669,-445.288,0,0
149013.45,162.652,-442.587,0,0
149273.775,162.67,-439.821,0,0
149534.1,162.819,-436.958,0,0
149794.425,163.073,-434.024,0,0
150054.75,163.478,-431.104,0,0
150315.075,163.974,-428.156,0,0
150575.4,164.55,-425.299,0,0
150835.725,165.117,-422.553,0,0
151096.05,165.734,-419.634,0,0
151356.375,166.332,-416.596,0,0
151616.7,167.093,-413.573,0,0
151877.025,168.022,-410.391,0,0
152137.35,169.259,-407.298,0,0
152397.675,170.549,-404.342,0,0
152658.0,172.059,-401.587,0,0
152918.325,173.561,-398.96,0,0
153178.65,175.142,-396.566,0,0
153438.975,176.557,-394.374,0,0
153699.3,177.752,-392.197,0,0
153959.625,178.902,-390.045,0,0
154219.95,179.943,-387.882,0,0
154480,180.908,-385.631,0,0
154741,181.762,-383.249,0,0
155001,182.772,-380.647,0,0
155261,183.872,-378.028,0,0
155522,185.208,-375.384,0,0
155782,186.58,-372.794,0,0
156042,188.088,-370.319,0,0
156303,189.761,-367.907,0,0
156563,191.419,-365.634,0,0
156823,193.197,-363.574,0,0
157084,194.852,-361.856,0,0
157344,196.354,-360.253,0,0
157604,197.552,-358.67,0,0
157864,198.582,-357.037,0,0
158125,199.492,-355.181,0,0
158385,200.385,-353.305,0,0
158645,201.212,-351.313,0,0
158906,202.046,-349.222,0,0
159166,202.994,-347.073,0,0
159426,203.909,-344.972,0,0
159687,204.826,-342.849,0,0
159947,205.68,-340.639,0,0
160207,206.605,-338.398,0,0
160468,207.525,-336.072,0,0
160728,208.499,-333.758,0,0
160988,209.425,-331.506,0,0
161249,210.327,-329.153,0,0
161509,211.242,-326.762,0,0
161769,212.154,-324.332,0,0
162030,213.126,-321.871,0,0
162290,214.116,-319.368,0,0
162550,215.072,-316.873,0,0
162811,216.072,-314.268,0,0
163071,217.123,-311.637,0,0
163331,218.224,-309.011,0,0
163592,219.393,-306.434,0,0
163852,220.543,-303.863,0,0
164112,221.561,-301.282,0,0
164373,222.58,-298.68,0,0
164633,223.548,-295.974,0,0
164893,224.486,-293.153,0,0
165154,225.487,-290.236,0,0
165414,226.532,-287.243,0,0
165674,227.65,-284.143,0,0
165935,228.82,-280.994,0,0
166195,230.049,-277.809,0,0
166455,231.39,-274.592,0,0
166716,232.77,-271.364,0,0
166976,234.136,-268.084,0,0
167236,235.56,-264.779,0,0
167497,236.989,-261.357,0,0
167757,238.498,-257.926,0,0
168017,240.123,-254.339,0,0
168277,241.844,-250.742,0,0
168538,243.674,-247.143,0,0
168798,245.589,-243.541,0,0
169058,247.543,-239.937,0,0
169319,249.534,-236.344,0,0
169579,251.59,-232.72,0,0
169839,253.675,-229.113,0,0
170100,255.779,-225.433,0,0
170360.075,257.876,-221.71,0,0
170620.4,260.086,-217.904,0,0
170880.725,262.341,-214.023,0,0
171141.05,264.659,-210.101,0,0
171401.375,267.039,-206.151,0,0
171661.7,269.51,-202.088,0,0
171922.025,272.074,-197.968,0,0
172182.35,274.682,-193.769,0,0
172442.675,277.411,-189.507,0,0
172703.0,280.252,-185.183,0,0
172963.325,283.182,-180.792,0,0
173223.65,286.251,-176.319,0,0
173483.975,289.404,-171.817,0,0
173744.3,292.677,-167.19,0,0
174004.625,296.154,-162.466,0,0
174264.95,299.751,-157.682,0,0
174525.275,303.586,-152.868,0,0
174785.6,307.551,-147.962,0,0
175045.925,311.765,-143.009,0,0
175306.25,316.144,-138.024,0,0
175566.575,320.778,-133.06,0,0
175826.9,325.607,-128.097,0,0
176087.225,330.636,-123.093,0,0
176347.55,335.907,-118.173,0,0
176607.875,341.423,-113.255,0,0
176868.2,347.143,-108.314,0,0
177128.525,353.113,-103.487,0,0
177388.85,359.322,-98.7168,0,0
177649.175,365.744,-94.0475,0,0
177909.5,372.385,-89.4889,0,0
178169.825,379.234,-85.008,0,0
178430.15,386.359,-80.5832,0,0
178690.475,393.667,-76.3227,0,0
178950.8,401.25,-72.1641,0,0
179211.125,409.126,-68.2703,0,0
179471.45,417.146,-64.5951,0,0
179731.775,425.317,-61.1745,0,0
179992.1,433.577,-58.0329,0,0
180252.425,441.863,-55.1361,0,0
180512.75,450.174,-52.3448,0,0
180773.075,458.506,-49.6382,0,0
181033.4,466.814,-46.987,0,0
181293.725,475.266,-44.368,0,0
181554.05,483.84,-41.7847,0,0
181814.375,492.51,-39.2799,0,0
182074.7,501.492,-36.7737,0,0
182335.025,510.673,-34.5347,0,0
182595.35,519.95,-32.4133,0,0
182855.675,529.379,-30.4893,0,0
183116.0,538.836,-28.6512,0,0
183376.325,548.334,-26.9295,0,0
183636.65,557.932,-25.2125,0,0
183896.975,567.648,-23.5505,0,0
184157.3,577.462,-21.8564,0,0
184417.625,587.463,-20.1552,0,0
184677.95,597.715,-18.4294,0,0
184938.275,608.297,-16.6294,0,0
185198.6,619.202,-14.8272,0,0
185458.925,630.517,-13.0064,0,0
185719.25,642.361,-11.2412,0,0
185979.575,654.69,-9.64526,0,0
186239.9,667.621,-8.2439,0,0
186500,681.131,-7.2059,0,0
186761,695.137,-6.51203,0,0
187021,709.635,-6.30835,0,0
187281,724.581,-6.55023,0,0
187542,739.964,-7.32318,0,0
187802,755.746,-8.61411,0,0
188062,771.96,-10.4804,0,0
188322,788.567,-12.9328,0,0
188583,805.61,-16.0793,0,0
188843,823.011,-19.9167,0,0
189103,840.739,-24.5557,0,0
189364,858.832,-29.9798,0,0
189624,877.257,-36.3282,0,0
189884,895.915,-43.7361,0,0
190145,914.589,-52.0518,0,0
190405,933.501,-61.5534,0,0
190665,952.338,-72.2174,0,0
190926,970.915,-83.9712,0,0
191186,989.366,-96.9156,0,0
191446,1007.43,-110.968,0,0
191707,1025.02,-126.09,0,0
191967,1042.06,-142.244,0,0
192227,1058.47,-159.367,0,0
192488,1074.25,-177.421,0,0
192748,1089.39,-196.503,0,0
193008,1103.83,-216.278,0,0
193269,1117.52,-236.941,0,0
193529,1130.4,-258.462,0,0
193789,1142.56,-280.708,0,0
194050,1153.66,-304.007,0,0
194310,1163.82,-327.821,0,0
194570,1173.06,-352.578,0,0
194831,1180.95,-378.117,0,0
195091,1187.83,-404.006,0,0
195351,1193.1,-430.781,0,0
195612,1197.1,-457.726,0,0
195872,1199.74,-485.008,0,0
196132,1200.8,-512.449,0,0
196393,1200.32,-540.057,0,0
196653,1198.39,-567.559,0,0
196913,1195.21,-594.972,0,0
197174,1190.28,-621.953,0,0
197434,1184.1,-648.545,0,0
197694,1176.51,-674.662,0,0
197955,1167.38,-700.221,0,0
198215,1157.25,-724.945,0,0
198475,1146.04,-748.771,0,0
198735,1133.7,-771.449,0,0
198996,1120.4,-793.388,0,0
199256,1106.62,-814.482,0,0
199516,1091.81,-834.561,0,0
199777,1076.5,-853.662,0,0
200037,1060.59,-872.342,0,0
200297,1044.18,-889.503,0,0
200558,1027.12,-906.134,0,0
200818,1009.43,-921.784,0,0
201078,991.217,-936.369,0,0
201339,972.952,-949.441,0,0
201599,954.034,-961.639,0,0
201859,935.197,-972.798,0,0
202120,916.15,-982.808,0,0
202380.025,897.077,-991.817,0,0
202640.35,878.454,-999.869,0,0
202900.675,859.775,-1006.96,0,0
203161.0,841.168,-1013.01,0,0
203421.325,823.031,-1018.32,0,0
203681.65,805.549,-1022.81,0,0
203941.975,787.841,-1026.63,0,0
204202.3,770.777,-1029.83,0,0
204462.625,754.016,-1032.4,0,0
204722.95,737.498,-1034.35,0,0
204983.275,721.406,-1035.84,0,0
205243.6,705.523,-1037.1,0,0
205503.925,690.234,-1037.65,0,0
205764.25,675.089,-1037.84,0,0
206024.575,660.653,-1037.74,0,0
206284.9,646.072,-1036.95,0,0
206545.225,632.118,-1036.03,0,0
206805.55,618.504,-1034.64,0,0
207065.875,605.348,-1033.17,0,0
207326.2,592.194,-1031.27,0,0
207586.525,579.822,-1029.09,0,0
207846.85,567.458,-1026.65,0,0
208107.175,555.604,-1024.23,0,0
208367.5,544.021,-1021.51,0,0
208627.825,532.643,-1018.48,0,0
208888.15,521.904,-1015.38,0,0
209148.475,511.299,-1012.14,0,0
209408.8,500.989,-1008.7,0,0
209669.125,490.983,-1005.27,0,0
209929.45,481.097,-1001.79,0,0
210189.775,471.655,-998.272,0,0
210450.1,462.32,-994.421,0,0
210710.425,453.377,-990.588,0,0
210970.75,444.329,-986.855,0,0
211231.075,435.816,-982.843,0,0
211491.4,427.205,-978.772,0,0
211751.725,418.804,-974.339,0,0
212012.05,410.954,-970.082,0,0
212272.375,403.151,-965.547,0,0
212532.7,395.703,-961.178,0,0
212793.025,388.572,-956.57,0,0
213053.35,381.61,-952.055,0,0
213313.675,374.792,-947.555,0,0
213574.0,368.113,-943.035,0,0
213834.325,361.855,-938.449,0,0
214094.65,355.307,-933.963,0,0
214354.975,349.17,-929.207,0,0
214615.3,343.055,-924.614,0,0
214875.625,337.338,-919.95,0,0
215135.95,331.68,-915.084,0,0
215396.275,326.404,-910.248,0,0
215656.6,321.268,-905.629,0,0
215916.925,316.272,-900.906,0,0
216177.25,311.566,-896.134,0,0
216437.575,306.817,-891.451,0,0
216697.9,302.214,-886.882,0,0
216958.225,297.927,-882.146,0,0
217218.55,293.618,-877.51,0,0
217478.875,289.442,-873.015,0,0
217739.2,285.358,-868.456,0,0
217999.525,281.446,-863.921,0,0
218259.85,277.663,-859.382,0,0
218520,273.881,-854.895,0,0
218780,270.291,-850.35,0,0
219041,266.786,-845.795,0,0
219301,263.505,-841.276,0,0
219561,260.204,-836.841,0,0
219822,256.904,-832.485,0,0
220082,254.075,-828.04,0,0
220342,251.151,-823.647,0,0
220603,248.234,-819.155,0,0
220863,245.572,-814.757,0,0
221123,242.834,-810.45,0,0
221384,240.34,-806.072,0,0
221644,237.812,-801.788,0,0
221904,235.418,-797.418,0,0
222165,233.162,-793.153,0,0
222425,230.966,-788.825,0,0
222685,228.887,-784.516,0,0
222946,226.872,-780.371,0,0
223206,225.019,-776.083,0,0
223466,223.169,-771.836,0,0
223727,221.444,-767.607,0,0
223987,219.941,-763.433,0,0
224247,218.544,-759.192,0,0
224508,217.152,-755.141,0,0
224768,215.992,-750.986,0,0
225028,214.722,-746.978,0,0
225289,213.653,-742.994,0,0
225549,212.747,-739.112,0,0
225809,211.932,-735.328,0,0
226070,211.149,-731.631,0,0
226330,210.349,-727.87,0,0
226590,209.73,-724.267,0,0
226851,209.086,-720.793,0,0
227111,208.445,-717.346,0,0
227371,207.869,-714.058,0,0
227632,207.229,-710.627,0,0
227892,206.678,-707.316,0,0
228152,206.12,-704.007,0,0
228413,205.603,-700.754,0,0
228673,205.188,-697.46,0,0
228933,204.666,-694.186,0,0
229193,204.269,-690.945,0,0
229454,203.919,-687.704,0,0
229714,203.581,-684.371,0,0
229974,203.417,-681.125,0,0
230235,203.202,-677.93,0,0
230495,203.016,-674.671,0,0
230755,202.959,-671.502,0,0
231016,202.962,-668.328,0,0
231276,203.07,-665.156,0,0
231536,203.203,-662.005,0,0
231797,203.415,-658.902,0,0
232057,203.705,-655.741,0,0
232317,204.039,-652.666,0,0
232578,204.488,-649.647,0,0
232838,205.007,-646.644,0,0
233098,205.587,-643.636,0,0
233359,206.242,-640.692,0,0
233619,206.956,-637.78,0,0
233879,207.799,-634.909,0,0
234140,208.719,-632.155,0,0
234400,209.676,-629.369,0,0
234660.3,210.712,-626.648,0,0
234920.625,211.83,-624.025,0,0
235180.95,213.067,-621.419,0,0
235441.275,214.348,-618.953,0,0
235701.6,215.799,-616.529,0,0
235961.925,217.182,-614.166,0,0
236222.25,218.662,-611.901,0,0
236482.575,220.24,-609.72,0,0
236742.9,221.869,-607.634,0,0
237003.225,223.52,-605.619,0,0
237263.55,225.252,-603.655,0,0
237523.875,227.07,-601.836,0,0
237784.2,228.923,-600.114,0,0
238044.525,230.775,-598.393,0,0
238304.85,232.749,-596.932,0,0
238565.175,234.736,-595.465,0,0
238825.5,236.755,-594.225,0,0
239085.825,238.877,-592.974,0,0
239346.15,240.89,-591.891,0,0
239606.475,242.969,-590.891,0,0
239866.8,245.087,-590.083,0,0
240127.125,247.26,-589.323,0,0
240387.45,249.382,-588.701,0,0
240647.775,251.539,-588.264,0,0
240908.1,253.585,-587.882,0,0
241168.425,255.73,-587.564,0,0
241428.75,257.852,-587.47,0,0
241689.075,259.948,-587.318,0,0
241949.4,261.955,-587.503,0,0
242209.725,263.927,-587.591,0,0
242470.05,265.901,-587.87,0,0
242730.375,267.802,-588.168,0,0
242990.7,269.777,-588.655,0,0
243251.025,271.691,-589.131,0,0
243511.35,273.645,-589.759,0,0
243771.675,275.584,-590.505,0,0
244032.0,277.596,-591.372,0,0
244292.325,279.512,-592.63,0,0
244552.65,281.397,-593.971,0,0
244812.975,283.178,-595.577,0,0
245073.3,284.64,-597.31,0,0
245333.625,285.924,-599.161,0,0
245593.95,286.897,-601.18,0,0
245854.275,287.742,-603.133,0,0
246114.6,288.396,-605.055,0,0
246374.925,288.888,-606.976,0,0
246635.25,289.261,-608.901,0,0
246895.575,289.417,-610.696,0,0
247155.9,289.644,-612.471,0,0
247416.225,289.673,-614.146,0,0
247676.55,289.656,-615.873,0,0
247936.875,289.562,-617.531,0,0
248197.2,289.372,-619.22,0,0
248457.525,289.042,-620.816,0,0
248717.85,288.809,-622.27,0,0
248978.175,288.46,-623.628,0,0
249238.5,288.09,-625.07,0,0
249498.825,287.768,-626.261,0,0
249759.15,287.547,-627.514,0,0
250019.475,287.485,-628.705,0,0
250279.8,287.434,-630.072,0,0
250540,287.517,-631.626,0,0
250800,287.452,-633.279,0,0
251061,287.433,-635.138,0,0
251321,287.236,-637.136,0,0
251581,286.906,-639.122,0,0
251842,286.465,-641.218,0,0
252102,285.866,-643.286,0,0
252362,285.179,-645.448,0,0
252623,284.483,-647.715,0,0
252883,283.465,-650.013,0,0
253143,282.401,-652.364,0,0
253404,281.14,-654.763,0,0
253664,279.683,-657.177,0,0
253924,278.016,-659.565,0,0
254185,276.175,-661.857,0,0
254445,274.071,-664.046,0,0
254705,271.803,-666.236,0,0
254966,269.437,-668.277,0,0
255226,266.936,-670.079,0,0
255486,264.249,-671.688,0,0
255747,261.455,-673.213,0,0
256007,258.637,-674.642,0,0
256267,255.723,-675.904,0,0
256528,252.819,-676.956,0,0
256788,249.877,-677.804,0,0
257048,246.935,-678.604,0,0
257309,243.961,-679.222,0,0
257569,241.017,-679.731,0,0
257829,238.096,-680.084,0,0
258090,235.186,-680.39,0,0
258350,232.255,-680.552,0,0
258610,229.403,-680.572,0,0
258871,226.637,-680.576,0,0
259131,223.845,-680.478,0,0
259391,221.135,-680.359,0,0
259651,218.39,-680.089,0,0
259912,215.649,-679.732,0,0
260172,212.988,-679.396,0,0
260432,210.382,-678.869,0,0
260693,207.842,-678.378,0,0
260953,205.225,-677.789,0,0
261213,202.819,-677.138,0,0
261474,200.278,-676.448,0,0
261734,197.856,-675.693,0,0
261994,195.507,-674.876,0,0
262255,193.124,-674.01,0,0
262515,190.847,-673.131,0,0
262775,188.634,-672.185,0,0
263036,186.512,-671.193,0,0
263296,184.34,-670.18,0,0
263556,182.196,-669.122,0,0
263817,180.207,-668.093,0,0
264077,178.193,-667.026,0,0
264337,176.151,-665.938,0,0
264598,174.346,-664.811,0,0
264858,172.471,-663.754,0,0
265118,170.666,-662.436,0,0
265379,168.857,-661.36,0,0
265639,167.102,-660.195,0,0
265899,165.412,-658.979,0,0
266160,163.733,-657.814,0,0
266420,162.135,-656.682,0,0
266680.25,160.448,-655.54,0,0
266940.575,158.88,-654.269,0,0
267200.9,157.298,-653.077,0,0
267461.225,155.807,-651.876,0,0
267721.55,154.255,-650.698,0,0
267981.875,152.794,-649.513,0,0
268242.2,151.381,-648.282,0,0
268502.525,149.894,-647.098,0,0
268762.85,148.483,-645.866,0,0
269023.175,147.035,-644.636,0,0
269283.5,145.735,-643.378,0,0
269543.825,144.345,-642.145,0,0
269804.15,143.053,-640.877,0,0
270064.475,141.679,-639.682,0,0
270324.8,140.417,-638.363,0,0
270585.125,139.165,-637.215,0,0
270845.45,137.936,-635.905,0,0
271105.775,136.709,-634.723,0,0
271366.1,135.461,-633.476,0,0
271626.425,134.342,-632.222,0,0
271886.75,133.094,-630.913,0,0
272147.075,131.988,-629.709,0,0
272407.4,130.798,-628.502,0,0
272667.725,129.762,-627.157,0,0
272928.05,128.662,-625.908,0,0
273188.375,127.584,-624.63,0,0
273448.7,126.517,-623.362,0,0
273709.025,125.488,-622.111,0,0
273969.35,124.44,-620.861,0,0
274229.675,123.436,-619.591,0,0
274490.0,122.451,-618.324,0,0
274750.325,121.439,-617.025,0,0
275010.65,120.467,-615.765,0,0
275270.975,119.573,-614.581,0,0
275531.3,118.624,-613.288,0,0
275791.625,117.698,-612.012,0,0
276051.95,116.807,-610.746,0,0
276312.275,115.913,-609.519,0,0
276572.6,115.024,-608.203,0,0
276832.925,114.179,-606.974,0,0
277093.25,113.324,-605.676,0,0
277353.575,112.449,-604.395,0,0
277613.9,111.614,-603.114,0,0
277874.225,110.799,-601.814,0,0
278134.55,110.032,-600.529,0,0
278394.875,109.202,-599.227,0,0
278655.2,108.453,-597.892,0,0
278915.525,107.712,-596.551,0,0
279175.85,107.01,-595.207,0,0
279436.175,106.327,-593.878,0,0
279696.5,105.72,-592.5,0,0
279956.825,105.108,-591.144,0,0
280217.15,104.571,-589.746,0,0
280477.475,104.104,-588.487,0,0
280737.8,103.654,-587.159,0,0
280998.125,103.242,-585.912,0,0
281258.45,102.853,-584.763,0,0
281518.775,102.447,-583.632,0,0
281779.1,102.059,-582.512,0,0
282039.425,101.654,-581.468,0,0
282299.75,101.207,-580.421,0,0
282560,100.751,-579.357,0,0
282820,100.229,-578.327,0,0
283081,99.7616,-577.255,0,0
283341,99.356,-576.185,0,0
283601,98.7904,-575.196,0,0
283862,98.3179,-574.032,0,0
284122,97.9452,-572.957,0,0
284382,97.4691,-571.935,0,0
284643,97.0623,-570.867,0,0
284903,96.6404,-569.713,0,0
285163,96.3473,-568.749,0,0
285424,96.0717,-567.648,0,0
285684,95.7176,-566.721,0,0
285944,95.3372,-565.769,0,0
286205,95.063,-564.82,0,0
286465,94.8043,-563.869,0,0
286725,94.5154,-563.041,0,0
286986,94.139,-562.277,0,0
287246,93.7955,-561.42,0,0
287506,93.424,-560.654,0,0
287767,92.8981,-559.855,0,0
288027,92.4618,-559.03,0,0
288287,91.9278,-558.234,0,0
288548,91.479,-557.369,0,0
288808,91.0259,-556.515,0,0
289068,90.5146,-555.639,0,0
289329,90.0456,-554.728,0,0
289589,89.5295,-553.896,0,0
289849,89.1528,-552.948,0,0
290109,88.6817,-552.094,0,0
290370,88.2589,-551.244,0,0
290630,87.8825,-550.312,0,0
290890,87.4425,-549.434,0,0
291151,87.0469,-548.516,0,0
291411,86.7066,-547.677,0,0
291671,86.2378,-546.819,0,0
291932,85.7873,-545.998,0,0
292192,85.4138,-545.084,0,0
292452,84.9962,-544.336,0,0
292713,84.6005,-543.468,0,0
292973,84.1558,-542.629,0,0
293233,83.6267,-541.797,0,0
293494,83.2413,-541.026,0,0
293754,82.7512,-540.201,0,0
294014,82.2522,-539.376,0,0
294275,81.7968,-538.588,0,0
294535,81.2797,-537.694,0,0
294795,80.7621,-536.802,0,0
295056,80.2486,-535.864,0,0
295316,79.7448,-534.989,0,0
295576,79.2696,-534.036,0,0
295837,78.8225,-533.099,0,0
296097,78.338,-532.114,0,0
296357,77.8479,-531.076,0,0
296618,77.4246,-530.121,0,0
296878,77.09,-529.032,0,0
297138,76.6982,-528.026,0,0
297399,76.3928,-526.992,0,0
297659,76.0599,-525.962,0,0
297919,75.8174,-524.946,0,0
298180,75.6375,-523.935,0,0
298440,75.4379,-522.982,0,0
298700.2,75.2508,-522.043,0,0
298960.525,75.1326,-521.23,0,0
299220.85,74.9484,-520.434,0,0
299481.175,74.7212,-519.621,0,0
299741.5,74.52,-518.805,0,0
300001.825,74.299,-518.036,0,0
300262.15,74.0335,-517.226,0,0
300522.475,73.7547,-516.443,0,0
300782.8,73.4833,-515.683,0,0
301043.125,73.1832,-514.887,0,0
301303.45,72.8174,-514.056,0,0
301563.775,72.5603,-513.237,0,0
301824.1,72.2633,-512.471,0,0
302084.425,71.9882,-511.582,0,0
302344.75,71.723,-510.777,0,0
302605.075,71.4278,-509.925,0,0
302865.4,71.1127,-509.145,0,0
303125.725,70.8897,-508.304,0,0
303386.05,70.6148,-507.482,0,0
303646.375,70.341,-506.587,0,0
303906.7,70.1084,-505.796,0,0
304167.025,69.9493,-505.001,0,0
304427.35,69.6738,-504.135,0,0
304687.675,69.5063,-503.301,0,0
304948.0,69.2805,-502.543,0,0
305208.325,69.0799,-501.745,0,0
305468.65,68.901,-500.989,0,0
305728.975,68.7373,-500.218,0,0
305989.3,68.5241,-499.447,0,0
306249.625,68.2823,-498.677,0,0
306509.95,68.0791,-498.023,0,0
306770.275,67.9003,-497.285,0,0
307030.6,67.6681,-496.522,0,0
307290.925,67.482,-495.786,0,0
307551.25,67.1766,-495.11,0,0
307811.575,66.9152,-494.353,0,0
308071.9,66.7817,-493.614,0,0
308332.225,66.4453,-492.77,0,0
308592.55,66.2687,-492.11,0,0
308852.875,66.0203,-491.362,0,0
309113.2,65.8059,-490.641,0,0
309373.525,65.573,-489.868,0,0
309633.85,65.3817,-489.074,0,0
309894.175,65.1847,-488.345,0,0
310154.5,64.9887,-487.638,0,0
310414.825,64.7687,-486.911,0,0
310675.15,64.5325,-486.117,0,0
310935.475,64.355,-485.421,0,0
311195.8,64.1508,-484.727,0,0
311456.125,63.9202,-483.981,0,0
311716.45,63.7257,-483.312,0,0
311976.775,63.5368,-482.553,0,0
312237.1,63.3297,-481.881,0,0
312497.425,63.086,-481.135,0,0
312757.75,62.9095,-480.41,0,0
313018.075,62.6854,-479.688,0,0
313278.4,62.4342,-478.99,0,0
313538.725,62.2575,-478.261,0,0
313799.05,62.0777,-477.515,0,0
314059.375,61.8599,-476.851,0,0
314319.7,61.649,-476.137,0,0
314580,61.4915,-475.425,0,0
314840,61.2654,-474.683,0,0
315101,61.1176,-473.977,0,0
315361,60.92,-473.265,0,0
315621,60.7067,-472.526,0,0
315882,60.5513,-471.819,0,0
316142,60.3644,-471.132,0,0
316402,60.1837,-470.428,0,0
316663,60.0283,-469.716,0,0
316923,59.7921,-469.038,0,0
317183,59.6134,-468.362,0,0
317444,59.4701,-467.623,0,0
317704,59.2774,-466.928,0,0
317964,59.1016,-466.232,0,0
318225,58.9127,-465.496,0,0
318485,58.7714,-464.866,0,0
318745,58.5583,-464.119,0,0
319006,58.4334,-463.489,0,0
319266,58.2395,-462.778,0,0
319526,58.0312,-462.033,0,0
319787,57.8966,-461.348,0,0
320047,57.7837,-460.664,0,0
320307,57.5973,-459.944,0,0
320567,57.455,-459.218,0,0
320828,57.293,-458.511,0,0
321088,57.1692,-457.923,0,0
321348,56.9892,-457.181,0,0
321609,56.8776,-456.496,0,0
321869,56.7538,-455.839,0,0
322129,56.5907,-455.116,0,0
322390,56.459,-454.498,0,0
322650,56.3451,-453.787,0,0
322910,56.1846,-453.174,0,0
323171,56.0749,-452.516,0,0
323431,55.9507,-451.814,0,0
323691,55.7817,-451.197,0,0
323952,55.6819,-450.57,0,0
324212,55.5147,-449.864,0,0
324472,55.4012,-449.271,0,0
324733,55.2433,-448.568,0,0
324993,55.1142,-447.947,0,0
325253,54.9479,-447.301,0,0
325514,54.8049,-446.643,0,0
325774,54.6461,-445.97,0,0
326034,54.5048,-445.343,0,0
326295,54.351,-444.691,0,0
326555,54.2337,-444.026,0,0
326815,54.0956,-443.364,0,0
327076,53.9427,-442.748,0,0
327336,53.8231,-442.047,0,0
327596,53.6429,-441.383,0,0
327857,53.5498,-440.733,0,0
328117,53.3883,-440.042,0,0
328377,53.26,-439.423,0,0
328638,53.1549,-438.765,0,0
328898,53.0038,-438.092,0,0
329158,52.8564,-437.413,0,0
329419,52.7492,-436.759,0,0
329679,52.6635,-436.078,0,0
329939,52.5713,-435.379,0,0
330200,52.4967,-434.759,0,0
330460,52.3829,-434.061,0,0
330720.15,52.2266,-433.445,0,0
330980.475,52.1791,-432.801,0,0
331240.8,52.0984,-432.133,0,0
331501.125,52.0116,-431.467,0,0
331761.45,51.9495,-430.803,0,0
332021.775,51.8517,-430.193,0,0
332282.1,51.7939,-429.538,0,0
332542.425,51.6789,-428.93,0,0
332802.75,51.6185,-428.297,0,0
333063.075,51.5461,-427.621,0,0
333323.4,51.4819,-427.018,0,0
333583.725,51.3467,-426.368,0,0
333844.05,51.326,-425.779,0,0
334104.375,51.1985,-425.118,0,0
334364.7,51.1354,-424.529,0,0
334625.025,51.0836,-423.935,0,0
334885.35,51.0304,-423.251,0,0
335145.675,50.9321,-422.665,0,0
335406.0,50.8454,-422.057,0,0
335666.325,50.8181,-421.409,0,0
335926.65,50.7687,-420.753,0,0
336186.975,50.6954,-420.182,0,0
336447.3,50.6024,-419.581,0,0
336707.625,50.5298,-418.961,0,0
336967.95,50.4655,-418.355,0,0
337228.275,50.4108,-417.79,0,0
337488.6,50.3842,-417.115,0,0
337748.925,50.3095,-416.595,0,0
338009.25,50.2243,-415.958,0,0
338269.575,50.1395,-415.325,0,0
338529.9,50.1407,-414.702,0,0
338790.225,50.066,-414.135,0,0
339050.55,49.9909,-413.548,0,0
339310.875,49.9233,-412.929,0,0
339571.2,49.8956,-412.342,0,0
339831.525,49.8448,-411.717,0,0
340091.85,49.7765,-411.119,0,0
340352.175,49.7175,-410.47,0,0
340612.5,49.6859,-409.899,0,0
340872.825,49.6812,-409.254,0,0
341133.15,49.5526,-408.65,0,0
341393.475,49.5914,-408.024,0,0
341653.8,49.5938,-407.441,0,0
341914.125,49.5151,-406.835,0,0
342174.45,49.5302,-406.228,0,0
342434.775,49.5226,-405.653,0,0
342695.1,49.5178,-405.027,0,0
342955.425,49.5194,-404.494,0,0
343215.75,49.5479,-403.875,0,0
343476.075,49.5835,-403.364,0,0
343736.4,49.5553,-402.796,0,0
343996.725,49.5394,-402.278,0,0
344257.05,49.513,-401.752,0,0
344517.375,49.5409,-401.195,0,0
344777.7,49.4649,-400.672,0,0
345038.025,49.4405,-400.121,0,0
345298.35,49.4163,-399.55,0,0
345558.675,49.3454,-398.994,0,0
345819.0,49.3345,-398.417,0,0
346079.325,49.2948,-397.855,0,0
346339.65,49.2732,-397.315,0,0
346599.975,49.2729,-396.73,0,0
346860,49.2605,-396.171,0,0
347121,49.26,-395.569,0,0
347381,49.2374,-395.055,0,0
347641,49.2571,-394.473,0,0
347902,49.2985,-393.927,0,0
348162,49.2535,-393.369,0,0
348422,49.282,-392.791,0,0
348683,49.2854,-392.228,0,0
348943,49.3221,-391.71,0,0
349203,49.3346,-391.144,0,0
349464,49.3743,-390.616,0,0
349724,49.4366,-390.1,0,0
349984,49.4142,-389.538,0,0
350245,49.4613,-389.064,0,0
350505,49.5039,-388.571,0,0
350765,49.5078,-388.051,0,0
351025,49.5735,-387.578,0,0
351286,49.5831,-387.068,0,0
351546,49.6273,-386.547,0,0
351806,49.6223,-386.071,0,0
352067,49.6679,-385.575,0,0
352327,49.6666,-385.129,0,0
352587,49.7236,-384.632,0,0
352848,49.7325,-384.164,0,0
353108,49.7574,-383.715,0,0
353368,49.7837,-383.241,0,0
353629,49.7948,-382.788,0,0
353889,49.7827,-382.352,0,0
354149,49.8213,-381.903,0,0
354410,49.844,-381.445,0,0
354670,49.8212,-381.007,0,0
354930,49.8154,-380.585,0,0
355191,49.8224,-380.133,0,0
355451,49.7969,-379.691,0,0
355711,49.7363,-379.287,0,0
355972,49.7352,-378.809,0,0
356232,49.6898,-378.406,0,0
356492,49.6816,-377.966,0,0
356753,49.6428,-377.503,0,0
357013,49.5737,-377.047,0,0
357273,49.5358,-376.567,0,0
357534,49.484,-376.119,0,0
357794,49.4309,-375.711,0,0
358054,49.397,-375.225,0,0
358315,49.3385,-374.753,0,0
358575,49.2936,-374.307,0,0
358835,49.265,-373.802,0,0
359096,49.245,-373.381,0,0
359356,49.2317,-372.917,0,0
359616,49.1629,-372.454,0,0
359877,49.1521,-371.953,0,0
360137,49.045,-371.514,0,0
360397,49.0038,-371.087,0,0
360658,48.9903,-370.633,0,0
360918,48.896,-370.119,0,0
361178,48.8577,-369.707,0,0
361438,48.8462,-369.184,0,0
361699,48.7995,-368.717,0,0
361959,48.7122,-368.233,0,0
362219,48.658,-367.762,0,0
362480,48.6572,-367.231,0,0
362740.1,48.5907,-366.774,0,0
363000.425,48.5167,-366.271,0,0
363260.75,48.5161,-365.787,0,0
363521.075,48.4785,-365.33,0,0
363781.4,48.4456,-364.823,0,0
364041.725,48.3821,-364.356,0,0
364302.05,48.4129,-363.836,0,0
364562.375,48.3493,-363.412,0,0
364822.7,48.3837,-362.857,0,0
365083.025,48.3313,-362.389,0,0
365343.35,48.2849,-361.908,0,0
365603.675,48.2694,-361.422,0,0
365864.0,48.2654,-360.927,0,0
366124.325,48.2419,-360.458,0,0
366384.65,48.2555,-359.96,0,0
366644.975,48.2745,-359.467,0,0
366905.3,48.2312,-358.98,0,0
367165.625,48.2542,-358.536,0,0
367425.95,48.2328,-358.06,0,0
367686.275,48.2248,-357.606,0,0
367946.6,48.2123,-357.13,0,0
368206.925,48.2114,-356.693,0,0
368467.25,48.2006,-356.229,0,0
368727.575,48.1944,-355.751,0,0
368987.9,48.164,-355.293,0,0
369248.225,48.2035,-354.815,0,0
369508.55,48.1398,-354.375,0,0
369768.875,48.1313,-353.883,0,0
370029.2,48.1132,-353.397,0,0
370289.525,48.0951,-352.927,0,0
370549.85,48.1366,-352.455,0,0
370810.175,48.1494,-351.995,0,0
371070.5,48.1421,-351.539,0,0
371330.825,48.1339,-351.034,0,0
371591.15,48.2016,-350.602,0,0
371851.475,48.1882,-350.129,0,0
372111.8,48.2353,-349.695,0,0
372372.125,48.2438,-349.267,0,0
372632.45,48.2842,-348.799,0,0
372892.775,48.2987,-348.4,0,0
373153.1,48.2953,-347.971,0,0
373413.425,48.3592,-347.53,0,0
373673.75,48.3814,-347.166,0,0
373934.075,48.3562,-346.764,0,0
374194.4,48.335,-346.38,0,0
374454.725,48.3031,-346.003,0,0
374715.05,48.2528,-345.626,0,0
374975.375,48.2185,-345.232,0,0
375235.7,48.1522,-344.831,0,0
375496.025,48.0912,-344.408,0,0
375756.35,48.0004,-344.019,0,0
376016.675,47.9386,-343.582,0,0
376277.0,47.8564,-343.117,0,0
376537.325,47.8002,-342.671,0,0
376797.65,47.7091,-342.192,0,0
377057.975,47.65,-341.76,0,0
377318.3,47.5714,-341.296,0,0
377578.625,47.5043,-340.829,0,0
377838.95,47.4487,-340.316,0,0
378099.275,47.3673,-339.87,0,0
378359.6,47.3432,-339.388,0,0
378619.925,47.2738,-338.904,0,0
378880,47.227,-338.404,0,0
379141,47.1698,-337.94,0,0
379401,47.1392,-337.439,0,0
379661,47.0968,-336.951,0,0
379922,47.0445,-336.466,0,0
380182,46.9953,-335.945,0,0
380442,46.9666,-335.442,0,0
380703,46.9182,-334.936,0,0
380963,46.8727,-334.401,0,0
381223,46.8701,-333.876,0,0
381483,46.8657,-333.38,0,0
381744,46.8391,-332.832,0,0
382004,46.8345,-332.313,0,0
382264,46.8861,-331.731,0,0
382525,46.9121,-331.25,0,0
382785,46.9822,-330.742,0,0
383045,47.034,-330.246,0,0
383306,47.102,-329.816,0,0
383566,47.182,-329.37,0,0
383826,47.2224,-328.944,0,0
384087,47.2244,-328.555,0,0
384347,47.2087,-328.123,0,0
384607,47.1602,-327.696,0,0
384868,47.1101,-327.243,0,0
385128,47.0776,-326.791,0,0
385388,47.0431,-326.311,0,0
385649,47.0094,-325.834,0,0
385909,47.0123,-325.4,0,0
386169,46.9751,-324.87,0,0
386430,46.9269,-324.394,0,0
386690,46.9325,-323.874,0,0
386950,46.9047,-323.386,0,0
387211,46.8828,-322.909,0,0
387471,46.8773,-322.424,0,0
387731,46.8443,-321.93,0,0
387992,46.844,-321.411,0,0
388252,46.8637,-320.91,0,0
388512,46.8381,-320.438,0,0
388773,46.8329,-319.946,0,0
389033,46.8184,-319.436,0,0
389293,46.8295,-318.906,0,0
389554,46.8435,-318.423,0,0
389814,46.851,-317.943,0,0
390074,46.8249,-317.406,0,0
390335,46.8558,-316.911,0,0
390595,46.8486,-316.384,0,0
390855,46.8623,-315.912,0,0
391116,46.8421,-315.408,0,0
391376,46.8776,-314.884,0,0
391636,46.858,-314.358,0,0
391896,46.8939,-313.885,0,0
392157,46.8903,-313.357,0,0
392417,46.8942,-312.828,0,0
392677,46.9427,-312.311,0,0
392938,46.9479,-311.831,0,0
393198,46.9515,-311.319,0,0
393458,47.0013,-310.779,0,0
393719,46.9865,-310.232,0,0
393979,47.026,-309.749,0,0
394239,47.0474,-309.225,0,0
394500,47.0623,-308.699,0,0
394760.05,47.0877,-308.189,0,0
395020.375,47.1194,-307.66,0,0
395280.7,47.1621,-307.12,0,0
395541.025,47.1848,-306.585,0,0
395801.35,47.1893,-306.079,0,0
396061.675,47.2519,-305.524,0,0
396322.0,47.2943,-305.021,0,0
396582.325,47.3243,-304.472,0,0
396842.65,47.3631,-303.929,0,0
397102.975,47.4061,-303.423,0,0
397363.3,47.4456,-302.899,0,0
397623.625,47.5144,-302.334,0,0
397883.95,47.5191,-301.806,0,0
398144.275,47.5858,-301.261,0,0
398404.6,47.6431,-300.729,0,0
398664.925,47.6816,-300.175,0,0
398925.25,47.7243,-299.648,0,0
399185.575,47.7724,-299.108,0,0
399445.9,47.8369,-298.572,0,0
399706.225,47.9054,-298.029,0,0
399966.55,47.9513,-297.458,0,0
400006.6,47.9942,-297.391,0,0