File: Accelerated corrosion test data/2025-10-14_08-28-47/sample_8.csv
Frequency (Hz),Impedance (ohms),Phase (Radians),Temperature (C),Humidity (%)
10000.0,311.437,-10975.6,0,0
10260.325,303.343,-10700.2,0,0
10520.65,296.202,-10438.7,0,0
10780.975,288.791,-10189.9,0,0
11041.3,281.987,-9952.01,0,0
11301.625,275.782,-9726.74,0,0
11561.95,269.885,-9509.25,0,0
11822.275,264.226,-9302.5,0,0
12082.6,262.116,-9102.7,0,0
12342.925,258.273,-8915.9,0,0
12603.25,253.634,-8734.53,0,0
12863.575,249.958,-8563.91,0,0
13123.9,241.381,-8398.74,0,0
13384.225,235.921,-8236.76,0,0
13644.55,232.546,-8082.16,0,0
13904.875,225.287,-7933.49,0,0
14165.2,220.142,-7788.41,0,0
14425.525,216.624,-7649.62,0,0
14685.8,211.354,-7514.37,0,0
14946.175,208.566,-7385.05,0,0
15206.5,205.116,-7259.4,0,0
15466.825,201.576,-7138.53,0,0
15727.15,198.553,-7021.72,0,0
15987.5,194.856,-6908.76,0,0
16247.8,191.883,-6799.23,0,0
16508.125,189.092,-6692.57,0,0
16768.45,185.788,-6589.95,0,0
17028.775,182.904,-6489.62,0,0
17289.1,179.921,-6392.53,0,0
17549.425,177.419,-6298.25,0,0
17809.75,175.638,-6205.85,0,0
18070.075,173.645,-6118.86,0,0
18330.4,170.257,-6031.25,0,0
18590.725,168.466,-5945.84,0,0
18851.05,169.207,-5862.79,0,0
19111.375,167.772,-5783.1,0,0
19371.7,169.554,-5706.76,0,0
19632.025,166.714,-5634.83,0,0
19892.35,163.195,-5563.88,0,0
20152.675,160.547,-5491.41,0,0
20413.0,160.68,-5421.64,0,0
20673.3,160.883,-5354.87,0,0
20933.65,157.2,-5291.87,0,0
21193.975,153.763,-5227.93,0,0
21454.3,151.533,-5163.75,0,0
21714.625,149.713,-5101.39,0,0
21974.9,149.232,-5041.24,0,0
22235.275,149.08,-4983.58,0,0
22495.6,147.916,-4926.92,0,0
22755.925,146.351,-4873.13,0,0
23016.25,144.074,-4819.2,0,0
23276.6,139.574,-4765.9,0,0
23536.9,138.078,-4712.42,0,0
23797.225,136.207,-4661.8,0,0
24057.55,134.085,-4610.78,0,0
24317.875,132.68,-4562.01,0,0
24578.2,130.227,-4513,0,0
24838.525,129.307,-4465.29,0,0
25098.85,127.699,-4418.92,0,0
25359.175,126.758,-4373.7,0,0
25619.5,125.562,-4328.83,0,0
25879.8,124.414,-4284.27,0,0
26140.1,123.029,-4242.56,0,0
26400.5,121.805,-4200.37,0,0
26660.8,120.466,-4158.95,0,0
26921.1,120.667,-4117.67,0,0
27181.4,120.488,-4078.89,0,0
27441.8,119.642,-4039.77,0,0
27702.1,118.411,-4002.33,0,0
27962.4,116.598,-3964.47,0,0
28222.7,117.542,-3928.32,0,0
28483.1,115.555,-3891.84,0,0
28743.4,116.069,-3856.68,0,0
29003.7,114.601,-3822.52,0,0
29264,114.782,-3788.12,0,0
29524.4,114.028,-3754.85,0,0
29784.7,113.359,-3721.68,0,0
30045,112.791,-3690.17,0,0
30305.3,111.993,-3659.02,0,0
30565.7,110.542,-3628.06,0,0
30826,109.563,-3597.22,0,0
31086.3,108.172,-3567.01,0,0
31346.6,107.432,-3536.35,0,0
31607,106.678,-3507.19,0,0
31867.3,106.146,-3478.03,0,0
32127.6,105.703,-3449.36,0,0
32387.9,105.014,-3420.93,0,0
32648.3,105.086,-3392.88,0,0
32908.6,105.28,-3365.64,0,0
33168.9,104.923,-3338.69,0,0
33429.2,105.112,-3312.44,0,0
33689.6,105.549,-3286.68,0,0
33949.9,105.479,-3261.61,0,0
34210.2,105.479,-3236.72,0,0
34470.5,105.55,-3212.12,0,0
34730.9,106.134,-3187.62,0,0
34991.2,106.747,-3163.87,0,0
35251.5,107.524,-3140.93,0,0
35511.8,108.196,-3118.84,0,0
35772.2,108.418,-3097.14,0,0
36032.5,108.585,-3076.25,0,0
36292.8,108.685,-3055.42,0,0
36553.1,108.421,-3035.3,0,0
36813.5,107.617,-3015.13,0,0
37073.8,107.375,-2995.59,0,0
37334.1,105.789,-2976.75,0,0
37594.4,104.09,-2957.29,0,0
37854.8,102.452,-2937.92,0,0
38115.1,100.447,-2918.84,0,0
38375.4,98.5312,-2899.45,0,0
38635.7,96.3589,-2879.92,0,0
38896.1,94.5517,-2860.69,0,0
39156.4,92.7945,-2841.29,0,0
39416.7,91.1474,-2821.61,0,0
39677,89.9384,-2802.77,0,0
39937.4,88.0489,-2783.81,0,0
40197.7,87.8607,-2764.19,0,0
40458,87.8204,-2745.73,0,0
40718.3,87.4329,-2728.34,0,0
40978.7,85.9978,-2710.44,0,0
41239,85.62,-2692.87,0,0
41499.3,85.129,-2675.87,0,0
41759.6,84.4867,-2658.73,0,0
42020,83.6361,-2641.94,0,0
42280.275,82.8867,-2624.89,0,0
42540.6,82.509,-2608.07,0,0
42800.925,82.2344,-2591.44,0,0
43061.25,82.3835,-2575.43,0,0
43321.575,82.4673,-2560.08,0,0
43581.9,82.4268,-2545.01,0,0
43842.225,81.8183,-2530.1,0,0
44102.55,80.4818,-2515.42,0,0
44362.875,79.7209,-2500.09,0,0
44623.2,78.9138,-2485.24,0,0
44883.525,78.3648,-2470.29,0,0
45143.85,77.7908,-2455.81,0,0
45404.175,77.0702,-2441.31,0,0
45664.5,76.5295,-2426.84,0,0
45924.825,75.9286,-2413.02,0,0
46185.15,75.5161,-2398.78,0,0
46445.475,74.9923,-2384.64,0,0
46705.8,74.4246,-2370.87,0,0
46966.125,74.0136,-2357.22,0,0
47226.45,73.6781,-2343.75,0,0
47486.775,73.2672,-2330.34,0,0
47747.1,72.9646,-2317.41,0,0
48007.425,72.7671,-2304.44,0,0
48267.75,72.3974,-2291.65,0,0
48528.075,72.1123,-2278.94,0,0
48788.4,71.4876,-2266.5,0,0
49048.725,70.8611,-2253.91,0,0
49309.05,70.5618,-2241.57,0,0
49569.375,70.0782,-2229.35,0,0
49829.7,69.649,-2217.07,0,0
50090.025,69.4668,-2204.94,0,0
50350.35,68.9843,-2192.8,0,0
50610.675,68.7557,-2181.21,0,0
50871.0,68.5631,-2169.4,0,0
51131.325,68.4416,-2157.78,0,0
51391.65,67.9836,-2146.24,0,0
51651.975,68.1175,-2134.98,0,0
51912.3,67.8333,-2123.83,0,0
52172.625,67.7614,-2112.7,0,0
52432.95,67.5626,-2101.8,0,0
52693.275,67.5929,-2090.79,0,0
52953.6,67.6196,-2080.07,0,0
53213.925,67.5526,-2069.65,0,0
53474.25,67.6701,-2059.33,0,0
53734.575,67.8121,-2049.43,0,0
53994.9,67.4564,-2040,0,0
54255.225,66.6341,-2030.01,0,0
54515.55,65.9481,-2020.11,0,0
54775.875,65.56,-2010.03,0,0
55036.2,65.0469,-2000.51,0,0
55296.525,64.1955,-1990.68,0,0
55556.85,63.534,-1980.71,0,0
55817.175,62.9646,-1970.79,0,0
56077.5,62.3729,-1960.98,0,0
56337.825,62.0157,-1951.19,0,0
56598.15,61.6366,-1941.47,0,0
56858.475,61.4283,-1931.74,0,0
57118.8,61.1241,-1922.26,0,0
57379.125,60.9602,-1912.86,0,0
57639.45,60.8124,-1903.56,0,0
57899.775,60.439,-1894.42,0,0
58160.1,60.4513,-1885.17,0,0
58420.4,60.2662,-1876.15,0,0
58680.7,60.1717,-1867.12,0,0
58941.1,60.2271,-1858.39,0,0
59201.4,60.0177,-1849.82,0,0
59461.7,59.8057,-1841.21,0,0
59722,59.4868,-1832.76,0,0
59982.4,59.1955,-1824.23,0,0
60242.7,58.7628,-1815.65,0,0
60503,58.5306,-1807.09,0,0
60763.3,58.4462,-1798.66,0,0
61023.7,58.2556,-1790.28,0,0
61284,58.2689,-1781.84,0,0
61544.3,58.2645,-1773.6,0,0
61804.6,58.2089,-1765.63,0,0
62065,58.0096,-1757.65,0,0
62325.3,57.8522,-1749.59,0,0
62585.6,57.7687,-1741.59,0,0
62845.9,57.8703,-1733.61,0,0
63106.3,57.9689,-1725.59,0,0
63366.6,58.1416,-1718,0,0
63626.9,58.261,-1710.51,0,0
63887.2,58.336,-1702.95,0,0
64147.6,58.6282,-1695.48,0,0
64407.9,58.7797,-1688.41,0,0
64668.2,58.8817,-1681.35,0,0
64928.5,58.7903,-1674.4,0,0
65188.9,58.6614,-1667.51,0,0
65449.2,58.2884,-1660.7,0,0
65709.5,58.1554,-1653.51,0,0
65969.8,58.1526,-1646.71,0,0
66230.2,57.8182,-1640.07,0,0
66490.5,57.352,-1633.35,0,0
66750.8,56.6697,-1626.29,0,0
67011.1,56.2832,-1619.27,0,0
67271.5,56.0853,-1612.23,0,0
67531.8,55.848,-1605.25,0,0
67792.1,55.6842,-1598.44,0,0
68052.4,55.5938,-1591.65,0,0
68312.8,55.3314,-1584.9,0,0
68573.1,55.1141,-1578.18,0,0
68833.4,54.8923,-1571.42,0,0
69093.7,54.797,-1564.71,0,0
69354.1,54.8238,-1558.03,0,0
69614.4,54.8341,-1551.49,0,0
69874.7,54.8868,-1544.96,0,0
70135,54.9318,-1538.57,0,0
70395.4,54.8595,-1532.26,0,0
70655.7,54.7632,-1526.06,0,0
70916,54.7387,-1519.72,0,0
71176.3,54.7915,-1513.45,0,0
71436.7,54.8355,-1507.3,0,0
71697,54.985,-1501.12,0,0
71957.3,55.1095,-1495.3,0,0
72217.6,55.0814,-1489.45,0,0
72478,55.0766,-1483.61,0,0
72738.3,54.9395,-1477.9,0,0
72998.6,54.6257,-1472.11,0,0
73258.9,54.4483,-1466.18,0,0
73519.3,54.3763,-1460.33,0,0
73779.6,54.2898,-1454.64,0,0
74039.9,54.1859,-1448.87,0,0
74300.225,53.9892,-1443.23,0,0
74560.55,53.7967,-1437.53,0,0
74820.875,53.5479,-1431.83,0,0
75081.2,53.4791,-1426.09,0,0
75341.525,53.3201,-1420.34,0,0
75601.85,53.2968,-1414.79,0,0
75862.175,53.2862,-1409.17,0,0
76122.5,53.2536,-1403.65,0,0
76382.825,53.1881,-1398.14,0,0
76643.15,53.2256,-1392.72,0,0
76903.475,53.1111,-1387.39,0,0
77163.8,53.0313,-1382,0,0
77424.125,52.9638,-1376.6,0,0
77684.45,52.8564,-1371.29,0,0
77944.775,52.7628,-1366.1,0,0
78205.1,52.6085,-1360.79,0,0
78465.425,52.5152,-1355.56,0,0
78725.75,52.2966,-1350.29,0,0
78986.075,52.232,-1344.97,0,0
79246.4,52.063,-1339.83,0,0
79506.725,51.9367,-1334.52,0,0
79767.05,51.8377,-1329.22,0,0
80027.375,51.841,-1323.98,0,0
80287.7,51.8211,-1318.82,0,0
80548.025,51.7811,-1313.67,0,0
80808.35,51.7016,-1308.54,0,0
81068.675,51.673,-1303.33,0,0
81329.0,51.7274,-1298.22,0,0
81589.325,51.7912,-1293.09,0,0
81849.65,51.8608,-1287.96,0,0
82109.975,52.0853,-1282.82,0,0
82370.3,52.303,-1277.95,0,0
82630.625,52.4679,-1273.01,0,0
82890.95,52.6968,-1268.09,0,0
83151.275,52.9217,-1263.34,0,0
83411.6,53.0014,-1258.5,0,0
83671.925,53.2938,-1253.53,0,0
83932.25,53.6069,-1248.78,0,0
84192.575,53.9289,-1244.17,0,0
84452.9,54.179,-1239.52,0,0
84713.225,54.6111,-1235,0,0
84973.55,55.0972,-1230.64,0,0
85233.875,55.206,-1226.7,0,0
85494.2,54.9533,-1222.46,0,0
85754.525,54.7545,-1218.07,0,0
86014.85,54.5035,-1213.53,0,0
86275.175,54.3708,-1208.93,0,0
86535.5,54.2986,-1204.17,0,0
86795.825,54.3708,-1199.42,0,0
87056.15,54.5842,-1194.8,0,0
87316.475,54.8066,-1190.35,0,0
87576.8,54.9086,-1185.94,0,0
87837.125,54.9994,-1181.4,0,0
88097.45,55.144,-1176.93,0,0
88357.775,55.2982,-1172.48,0,0
88618.1,55.464,-1168.09,0,0
88878.425,55.6012,-1163.59,0,0
89138.75,55.735,-1159.13,0,0
89399.075,55.854,-1154.6,0,0
89659.4,56.1092,-1149.98,0,0
89919.725,56.3986,-1145.38,0,0
90180,56.9181,-1140.95,0,0
90440.4,57.2949,-1136.6,0,0
90700.7,57.677,-1132.02,0,0
90961,58.3406,-1127.49,0,0
91221.3,59.0211,-1122.87,0,0
91481.7,60.0814,-1118.66,0,0
91742,60.9596,-1114.67,0,0
92002.3,61.9584,-1110.78,0,0
92262.6,62.7586,-1107.01,0,0
92523,63.5014,-1103.31,0,0
92783.3,64.2344,-1099.53,0,0
93043.6,65.1037,-1095.94,0,0
93303.9,65.9146,-1092.85,0,0
93564.3,66.3019,-1089.8,0,0
93824.6,66.1974,-1086.81,0,0
94084.9,65.8287,-1083.18,0,0
94345.2,65.8109,-1079.36,0,0
94605.6,65.6034,-1075.25,0,0
94865.9,66.0514,-1071.15,0,0
95126.2,66.2851,-1067.37,0,0
95386.5,66.5985,-1063.3,0,0
95646.9,67.115,-1059.37,0,0
95907.2,67.5563,-1055.39,0,0
96167.5,68.0937,-1051.49,0,0
96427.8,68.6486,-1047.5,0,0
96688.2,69.4718,-1043.57,0,0
96948.5,70.3442,-1039.77,0,0
97208.8,71.2247,-1036.12,0,0
97469.1,72.1072,-1032.43,0,0
97729.5,73.1049,-1028.91,0,0
97989.8,74.1016,-1025.44,0,0
98250.1,75.0602,-1022.07,0,0
98510.4,76.1416,-1018.71,0,0
98770.8,77.3181,-1015.48,0,0
99031.1,78.5656,-1012.51,0,0
99291.4,79.6216,-1009.9,0,0
99551.7,80.3547,-1007.23,0,0
99812.1,81.0748,-1004.36,0,0
100072,81.8305,-1001.56,0,0
100333,82.6652,-998.804,0,0
100593,83.447,-996.161,0,0
100853,84.2857,-993.634,0,0
101114,84.9676,-991.269,0,0
101374,85.5414,-988.95,0,0
101634,86.059,-986.592,0,0
101895,86.473,-984.41,0,0
102155,86.7172,-982.198,0,0
102415,86.8669,-979.94,0,0
102676,87.0298,-977.679,0,0
102936,87.052,-975.478,0,0
103196,86.8592,-973.316,0,0
103457,86.4778,-970.949,0,0
103717,86.0224,-968.353,0,0
103977,85.7574,-965.52,0,0
104238,85.6827,-962.681,0,0
104498,85.6488,-960.044,0,0
104758,85.5931,-957.461,0,0
105019,85.2695,-954.899,0,0
105279,84.9095,-952.073,0,0
105539,84.7055,-949.128,0,0
105800,84.6024,-946.238,0,0
106060,84.4761,-943.299,0,0
106320.175,84.4797,-940.419,0,0
106580.5,84.4807,-937.553,0,0
106840.825,84.5202,-934.696,0,0
107101.15,84.709,-931.853,0,0
107361.475,84.7859,-929.235,0,0
107621.8,84.7761,-926.612,0,0
107882.125,84.5623,-923.964,0,0
108142.45,84.392,-921.137,0,0
108402.775,84.3074,-918.252,0,0
108663.1,84.2716,-915.317,0,0
108923.425,84.3056,-912.445,0,0
109183.75,84.3712,-909.473,0,0
109444.075,84.5729,-906.565,0,0
109704.4,84.7407,-903.766,0,0
109964.725,85.0585,-900.966,0,0
110225.05,85.399,-898.28,0,0
110485.375,85.6369,-895.69,0,0
110745.7,85.7998,-893.148,0,0
111006.025,85.9027,-890.639,0,0
111266.35,85.9012,-888.082,0,0
111526.675,86.1126,-885.437,0,0
111787.0,86.3099,-882.93,0,0
112047.325,86.5533,-880.402,0,0
112307.65,86.6522,-878.061,0,0
112567.975,86.7153,-875.626,0,0
112828.3,86.7543,-873.166,0,0
113088.625,86.7986,-870.741,0,0
113348.95,86.8603,-868.354,0,0
113609.275,86.8918,-866.057,0,0
113869.6,86.8358,-863.727,0,0
114129.925,86.6165,-861.424,0,0
114390.25,86.4828,-858.963,0,0
114650.575,86.3422,-856.429,0,0
114910.9,86.2661,-854.034,0,0
115171.225,86.2285,-851.597,0,0
115431.55,86.1841,-849.298,0,0
115691.875,85.9308,-847.069,0,0
115952.2,85.5429,-844.665,0,0
116212.525,85.1663,-842.228,0,0
116472.85,84.8041,-839.723,0,0
116733.175,84.402,-837.08,0,0
116993.5,84.0272,-834.267,0,0
117253.825,83.8767,-831.412,0,0
117514.15,83.9262,-828.674,0,0
117774.475,83.9472,-826.122,0,0
118034.8,83.9041,-823.593,0,0
118295.125,83.8211,-821.104,0,0
118555.45,83.6328,-818.604,0,0
118815.775,83.4917,-816.035,0,0
119076.1,83.4448,-813.481,0,0
119336.425,83.3171,-811.052,0,0
119596.75,83.0434,-808.575,0,0
119857.075,82.7767,-806.051,0,0
120117.4,82.4875,-803.474,0,0
120377.725,82.2022,-800.826,0,0
120638.05,81.8989,-798.137,0,0
120898.375,81.7215,-795.35,0,0
121158.7,81.6471,-792.649,0,0
121419.025,81.4891,-790.038,0,0
121679.35,81.3009,-787.372,0,0
121939.675,81.1164,-784.624,0,0
122200.0,81.0059,-781.833,0,0
122460,80.9781,-779.131,0,0
122721,80.9015,-776.491,0,0
122981,80.7845,-773.825,0,0
123241,80.6448,-771.115,0,0
123502,80.5286,-768.389,0,0
123762,80.4092,-765.648,0,0
124022,80.2728,-762.864,0,0
124283,80.2182,-759.99,0,0
124543,80.2456,-757.184,0,0
124803,80.2931,-754.385,0,0
125064,80.3448,-751.604,0,0
125324,80.4002,-748.855,0,0
125584,80.4112,-746.11,0,0
125845,80.4509,-743.351,0,0
126105,80.4269,-740.551,0,0
126365,80.5366,-737.678,0,0
126626,80.7444,-734.794,0,0
126886,80.9911,-731.987,0,0
127146,81.1653,-729.326,0,0
127406,81.4486,-726.611,0,0
127667,81.5325,-723.919,0,0
127927,81.7601,-721.145,0,0
128187,82.0248,-718.476,0,0
128448,82.2877,-715.859,0,0
128708,82.4413,-713.255,0,0
128968,82.5928,-710.534,0,0
129229,82.829,-707.78,0,0
129489,83.0926,-705.145,0,0
129749,83.3069,-702.551,0,0
130010,83.4485,-699.909,0,0
130270,83.5617,-697.198,0,0
130530,83.7846,-694.397,0,0
130791,84.1361,-691.631,0,0
131051,84.5332,-688.97,0,0
131311,84.8746,-686.347,0,0
131572,85.2806,-683.836,0,0
131832,85.5125,-681.385,0,0
132092,85.6655,-678.79,0,0
132353,85.9009,-676.137,0,0
132613,86.1589,-673.561,0,0
132873,86.3941,-670.998,0,0
133134,86.597,-668.45,0,0
133394,86.714,-665.85,0,0
133654,86.8303,-663.169,0,0
133915,86.9918,-660.407,0,0
134175,87.2246,-657.595,0,0
134435,87.4995,-654.849,0,0
134696,87.7305,-652.082,0,0
134956,88.0196,-649.166,0,0
135216,88.5038,-646.263,0,0
135477,89.0853,-643.486,0,0
135737,89.672,-640.777,0,0
135997,90.3874,-638.163,0,0
136258,91.0704,-635.833,0,0
136518,91.5359,-633.577,0,0
136778,91.931,-631.439,0,0
137039,92.0016,-629.363,0,0
137299,91.8713,-627.021,0,0
137559,91.6922,-624.58,0,0
137819,91.4249,-621.996,0,0
138080,91.0552,-619.21,0,0
138340.125,90.7357,-616.15,0,0
138600.45,90.6548,-612.896,0,0
138860.775,90.7194,-609.588,0,0
139121.1,90.9962,-606.258,0,0
139381.425,91.3861,-603.065,0,0
139641.75,91.6866,-599.917,0,0
139902.075,92.0695,-596.677,0,0
140162.4,92.5572,-593.446,0,0
140422.725,93.0712,-590.302,0,0
140683.05,93.4719,-587.126,0,0
140943.375,93.9749,-583.818,0,0
141203.7,94.6483,-580.585,0,0
141464.025,95.2528,-577.481,0,0
141724.35,95.7113,-574.354,0,0
141984.675,96.1597,-571.009,0,0
142245.0,96.7373,-567.584,0,0
142505.325,97.4101,-564.146,0,0
142765.65,98.1341,-560.72,0,0
143025.975,98.8797,-557.24,0,0
143286.3,99.6597,-553.636,0,0
143546.625,100.72,-550.057,0,0
143806.95,101.721,-546.591,0,0
144067.275,102.714,-543.049,0,0
144327.6,103.748,-539.446,0,0
144587.925,104.873,-535.746,0,0
144848.25,106.148,-531.974,0,0
145108.575,107.594,-528.206,0,0
145368.9,109.17,-524.457,0,0
145629.225,110.951,-520.754,0,0
145889.55,112.82,-517.219,0,0
146149.875,114.681,-513.773,0,0
146410.2,116.566,-510.372,0,0
146670.525,118.522,-506.91,0,0
146930.85,120.589,-503.516,0,0
147191.175,122.766,-500.241,0,0
147451.5,124.986,-497.185,0,0
147711.825,126.916,-494.367,0,0
147972.15,128.522,-491.222,0,0
148232.475,130.214,-487.715,0,0
148492.8,132.133,-483.915,0,0
148753.125,134.481,-480.016,0,0
149013.45,137.066,-476.182,0,0
149273.775,139.955,-472.314,0,0
149534.1,143.025,-468.593,0,0
149794.425,146.511,-464.857,0,0
150054.75,150.227,-461.389,0,0
150315.075,154.16,-458.19,0,0
150575.4,158.299,-455.086,0,0
150835.725,162.72,-452.065,0,0
151096.05,167.792,-449.325,0,0
151356.375,173.312,-447.601,0,0
151616.7,178.668,-446.794,0,0
151877.025,183.583,-446.57,0,0
152137.35,188.211,-446.835,0,0
152397.675,192.184,-447.8,0,0
152658.0,195.136,-448.945,0,0
152918.325,197.816,-449.128,0,0
153178.65,200.519,-449.716,0,0
153438.975,202.736,-450.533,0,0
153699.3,204.437,-451.062,0,0
153959.625,206.035,-451.258,0,0
154219.95,207.502,-451.768,0,0
154480,208.1,-451.794,0,0
154741,208.439,-450.808,0,0
155001,209.637,-448.905,0,0
155261,211.872,-446.976,0,0
155522,214.753,-445.593,0,0
155782,218.226,-444.893,0,0
156042,221.943,-445.27,0,0
156303,225.031,-447.191,0,0
156563,226.687,-449.784,0,0
156823,226.719,-452.362,0,0
157084,225.286,-453.791,0,0
157344,223.367,-453.858,0,0
157604,221.714,-452.601,0,0
157864,220.733,-450.481,0,0
158125,220.278,-447.746,0,0
158385,220.667,-444.798,0,0
158645,221.923,-441.747,0,0
158906,223.882,-439.113,0,0
159166,226.508,-436.859,0,0
159426,229.584,-435.763,0,0
159687,232.337,-435.666,0,0
159947,234.17,-436.412,0,0
160207,234.874,-437.139,0,0
160468,234.663,-437.463,0,0
160728,233.576,-436.927,0,0
160988,232.522,-435.066,0,0
161249,232.073,-432.329,0,0
161509,232.558,-429.119,0,0
161769,233.818,-426.051,0,0
162030,235.666,-422.989,0,0
162290,238.061,-420.266,0,0
162550,240.767,-418.106,0,0
162811,243.72,-416.408,0,0
163071,246.615,-415.277,0,0
163331,249.519,-414.563,0,0
163592,252.049,-414.38,0,0
163852,254.062,-414.191,0,0
164112,255.92,-414.1,0,0
164373,257.631,-413.657,0,0
164633,259.629,-413.601,0,0
164893,261.595,-413.797,0,0
165154,263.513,-414.267,0,0
165414,265.243,-415.486,0,0
165674,266.075,-417.212,0,0
165935,265.875,-418.925,0,0
166195,264.836,-420.217,0,0
166455,263.313,-421.007,0,0
166716,261.129,-421.223,0,0
166976,258.364,-420.384,0,0
167236,255.954,-418.26,0,0
167497,254.306,-415.708,0,0
167757,253.092,-412.941,0,0
168017,252.22,-410.015,0,0
168277,251.759,-407.224,0,0
168538,251.263,-404.625,0,0
168798,250.484,-401.743,0,0
169058,249.756,-398.412,0,0
169319,249.537,-394.579,0,0
169579,249.851,-390.864,0,0
169839,250.445,-387.327,0,0
170100,250.901,-384,0,0
170360.075,251.482,-380.51,0,0
170620.4,252.152,-376.975,0,0
170880.725,252.956,-373.708,0,0
171141.05,253.181,-370.494,0,0
171401.375,253.064,-366.487,0,0
171661.7,253.286,-361.448,0,0
171922.025,254.599,-356.037,0,0
172182.35,256.767,-350.788,0,0
172442.675,259.501,-346.052,0,0
172703.0,262.527,-341.853,0,0
172963.325,265.461,-337.956,0,0
173223.65,268.675,-334.042,0,0
173483.975,272.144,-330.691,0,0
173744.3,275.543,-327.767,0,0
174004.625,278.763,-325.323,0,0
174264.95,281.723,-323.326,0,0
174525.275,283.885,-321.771,0,0
174785.6,284.911,-319.771,0,0
175045.925,285.701,-316.781,0,0
175306.25,286.569,-313.334,0,0
175566.575,287.196,-309.323,0,0
175826.9,287.961,-304.147,0,0
176087.225,289.827,-298.198,0,0
176347.55,292.615,-292.269,0,0
176607.875,296.128,-286.481,0,0
176868.2,300.02,-281.126,0,0
177128.525,304.203,-276.196,0,0
177388.85,308.094,-271.306,0,0
177649.175,312.028,-266.173,0,0
177909.5,316.457,-260.523,0,0
178169.825,321.645,-254.917,0,0
178430.15,327.226,-249.629,0,0
178690.475,333.033,-244.572,0,0
178950.8,339.026,-239.562,0,0
179211.125,345.522,-234.414,0,0
179471.45,352.518,-229.563,0,0
179731.775,359.999,-224.778,0,0
179992.1,368.122,-220.176,0,0
180252.425,377.012,-216.206,0,0
180512.75,386.139,-213.237,0,0
180773.075,395.367,-210.627,0,0
181033.4,404.919,-208.792,0,0
181293.725,413.957,-207.859,0,0
181554.05,422.578,-206.88,0,0
181814.375,431.815,-205.905,0,0
182074.7,441.38,-206.031,0,0
182335.025,450.614,-207.095,0,0
182595.35,459.168,-208.663,0,0
182855.675,467.331,-210.559,0,0
183116.0,475.026,-212.827,0,0
183376.325,482.264,-215.468,0,0
183636.65,488.455,-217.99,0,0
183896.975,494.097,-220.415,0,0
184157.3,499.129,-222.283,0,0
184417.625,504.185,-223.287,0,0
184677.95,509.412,-224.193,0,0
184938.275,514.627,-224.583,0,0
185198.6,520.405,-224.516,0,0
185458.925,526.798,-224.605,0,0
185719.25,533.34,-225.155,0,0
185979.575,539.701,-225.565,0,0
186239.9,546.805,-225.716,0,0
186500,554.335,-226.842,0,0
186761,561.228,-228.58,0,0
187021,567.733,-229.948,0,0
187281,574.412,-231.173,0,0
187542,581.127,-232.581,0,0
187802,587.729,-233.562,0,0
188062,595.016,-234.269,0,0
188322,602.805,-235.307,0,0
188583,611.172,-236.943,0,0
188843,619.783,-239.573,0,0
189103,627.772,-243.186,0,0
189364,634.639,-247.067,0,0
189624,640.616,-250.332,0,0
189884,646.553,-252.765,0,0
190145,652.774,-254.865,0,0
190405,658.967,-256.377,0,0
190665,665.884,-256.877,0,0
190926,674.385,-256.947,0,0
191186,684.795,-258.115,0,0
191446,695.64,-261.274,0,0
191707,705.801,-265.895,0,0
191967,714.879,-271.003,0,0
192227,723.106,-276.018,0,0
192488,730.844,-280.698,0,0
192748,737.726,-284.313,0,0
193008,745.576,-285.651,0,0
193269,756.36,-286.681,0,0
193529,769.002,-288.937,0,0
193789,782.996,-292.616,0,0
194050,797.81,-298.196,0,0
194310,812.838,-305.256,0,0
194570,828.418,-314.257,0,0
194831,843.393,-325.548,0,0
195091,857.239,-338.053,0,0
195351,870.447,-351.272,0,0
195612,883.726,-365.361,0,0
195872,896.66,-381.169,0,0
196132,908.912,-398.824,0,0
196393,919.599,-418.272,0,0
196653,928.502,-438.612,0,0
196913,935.743,-459.867,0,0
197174,941.42,-481.799,0,0
197434,945.171,-504.569,0,0
197694,946.424,-527.592,0,0
197955,945.103,-549.794,0,0
198215,942.281,-570.544,0,0
198475,938.676,-590.073,0,0
198735,934.845,-608.804,0,0
198996,930.676,-627.055,0,0
199256,926.428,-645.095,0,0
199516,922.048,-664.101,0,0
199777,916.119,-684.134,0,0
200037,907.545,-704.106,0,0
200297,896.432,-722.879,0,0
200558,883.92,-739.521,0,0
200818,870.945,-754.098,0,0
201078,858.033,-766.944,0,0
201339,846.311,-779.039,0,0
201599,834.234,-791.479,0,0
201859,821.516,-804.083,0,0
202120,807.139,-816.536,0,0
202380.025,790.658,-827.778,0,0
202640.35,772.624,-836.55,0,0
202900.675,754.278,-841.901,0,0
203161.0,737.407,-844.852,0,0
203421.325,722.055,-846.315,0,0
203681.65,708.199,-847.064,0,0
203941.975,695.583,-847.399,0,0
204202.3,683.665,-847.698,0,0
204462.625,672.399,-847.749,0,0
204722.95,661.604,-847.94,0,0
204983.275,651.055,-848.055,0,0
205243.6,640.102,-847.991,0,0
205503.925,629.331,-847.476,0,0
205764.25,618.164,-846.337,0,0
206024.575,606.74,-844.021,0,0
206284.9,595.797,-839.946,0,0
206545.225,586.049,-834.414,0,0
206805.55,578.265,-827.636,0,0
207065.875,572.394,-821.022,0,0
207326.2,568.325,-814.781,0,0
207586.525,565.638,-809.291,0,0
207846.85,563.913,-804.793,0,0
208107.175,562.999,-801.514,0,0
208367.5,562.171,-799.455,0,0
208627.825,560.81,-798.394,0,0
208888.15,558.986,-797.749,0,0
209148.475,556.718,-797.133,0,0
209408.8,554.166,-796.263,0,0
209669.125,551.677,-794.843,0,0
209929.45,549.741,-793.178,0,0
210189.775,548.614,-791.708,0,0
210450.1,547.792,-790.96,0,0
210710.425,547.027,-790.453,0,0
210970.75,546.306,-790.352,0,0
211231.075,545.59,-790.379,0,0
211491.4,545.037,-790.548,0,0
211751.725,544.745,-790.93,0,0
212012.05,544.632,-791.899,0,0
212272.375,544.42,-793.337,0,0
212532.7,544.212,-795.077,0,0
212793.025,543.912,-797.293,0,0
213053.35,543.141,-799.966,0,0
213313.675,542.046,-802.701,0,0
213574.0,540.729,-805.567,0,0
213834.325,539.156,-808.603,0,0
214094.65,537.238,-811.7,0,0
214354.975,535.237,-814.713,0,0
214615.3,533.004,-817.838,0,0
214875.625,530.581,-821.199,0,0
215135.95,527.999,-824.411,0,0
215396.275,525.107,-827.832,0,0
215656.6,521.933,-831.371,0,0
215916.925,518.355,-834.815,0,0
216177.25,514.345,-838.134,0,0
216437.575,510.119,-841.228,0,0
216697.9,505.622,-843.904,0,0
216958.225,501.102,-846.335,0,0
217218.55,496.62,-848.715,0,0
217478.875,491.888,-851.036,0,0
217739.2,487.082,-853.053,0,0
217999.525,482.154,-854.991,0,0
218259.85,477.125,-856.677,0,0
218520,471.894,-858.22,0,0
218780,466.667,-859.429,0,0
219041,461.469,-860.358,0,0
219301,456.361,-861.062,0,0
219561,451.334,-861.645,0,0
219822,446.293,-862.308,0,0
220082,441.187,-862.788,0,0
220342,435.86,-863.063,0,0
220603,430.464,-863.02,0,0
220863,424.937,-862.517,0,0
221123,419.518,-861.607,0,0
221384,414.43,-860.208,0,0
221644,409.598,-858.365,0,0
221904,405.35,-856.348,0,0
222165,401.594,-854.314,0,0
222425,398.324,-852.383,0,0
222685,395.224,-850.65,0,0
222946,392.321,-848.923,0,0
223206,389.524,-847.18,0,0
223466,387.047,-845.487,0,0
223727,384.838,-843.894,0,0
223987,383.039,-842.455,0,0
224247,381.415,-841.142,0,0
224508,379.966,-840.265,0,0
224768,378.653,-839.616,0,0
225028,377.618,-839.338,0,0
225289,376.617,-839.528,0,0
225549,375.471,-840.18,0,0
225809,373.993,-841.336,0,0
226070,372.157,-842.73,0,0
226330,369.924,-844.143,0,0
226590,367.207,-845.752,0,0
226851,364.213,-847.221,0,0
227111,361.07,-848.557,0,0
227371,357.583,-849.895,0,0
227632,353.881,-851.082,0,0
227892,349.791,-852.05,0,0
228152,345.639,-852.552,0,0
228413,341.583,-852.872,0,0
228673,337.615,-853.11,0,0
228933,333.754,-853.204,0,0
229193,329.906,-853.212,0,0
229454,326.136,-853.259,0,0
229714,322.256,-853.394,0,0
229974,318.413,-853.465,0,0
230235,314.339,-853.869,0,0
230495,310.046,-854.134,0,0
230755,305.246,-854.172,0,0
231016,300.357,-853.766,0,0
231276,295.596,-853.067,0,0
231536,290.8,-852.281,0,0
231797,286.045,-851.282,0,0
232057,281.344,-850.107,0,0
232317,276.535,-848.697,0,0
232578,271.875,-847.186,0,0
232838,267.254,-845.452,0,0
233098,262.791,-843.615,0,0
233359,258.242,-841.702,0,0
233619,253.666,-839.684,0,0
233879,249.091,-837.291,0,0
234140,244.627,-834.711,0,0
234400,240.311,-832.026,0,0
234660.3,235.991,-829.088,0,0
234920.625,231.803,-825.811,0,0
235180.95,227.853,-822.224,0,0
235441.275,224.235,-818.528,0,0
235701.6,220.971,-814.771,0,0
235961.925,217.967,-810.934,0,0
236222.25,215.197,-807.103,0,0
236482.575,212.681,-803.25,0,0
236742.9,210.43,-799.479,0,0
237003.225,208.383,-795.814,0,0
237263.55,206.403,-792.173,0,0
237523.875,204.546,-788.585,0,0
237784.2,202.852,-784.948,0,0
238044.525,201.327,-781.383,0,0
238304.85,199.95,-777.825,0,0
238565.175,198.831,-774.216,0,0
238825.5,197.964,-770.724,0,0
239085.825,197.43,-767.325,0,0
239346.15,197.157,-764.267,0,0
239606.475,197.017,-761.495,0,0
239866.8,196.893,-759.019,0,0
240127.125,196.771,-756.89,0,0
240387.45,196.432,-755.076,0,0
240647.775,195.94,-753.27,0,0
240908.1,195.423,-751.723,0,0
241168.425,194.729,-750.342,0,0
241428.75,193.748,-748.947,0,0
241689.075,192.617,-747.552,0,0
241949.4,191.288,-746.164,0,0
242209.725,189.744,-744.601,0,0
242470.05,188.194,-742.943,0,0
242730.375,186.45,-741.114,0,0
242990.7,184.702,-738.922,0,0
243251.025,183.196,-736.63,0,0
243511.35,181.742,-734.255,0,0
243771.675,180.457,-731.702,0,0
244032.0,179.298,-729.213,0,0
244292.325,178.283,-726.66,0,0
244552.65,177.497,-724.125,0,0
244812.975,176.89,-721.73,0,0
245073.3,176.177,-719.513,0,0
245333.625,175.411,-717.364,0,0
245593.95,174.655,-715.209,0,0
245854.275,173.962,-712.92,0,0
246114.6,173.309,-710.655,0,0
246374.925,172.754,-708.384,0,0
246635.25,172.497,-706.182,0,0
246895.575,172.151,-704.168,0,0
247155.9,171.757,-702.276,0,0
247416.225,171.309,-700.492,0,0
247676.55,170.715,-698.677,0,0
247936.875,170.04,-696.819,0,0
248197.2,169.378,-694.99,0,0
248457.525,168.622,-693.112,0,0
248717.85,167.841,-691.078,0,0
248978.175,167.092,-688.842,0,0
249238.5,166.343,-686.565,0,0
249498.825,165.794,-684.254,0,0
249759.15,165.323,-681.748,0,0
250019.475,165.058,-679.34,0,0
250279.8,164.76,-676.881,0,0
250540,164.596,-674.362,0,0
250800,164.61,-671.803,0,0
251061,164.833,-669.268,0,0
251321,165.205,-666.741,0,0
251581,165.893,-664.273,0,0
251842,166.69,-662.043,0,0
252102,167.698,-660.031,0,0
252362,168.734,-658.235,0,0
252623,169.855,-656.677,0,0
252883,170.993,-655.474,0,0
253143,171.945,-654.57,0,0
253404,172.686,-653.828,0,0
253664,173.191,-653.199,0,0
253924,173.383,-652.642,0,0
254185,173.383,-651.933,0,0
254445,173.271,-651.108,0,0
254705,173.052,-650.214,0,0
254966,172.875,-649.206,0,0
255226,172.674,-648.155,0,0
255486,172.403,-647.057,0,0
255747,171.974,-645.813,0,0
256007,171.668,-644.454,0,0
256267,171.39,-643.031,0,0
256528,171.178,-641.605,0,0
256788,170.924,-640.077,0,0
257048,170.663,-638.417,0,0
257309,170.547,-636.571,0,0
257569,170.591,-634.704,0,0
257829,170.758,-632.819,0,0
258090,171.083,-630.88,0,0
258350,171.502,-629.04,0,0
258610,172.05,-627.179,0,0
258871,172.691,-625.381,0,0
259131,173.468,-623.595,0,0
259391,174.344,-621.861,0,0
259651,175.43,-620.209,0,0
259912,176.623,-618.813,0,0
260172,177.832,-617.451,0,0
260432,178.98,-616.331,0,0
260693,180.116,-615.318,0,0
260953,181.197,-614.287,0,0
261213,182.269,-613.324,0,0
261474,183.381,-612.383,0,0
261734,184.538,-611.481,0,0
261994,185.755,-610.706,0,0
262255,186.983,-610.156,0,0
262515,188.072,-609.797,0,0
262775,188.897,-609.403,0,0
263036,189.621,-608.859,0,0
263296,190.396,-608.339,0,0
263556,191.132,-607.804,0,0
263817,191.735,-607.308,0,0
264077,192.233,-606.633,0,0
264337,192.676,-605.745,0,0
264598,193.266,-604.607,0,0
264858,193.982,-603.332,0,0
265118,194.889,-601.971,0,0
265379,196.092,-600.491,0,0
265639,197.515,-599.007,0,0
265899,199.157,-597.453,0,0
266160,201.081,-595.909,0,0
266420,203.476,-594.409,0,0
266680.25,206.209,-593.112,0,0
266940.575,209.317,-592.081,0,0
267200.9,212.768,-591.39,0,0
267461.225,216.514,-591.088,0,0
267721.55,220.416,-591.261,0,0
267981.875,224.482,-591.918,0,0
268242.2,228.674,-593.138,0,0
268502.525,232.892,-595.015,0,0
268762.85,236.894,-597.464,0,0
269023.175,240.603,-600.535,0,0
269283.5,243.954,-604.036,0,0
269543.825,246.906,-607.889,0,0
269804.15,249.559,-612.047,0,0
270064.475,251.969,-616.427,0,0
270324.8,254.039,-621.279,0,0
270585.125,255.535,-626.493,0,0
270845.45,256.489,-632.038,0,0
271105.775,256.877,-637.748,0,0
271366.1,256.572,-643.601,0,0
271626.425,255.572,-649.385,0,0
271886.75,254.022,-655.046,0,0
272147.075,251.936,-660.572,0,0
272407.4,249.276,-665.926,0,0
272667.725,246.201,-671.11,0,0
272928.05,242.519,-676.072,0,0
273188.375,238.313,-680.643,0,0
273448.7,233.593,-684.758,0,0
273709.025,228.446,-688.374,0,0
273969.35,222.982,-691.433,0,0
274229.675,217.149,-693.89,0,0
274490.0,211.316,-695.582,0,0
274750.325,205.438,-696.641,0,0
275010.65,199.674,-697.114,0,0
275270.975,194.036,-697.013,0,0
275531.3,188.711,-696.412,0,0
275791.625,183.655,-695.356,0,0
276051.95,179.05,-694.056,0,0
276312.275,174.778,-692.48,0,0
276572.6,170.805,-690.832,0,0
276832.925,167.079,-689.086,0,0
277093.25,163.59,-687.217,0,0
277353.575,160.288,-685.252,0,0
277613.9,157.229,-683.21,0,0
277874.225,154.408,-681.171,0,0
278134.55,151.765,-679.137,0,0
278394.875,149.168,-677.138,0,0
278655.2,146.71,-675.016,0,0
278915.525,144.299,-672.827,0,0
279175.85,142.036,-670.487,0,0
279436.175,139.996,-668.056,0,0
279696.5,138.233,-665.514,0,0
279956.825,136.703,-662.988,0,0
280217.15,135.424,-660.469,0,0
280477.475,134.393,-658.042,0,0
280737.8,133.578,-655.783,0,0
280998.125,132.917,-653.635,0,0
281258.45,132.347,-651.613,0,0
281518.775,131.912,-649.726,0,0
281779.1,131.527,-647.97,0,0
282039.425,131.228,-646.382,0,0
282299.75,131.002,-644.946,0,0
282560,130.767,-643.702,0,0
282820,130.499,-642.594,0,0
283081,130.164,-641.627,0,0
283341,129.631,-640.674,0,0
283601,129.041,-639.751,0,0
283862,128.394,-638.815,0,0
284122,127.671,-637.799,0,0
284382,126.974,-636.673,0,0
284643,126.273,-635.525,0,0
284903,125.597,-634.186,0,0
285163,125.053,-632.772,0,0
285424,124.724,-631.308,0,0
285684,124.588,-629.854,0,0
285944,124.728,-628.439,0,0
286205,125.05,-627.228,0,0
286465,125.568,-626.205,0,0
286725,126.195,-625.445,0,0
286986,126.92,-624.983,0,0
287246,127.648,-624.872,0,0
287506,128.324,-625.116,0,0
287767,128.804,-625.737,0,0
288027,128.997,-626.673,0,0
288287,128.777,-627.862,0,0
288548,128.069,-629.02,0,0
288808,127.02,-630.136,0,0
289068,125.638,-631.091,0,0
289329,124.068,-631.891,0,0
289589,122.24,-632.551,0,0
289849,120.234,-632.964,0,0
290109,118.039,-633.125,0,0
290370,115.854,-632.96,0,0
290630,113.706,-632.568,0,0
290890,111.64,-631.973,0,0
291151,109.644,-631.266,0,0
291411,107.767,-630.474,0,0
291671,105.909,-629.63,0,0
291932,104.122,-628.733,0,0
292192,102.339,-627.751,0,0
292452,100.595,-626.781,0,0
292713,98.8439,-625.621,0,0
292973,97.1576,-624.404,0,0
293233,95.5315,-623.106,0,0
293494,93.9848,-621.771,0,0
293754,92.5088,-620.377,0,0
294014,91.0746,-618.987,0,0
294275,89.6576,-617.565,0,0
294535,88.2797,-616.058,0,0
294795,86.9463,-614.5,0,0
295056,85.7159,-612.904,0,0
295316,84.5252,-611.252,0,0
295576,83.4706,-609.576,0,0
295837,82.4725,-607.914,0,0
296097,81.5911,-606.267,0,0
296357,80.728,-604.642,0,0
296618,79.928,-603.045,0,0
296878,79.1445,-601.481,0,0
297138,78.3804,-599.929,0,0
297399,77.6147,-598.357,0,0
297659,76.8442,-596.764,0,0
297919,76.1766,-595.18,0,0
298180,75.5029,-593.546,0,0
298440,74.8862,-591.903,0,0
298700.2,74.3288,-590.263,0,0
298960.525,73.8052,-588.614,0,0
299220.85,73.3283,-586.98,0,0
299481.175,72.8926,-585.333,0,0
299741.5,72.5085,-583.699,0,0
300001.825,72.1573,-582.021,0,0
300262.15,71.872,-580.373,0,0
300522.475,71.6558,-578.693,0,0
300782.8,71.5116,-577.049,0,0
301043.125,71.4452,-575.411,0,0
301303.45,71.4691,-573.822,0,0
301563.775,71.5379,-572.276,0,0
301824.1,71.6764,-570.797,0,0
302084.425,71.8532,-569.38,0,0
302344.75,72.0679,-568.022,0,0
302605.075,72.3003,-566.729,0,0
302865.4,72.557,-565.501,0,0
303125.725,72.8234,-564.341,0,0
303386.05,73.1177,-563.211,0,0
303646.375,73.3871,-562.157,0,0
303906.7,73.6974,-561.151,0,0
304167.025,73.9645,-560.201,0,0
304427.35,74.2293,-559.297,0,0
304687.675,74.4842,-558.424,0,0
304948.0,74.753,-557.566,0,0
305208.325,74.9774,-556.759,0,0
305468.65,75.2426,-555.978,0,0
305728.975,75.5089,-555.284,0,0
305989.3,75.758,-554.597,0,0
306249.625,75.9866,-553.968,0,0
306509.95,76.1917,-553.371,0,0
306770.275,76.3696,-552.842,0,0
307030.6,76.5224,-552.31,0,0
307290.925,76.6388,-551.803,0,0
307551.25,76.7552,-551.298,0,0
307811.575,76.89,-550.815,0,0
308071.9,77.0453,-550.408,0,0
308332.225,77.1578,-550.095,0,0
308592.55,77.241,-549.853,0,0
308852.875,77.2071,-549.685,0,0
309113.2,77.0536,-549.536,0,0
309373.525,76.7787,-549.36,0,0
309633.85,76.4287,-549.131,0,0
309894.175,76.0198,-548.829,0,0
310154.5,75.6138,-548.476,0,0
310414.825,75.1843,-548.035,0,0
310675.15,74.7711,-547.583,0,0
310935.475,74.3598,-547.102,0,0
311195.8,73.9633,-546.62,0,0
311456.125,73.5733,-546.101,0,0
311716.45,73.1905,-545.597,0,0
311976.775,72.8038,-545.079,0,0
312237.1,72.424,-544.569,0,0
312497.425,72.0218,-544.08,0,0
312757.75,71.6104,-543.59,0,0
313018.075,71.1522,-543.095,0,0
313278.4,70.7011,-542.578,0,0
313538.725,70.2013,-542.07,0,0
313799.05,69.6827,-541.523,0,0
314059.375,69.146,-540.931,0,0
314319.7,68.5989,-540.309,0,0
314580,67.9919,-539.6,0,0
314840,67.5812,-538.941,0,0
315101,66.9778,-538.244,0,0
315361,66.5203,-537.511,0,0
315621,65.9408,-536.753,0,0
315882,65.5155,-535.89,0,0
316142,65.0809,-535.065,0,0
316402,64.6706,-534.236,0,0
316663,64.262,-533.407,0,0
316923,63.9298,-532.54,0,0
317183,63.7058,-531.664,0,0
317444,63.342,-530.85,0,0
317704,63.1988,-530.029,0,0
317964,62.8999,-529.3,0,0
318225,62.6879,-528.474,0,0
318485,62.4939,-527.633,0,0
318745,62.2721,-526.875,0,0
319006,62.0364,-526.121,0,0
319266,61.8681,-525.268,0,0
319526,61.8188,-524.63,0,0
319787,61.7701,-523.945,0,0
320047,61.6816,-523.341,0,0
320307,61.539,-522.775,0,0
320567,61.519,-522.258,0,0
320828,61.3151,-521.781,0,0
321088,61.079,-521.275,0,0
321348,60.8436,-520.835,0,0
321609,60.5984,-520.384,0,0
321869,60.3715,-519.881,0,0
322129,59.9741,-519.413,0,0
322390,59.6194,-518.885,0,0
322650,59.3043,-518.395,0,0
322910,58.9308,-517.908,0,0
323171,58.5119,-517.399,0,0
323431,58.1025,-516.91,0,0
323691,57.7144,-516.438,0,0
323952,57.231,-515.984,0,0
324212,56.7522,-515.441,0,0
324472,56.1736,-514.836,0,0
324733,55.65,-514.263,0,0
324993,55.1065,-513.617,0,0
325253,54.5688,-512.931,0,0
325514,54.0291,-512.244,0,0
325774,53.4979,-511.44,0,0
326034,52.9378,-510.729,0,0
326295,52.4323,-509.903,0,0
326555,51.9686,-509.049,0,0
326815,51.522,-508.225,0,0
327076,51.0866,-507.421,0,0
327336,50.67,-506.564,0,0
327596,50.2427,-505.718,0,0
327857,49.9704,-504.826,0,0
328117,49.5507,-503.989,0,0
328377,49.2393,-503.162,0,0
328638,48.8722,-502.307,0,0
328898,48.5961,-501.454,0,0
329158,48.1907,-500.596,0,0
329419,47.9176,-499.697,0,0
329679,47.565,-498.892,0,0
329939,47.3664,-497.993,0,0
330200,47.048,-497.097,0,0
330460,46.8055,-496.29,0,0
330720.15,46.509,-495.382,0,0
330980.475,46.2582,-494.512,0,0
331240.8,46.0616,-493.669,0,0
331501.125,45.8157,-492.793,0,0
331761.45,45.5855,-491.893,0,0
332021.775,45.3294,-491.064,0,0
332282.1,45.1334,-490.178,0,0
332542.425,44.9522,-489.252,0,0
332802.75,44.7423,-488.442,0,0
333063.075,44.5968,-487.463,0,0
333323.4,44.4368,-486.571,0,0
333583.725,44.3301,-485.671,0,0
333844.05,44.285,-484.822,0,0
334104.375,44.1669,-483.914,0,0
334364.7,44.0894,-483.063,0,0
334625.025,44.0699,-482.303,0,0
334885.35,44.041,-481.406,0,0
335145.675,44.0424,-480.614,0,0
335406.0,43.9616,-479.83,0,0
335666.325,43.9915,-479.059,0,0
335926.65,43.9569,-478.333,0,0
336186.975,43.9245,-477.629,0,0
336447.3,43.9183,-476.891,0,0
336707.625,43.8973,-476.158,0,0
336967.95,43.8394,-475.399,0,0
337228.275,43.8578,-474.775,0,0
337488.6,43.8356,-474.093,0,0
337748.925,43.7434,-473.422,0,0
338009.25,43.7117,-472.815,0,0
338269.575,43.6686,-472.178,0,0
338529.9,43.601,-471.481,0,0
338790.225,43.4887,-470.884,0,0
339050.55,43.4496,-470.27,0,0
339310.875,43.2897,-469.639,0,0
339571.2,43.2019,-469.025,0,0
339831.525,43.0918,-468.414,0,0
340091.85,42.985,-467.761,0,0
340352.175,42.8241,-467.166,0,0
340612.5,42.6489,-466.519,0,0
340872.825,42.459,-465.915,0,0
341133.15,42.3201,-465.26,0,0
341393.475,42.1088,-464.582,0,0
341653.8,41.8954,-463.933,0,0
341914.125,41.7351,-463.172,0,0
342174.45,41.4969,-462.502,0,0
342434.775,41.3541,-461.675,0,0
342695.1,41.1393,-460.933,0,0
342955.425,41.0791,-460.168,0,0
343215.75,40.8875,-459.416,0,0
343476.075,40.7762,-458.686,0,0
343736.4,40.6442,-457.925,0,0
343996.725,40.5286,-457.152,0,0
344257.05,40.4012,-456.372,0,0
344517.375,40.3491,-455.606,0,0
344777.7,40.2033,-454.797,0,0
345038.025,40.1243,-454.009,0,0
345298.35,40.0554,-453.222,0,0
345558.675,39.9773,-452.412,0,0
345819.0,39.9191,-451.603,0,0
346079.325,39.8386,-450.803,0,0
346339.65,39.8298,-449.954,0,0
346599.975,39.834,-449.174,0,0
346860,39.855,-448.347,0,0
347121,39.9123,-447.574,0,0
347381,39.9465,-446.733,0,0
347641,40.0097,-445.992,0,0
347902,40.1135,-445.193,0,0
348162,40.1704,-444.436,0,0
348422,40.2479,-443.719,0,0
348683,40.3718,-442.975,0,0
348943,40.4778,-442.227,0,0
349203,40.5338,-441.515,0,0
349464,40.6765,-440.793,0,0
349724,40.7493,-440.12,0,0
349984,40.8592,-439.373,0,0
350245,41.0361,-438.703,0,0
350505,41.1598,-438.018,0,0
350765,41.3008,-437.333,0,0
351025,41.4661,-436.675,0,0
351286,41.6486,-436.031,0,0
351546,41.8147,-435.392,0,0
351806,41.9905,-434.8,0,0
352067,42.1718,-434.207,0,0
352327,42.318,-433.615,0,0
352587,42.4613,-433.016,0,0
352848,42.6626,-432.497,0,0
353108,42.7958,-431.943,0,0
353368,42.9637,-431.401,0,0
353629,43.0854,-430.881,0,0
353889,43.2042,-430.374,0,0
354149,43.3393,-429.851,0,0
354410,43.4581,-429.321,0,0
354670,43.5568,-428.842,0,0
354930,43.6478,-428.331,0,0
355191,43.7164,-427.844,0,0
355451,43.8769,-427.35,0,0
355711,43.9422,-426.832,0,0
355972,44.0219,-426.351,0,0
356232,44.1375,-425.874,0,0
356492,44.1914,-425.397,0,0
356753,44.2477,-424.922,0,0
357013,44.3407,-424.427,0,0
357273,44.3596,-423.965,0,0
357534,44.4322,-423.488,0,0
357794,44.4408,-422.996,0,0
358054,44.4864,-422.499,0,0
358315,44.521,-421.995,0,0
358575,44.6054,-421.536,0,0
358835,44.6147,-420.955,0,0
359096,44.657,-420.458,0,0
359356,44.7453,-419.947,0,0
359616,44.7993,-419.519,0,0
359877,44.8404,-419.004,0,0
360137,44.9132,-418.51,0,0
360397,44.9864,-418.008,0,0
360658,44.9869,-417.508,0,0
360918,45.0696,-417.038,0,0
361178,45.1116,-416.543,0,0
361438,45.1552,-416.091,0,0
361699,45.2135,-415.592,0,0
361959,45.2587,-415.082,0,0
362219,45.2662,-414.581,0,0
362480,45.3748,-414.088,0,0
362740.1,45.3987,-413.614,0,0
363000.425,45.4649,-413.108,0,0
363260.75,45.5146,-412.631,0,0
363521.075,45.5397,-412.107,0,0
363781.4,45.6577,-411.69,0,0
364041.725,45.6697,-411.152,0,0
364302.05,45.7491,-410.692,0,0
364562.375,45.7861,-410.224,0,0
364822.7,45.8914,-409.696,0,0
365083.025,45.9355,-409.24,0,0
365343.35,46.0274,-408.74,0,0
365603.675,46.0924,-408.282,0,0
365864.0,46.2346,-407.779,0,0
366124.325,46.3182,-407.365,0,0
366384.65,46.3765,-406.896,0,0
366644.975,46.4773,-406.486,0,0
366905.3,46.524,-406.01,0,0
367165.625,46.5998,-405.577,0,0
367425.95,46.6497,-405.135,0,0
367686.275,46.7599,-404.643,0,0
367946.6,46.7809,-404.226,0,0
368206.925,46.8643,-403.727,0,0
368467.25,46.9106,-403.237,0,0
368727.575,46.9641,-402.733,0,0
368987.9,47.0965,-402.256,0,0
369248.225,47.2255,-401.77,0,0
369508.55,47.3556,-401.262,0,0
369768.875,47.5138,-400.771,0,0
370029.2,47.684,-400.339,0,0
370289.525,47.9424,-399.849,0,0
370549.85,48.1856,-399.492,0,0
370810.175,48.3954,-399.137,0,0
371070.5,48.617,-398.806,0,0
371330.825,48.8109,-398.519,0,0
371591.15,48.9776,-398.29,0,0
371851.475,49.1088,-398.052,0,0
372111.8,49.2535,-397.809,0,0
372372.125,49.3428,-397.587,0,0
372632.45,49.4285,-397.367,0,0
372892.775,49.456,-397.151,0,0
373153.1,49.4944,-396.944,0,0
373413.425,49.4901,-396.742,0,0
373673.75,49.4112,-396.524,0,0
373934.075,49.3509,-396.251,0,0
374194.4,49.3063,-395.984,0,0
374454.725,49.2111,-395.741,0,0
374715.05,49.121,-395.463,0,0
374975.375,48.9955,-395.081,0,0
375235.7,48.8682,-394.732,0,0
375496.025,48.7734,-394.365,0,0
375756.35,48.6848,-393.966,0,0
376016.675,48.6493,-393.522,0,0
376277.0,48.5908,-393.103,0,0
376537.325,48.6003,-392.682,0,0
376797.65,48.6312,-392.262,0,0
377057.975,48.6993,-391.837,0,0
377318.3,48.7475,-391.501,0,0
377578.625,48.8251,-391.196,0,0
377838.95,48.8398,-390.925,0,0
378099.275,48.8666,-390.681,0,0
378359.6,48.8143,-390.47,0,0
378619.925,48.7721,-390.202,0,0
378880,48.6372,-389.907,0,0
379141,48.4624,-389.627,0,0
379401,48.317,-389.276,0,0
379661,48.1236,-388.854,0,0
379922,47.9894,-388.409,0,0
380182,47.8998,-387.95,0,0
380442,47.8597,-387.406,0,0
380703,47.9269,-386.934,0,0
380963,47.9761,-386.481,0,0
381223,48.131,-386.106,0,0
381483,48.2725,-385.788,0,0
381744,48.3617,-385.551,0,0
382004,48.4057,-385.369,0,0
382264,48.4158,-385.211,0,0
382525,48.3475,-385.055,0,0
382785,48.2496,-384.898,0,0
383045,48.0748,-384.725,0,0
383306,47.8605,-384.519,0,0
383566,47.6022,-384.311,0,0
383826,47.3754,-384.071,0,0
384087,47.0534,-383.778,0,0
384347,46.7749,-383.442,0,0
384607,46.4519,-383.085,0,0
384868,46.1652,-382.702,0,0
385128,45.8778,-382.275,0,0
385388,45.5752,-381.786,0,0
385649,45.3137,-381.327,0,0
385909,45.0619,-380.837,0,0
386169,44.8079,-380.306,0,0
386430,44.5642,-379.783,0,0
386690,44.3325,-379.23,0,0
386950,44.1007,-378.64,0,0
387211,43.936,-378.072,0,0
387471,43.7478,-377.511,0,0
387731,43.562,-376.896,0,0
387992,43.4221,-376.258,0,0
388252,43.2862,-375.638,0,0
388512,43.1878,-374.993,0,0
388773,43.1085,-374.418,0,0
389033,43.0634,-373.758,0,0
389293,43.0487,-373.14,0,0
389554,43.0251,-372.537,0,0
389814,43.0347,-371.937,0,0
390074,43.0521,-371.397,0,0
390335,43.0619,-370.802,0,0
390595,43.0998,-370.271,0,0
390855,43.0805,-369.786,0,0
391116,43.0925,-369.273,0,0
391376,43.1134,-368.736,0,0
391636,43.1073,-368.26,0,0
391896,43.1073,-367.73,0,0
392157,43.0941,-367.25,0,0
392417,43.0509,-366.726,0,0
392677,43.0214,-366.237,0,0
392938,42.9742,-365.679,0,0
393198,42.9638,-365.206,0,0
393458,42.9176,-364.668,0,0
393719,42.9044,-364.126,0,0
393979,42.8448,-363.546,0,0
394239,42.8305,-363.04,0,0
394500,42.8082,-362.5,0,0
394760.05,42.7838,-361.899,0,0
395020.375,42.803,-361.339,0,0
395280.7,42.7895,-360.77,0,0
395541.025,42.8125,-360.196,0,0
395801.35,42.8658,-359.597,0,0
396061.675,42.9307,-359.025,0,0
396322.0,42.9957,-358.476,0,0
396582.325,43.0549,-357.887,0,0
396842.65,43.1274,-357.361,0,0
397102.975,43.2243,-356.854,0,0
397363.3,43.2875,-356.341,0,0
397623.625,43.3245,-355.791,0,0
397883.95,43.44,-355.285,0,0
398144.275,43.4681,-354.761,0,0
398404.6,43.5605,-354.285,0,0
398664.925,43.6263,-353.775,0,0
398925.25,43.7104,-353.247,0,0
399185.575,43.7368,-352.741,0,0
399445.9,43.8017,-352.264,0,0
399706.225,43.8494,-351.768,0,0
399966.55,43.9103,-351.288,0,0
400006.6,43.9373,-351.167,0,0