File: Accelerated corrosion test data/2025-10-14_08-28-47/sample_2.csv
Frequency (Hz),Impedance (ohms),Phase (Radians),Temperature (C),Humidity (%)
10000.0,230.737,-11425.7,0,0
10260.325,225.102,-11134.9,0,0
10520.65,219.325,-10867.8,0,0
10780.975,214.431,-10604.4,0,0
11041.3,209.203,-10359.8,0,0
11301.625,204.777,-10120.5,0,0
11561.95,201.257,-9892.91,0,0
11822.275,199.157,-9684.46,0,0
12082.6,193.987,-9474.4,0,0
12342.925,188.492,-9278.07,0,0
12603.25,184.147,-9086.41,0,0
12863.575,180.996,-8902.38,0,0
13123.9,178.249,-8728.97,0,0
13384.225,174.256,-8558.35,0,0
13644.55,171.505,-8392.78,0,0
13904.875,187.727,-8241.12,0,0
14165.2,165.99,-8093.66,0,0
14425.525,163.109,-7944.52,0,0
14685.8,164.529,-7798.4,0,0
14946.175,160.233,-7669.54,0,0
15206.5,164.271,-7549.48,0,0
15466.825,162.188,-7413.88,0,0
15727.15,152.098,-7300.77,0,0
15987.5,149.152,-7179.42,0,0
16247.8,149.19,-7065.14,0,0
16508.125,143.775,-6954.6,0,0
16768.45,141.583,-6846.43,0,0
17028.775,139.828,-6742.31,0,0
17289.1,138.151,-6642.31,0,0
17549.425,135.384,-6543.42,0,0
17809.75,132.983,-6447.02,0,0
18070.075,131.789,-6355.24,0,0
18330.4,129.764,-6264.62,0,0
18590.725,128.566,-6176.33,0,0
18851.05,127.315,-6090.7,0,0
19111.375,128.8,-6008.65,0,0
19371.7,128.525,-5931.33,0,0
19632.025,123.348,-5853.02,0,0
19892.35,121.063,-5775.42,0,0
20152.675,119.346,-5699.54,0,0
20413.0,118.66,-5625.63,0,0
20673.3,117.962,-5553.09,0,0
20933.65,118.46,-5481.36,0,0
21193.975,123.574,-5414.03,0,0
21454.3,130.659,-5352.57,0,0
21714.625,127.612,-5296.74,0,0
21974.9,121.724,-5231.54,0,0
22235.275,119.169,-5176.93,0,0
22495.6,115.037,-5116.27,0,0
22755.925,112.193,-5055.13,0,0
23016.25,112.385,-4999.97,0,0
23276.6,113.054,-4945.29,0,0
23536.9,108.986,-4889.54,0,0
23797.225,107.405,-4835.26,0,0
24057.55,107.124,-4784.2,0,0
24317.875,102.955,-4733.21,0,0
24578.2,101.209,-4682.62,0,0
24838.525,100.344,-4633.17,0,0
25098.85,99.6161,-4584.17,0,0
25359.175,98.219,-4536.25,0,0
25619.5,97.9091,-4489.92,0,0
25879.8,96.342,-4444,0,0
26140.1,96.6964,-4398.55,0,0
26400.5,95.9938,-4355.78,0,0
26660.8,96.6775,-4313.35,0,0
26921.1,95.2764,-4271.52,0,0
27181.4,94.2213,-4231.33,0,0
27441.8,92.1372,-4190.9,0,0
27702.1,91.0084,-4150.7,0,0
27962.4,90.4579,-4110.41,0,0
28222.7,90.5109,-4072.21,0,0
28483.1,89.8623,-4034.44,0,0
28743.4,89.4721,-3997.07,0,0
29003.7,91.1669,-3959.91,0,0
29264,90.5401,-3923.87,0,0
29524.4,93.7,-3888.82,0,0
29784.7,96.83,-3859.89,0,0
30045,93.0435,-3828.13,0,0
30305.3,94.4656,-3795.15,0,0
30565.7,91.1562,-3767.92,0,0
30826,88.0638,-3734.76,0,0
31086.3,87.06,-3702.67,0,0
31346.6,85.4015,-3671.72,0,0
31607,85.4307,-3641.3,0,0
31867.3,83.1444,-3611.6,0,0
32127.6,82.1215,-3581.11,0,0
32387.9,82.5953,-3550.85,0,0
32648.3,83.5802,-3522.69,0,0
32908.6,83.1067,-3496.31,0,0
33168.9,82.2786,-3470.38,0,0
33429.2,80.0955,-3442.52,0,0
33689.6,79.9386,-3415.63,0,0
33949.9,78.8904,-3389.78,0,0
34210.2,77.2708,-3363.71,0,0
34470.5,76.5628,-3337.55,0,0
34730.9,75.8954,-3311.7,0,0
34991.2,75.3417,-3286.94,0,0
35251.5,74.8809,-3262.41,0,0
35511.8,74.4301,-3238,0,0
35772.2,73.9399,-3213.9,0,0
36032.5,73.329,-3190.7,0,0
36292.8,72.7589,-3167.36,0,0
36553.1,72.1384,-3144.41,0,0
36813.5,71.7424,-3121.69,0,0
37073.8,71.476,-3099.31,0,0
37334.1,71.1815,-3077.12,0,0
37594.4,70.9433,-3055.94,0,0
37854.8,70.559,-3034.11,0,0
38115.1,70.2494,-3013.58,0,0
38375.4,69.441,-2992.51,0,0
38635.7,68.8237,-2972.1,0,0
38896.1,68.8247,-2951.81,0,0
39156.4,68.125,-2932.08,0,0
39416.7,67.8885,-2912.02,0,0
39677,67.57,-2892.48,0,0
39937.4,67.046,-2873.53,0,0
40197.7,66.8565,-2854.47,0,0
40458,66.5102,-2835.73,0,0
40718.3,66.3817,-2816.62,0,0
40978.7,66.1642,-2799.08,0,0
41239,65.562,-2780.81,0,0
41499.3,66.0423,-2763.1,0,0
41759.6,65.423,-2745.64,0,0
42020,64.9789,-2728.1,0,0
42280.275,65.1334,-2711.15,0,0
42540.6,64.6312,-2694.04,0,0
42800.925,64.4089,-2677.35,0,0
43061.25,63.7768,-2660.66,0,0
43321.575,63.6164,-2644.06,0,0
43581.9,63.5923,-2627.94,0,0
43842.225,63.4447,-2611.5,0,0
44102.55,63.2902,-2595.77,0,0
44362.875,62.7662,-2580.14,0,0
44623.2,62.5711,-2564.94,0,0
44883.525,62.1128,-2549.62,0,0
45143.85,62.1571,-2534.27,0,0
45404.175,62.2559,-2519.23,0,0
45664.5,61.9069,-2504.88,0,0
45924.825,61.7289,-2489.56,0,0
46185.15,62.0773,-2475.59,0,0
46445.475,61.3094,-2461.59,0,0
46705.8,60.7358,-2447.24,0,0
46966.125,60.8293,-2433.07,0,0
47226.45,61.0359,-2419.16,0,0
47486.775,61.1982,-2406.09,0,0
47747.1,60.6874,-2392.28,0,0
48007.425,60.5962,-2378.79,0,0
48267.75,61.2511,-2365.07,0,0
48528.075,61.6637,-2353.34,0,0
48788.4,61.2391,-2341.01,0,0
49048.725,60.8013,-2328.64,0,0
49309.05,60.1202,-2316.32,0,0
49569.375,59.2503,-2303.5,0,0
49829.7,59.0772,-2291.17,0,0
50090.025,58.5612,-2278.82,0,0
50350.35,58.0618,-2266.47,0,0
50610.675,57.8991,-2254.09,0,0
50871.0,57.8557,-2242.08,0,0
51131.325,57.6077,-2230.45,0,0
51391.65,57.1809,-2218.96,0,0
51651.975,56.7311,-2207.39,0,0
51912.3,56.3972,-2195.83,0,0
52172.625,55.9506,-2184.14,0,0
52432.95,55.767,-2172.75,0,0
52693.275,55.5183,-2161.37,0,0
52953.6,55.2545,-2150.11,0,0
53213.925,55.0535,-2139.03,0,0
53474.25,54.9008,-2127.99,0,0
53734.575,54.78,-2117.16,0,0
53994.9,54.5482,-2106.22,0,0
54255.225,54.5243,-2095.44,0,0
54515.55,54.4743,-2084.91,0,0
54775.875,54.3635,-2074.52,0,0
55036.2,54.2147,-2064.19,0,0
55296.525,54.1405,-2053.9,0,0
55556.85,54.0604,-2043.56,0,0
55817.175,54.0427,-2033.4,0,0
56077.5,53.9927,-2023.34,0,0
56337.825,53.8912,-2013.55,0,0
56598.15,53.879,-2003.61,0,0
56858.475,53.9993,-1993.86,0,0
57118.8,54.0679,-1984.27,0,0
57379.125,53.9718,-1974.57,0,0
57639.45,54.0602,-1965.07,0,0
57899.775,54.1366,-1955.71,0,0
58160.1,54.1367,-1946.52,0,0
58420.4,54.0928,-1937.24,0,0
58680.7,54.0807,-1927.86,0,0
58941.1,54.3117,-1918.7,0,0
59201.4,54.4366,-1909.55,0,0
59461.7,54.716,-1900.53,0,0
59722,55.0331,-1891.57,0,0
59982.4,55.6471,-1882.66,0,0
60242.7,56.3264,-1874.53,0,0
60503,56.3501,-1866.54,0,0
60763.3,56.3753,-1857.98,0,0
61023.7,56.7148,-1849.41,0,0
61284,57.5315,-1841.27,0,0
61544.3,58.2531,-1833.57,0,0
61804.6,58.967,-1826.28,0,0
62065,59.0849,-1819.75,0,0
62325.3,58.0015,-1812.67,0,0
62585.6,57.7761,-1804.83,0,0
62845.9,57.8231,-1797.7,0,0
63106.3,56.7687,-1790.93,0,0
63366.6,55.7378,-1782.92,0,0
63626.9,55.2534,-1775.44,0,0
63887.2,54.5285,-1767.79,0,0
64147.6,54.0437,-1760.16,0,0
64407.9,53.3189,-1752.48,0,0
64668.2,53.1465,-1744.76,0,0
64928.5,52.4817,-1737.71,0,0
65188.9,51.1761,-1730.07,0,0
65449.2,50.6422,-1721.64,0,0
65709.5,50.7492,-1713.49,0,0
65969.8,50.7512,-1705.72,0,0
66230.2,50.9568,-1698.17,0,0
66490.5,51.1093,-1690.63,0,0
66750.8,51.1942,-1683.56,0,0
67011.1,51.068,-1676.15,0,0
67271.5,51.4125,-1668.48,0,0
67531.8,51.9801,-1661.29,0,0
67792.1,52.4527,-1654.22,0,0
68052.4,53.3461,-1647.55,0,0
68312.8,53.5198,-1641.35,0,0
68573.1,53.4465,-1634.53,0,0
68833.4,54.1325,-1627.89,0,0
69093.7,54.7895,-1621.55,0,0
69354.1,55.2738,-1615.89,0,0
69614.4,55.5465,-1609.63,0,0
69874.7,56.1555,-1604.35,0,0
70135,55.7012,-1598.94,0,0
70395.4,55.4353,-1593.68,0,0
70655.7,54.278,-1588.36,0,0
70916,53.1508,-1582.21,0,0
71176.3,52.5893,-1576.09,0,0
71436.7,51.9554,-1570.08,0,0
71697,51.383,-1564.23,0,0
71957.3,50.2566,-1558.53,0,0
72217.6,49.01,-1552.34,0,0
72478,47.9877,-1545.61,0,0
72738.3,47.2316,-1539,0,0
72998.6,46.7155,-1532.36,0,0
73258.9,46.3714,-1525.87,0,0
73519.3,45.8435,-1519.48,0,0
73779.6,45.2434,-1512.81,0,0
74039.9,45.0498,-1506.03,0,0
74300.225,45.1141,-1499.37,0,0
74560.55,45.2167,-1493.02,0,0
74820.875,45.1989,-1486.62,0,0
75081.2,45.3297,-1480.33,0,0
75341.525,45.6231,-1474.03,0,0
75601.85,45.8157,-1467.93,0,0
75862.175,46.0932,-1461.74,0,0
76122.5,46.639,-1455.58,0,0
76382.825,47.0613,-1449.71,0,0
76643.15,47.4744,-1443.91,0,0
76903.475,47.935,-1438.15,0,0
77163.8,48.4003,-1432.42,0,0
77424.125,49.1068,-1426.7,0,0
77684.45,49.8383,-1421.39,0,0
77944.775,50.5624,-1416.09,0,0
78205.1,51.3315,-1411.07,0,0
78465.425,52.1063,-1406.27,0,0
78725.75,52.5724,-1401.72,0,0
78986.075,53.0878,-1397.19,0,0
79246.4,53.2909,-1392.85,0,0
79506.725,53.4809,-1388.51,0,0
79767.05,53.2942,-1384.48,0,0
80027.375,52.759,-1380.31,0,0
80287.7,51.8445,-1375.68,0,0
80548.025,51.2259,-1370.85,0,0
80808.35,50.5666,-1365.86,0,0
81068.675,50.0929,-1360.8,0,0
81329.0,49.649,-1355.75,0,0
81589.325,49.3212,-1350.69,0,0
81849.65,48.9006,-1345.53,0,0
82109.975,48.6763,-1340.42,0,0
82370.3,48.3721,-1335.32,0,0
82630.625,48.1818,-1330.09,0,0
82890.95,48.1751,-1324.93,0,0
83151.275,48.2254,-1319.83,0,0
83411.6,48.3809,-1314.74,0,0
83671.925,48.5291,-1309.88,0,0
83932.25,48.712,-1305.01,0,0
84192.575,48.876,-1300.21,0,0
84452.9,49.0633,-1295.54,0,0
84713.225,49.1294,-1290.9,0,0
84973.55,49.1712,-1286.19,0,0
85233.875,49.3186,-1281.42,0,0
85494.2,49.5616,-1276.69,0,0
85754.525,49.9883,-1272.03,0,0
86014.85,50.2681,-1267.72,0,0
86275.175,50.4919,-1263.39,0,0
86535.5,50.5955,-1259.17,0,0
86795.825,50.665,-1254.73,0,0
87056.15,50.7851,-1250.29,0,0
87316.475,51.0891,-1245.92,0,0
87576.8,51.2167,-1241.94,0,0
87837.125,51.1728,-1237.73,0,0
88097.45,51.1023,-1233.4,0,0
88357.775,51.3849,-1229.13,0,0
88618.1,51.4729,-1225.21,0,0
88878.425,50.9314,-1220.98,0,0
89138.75,51.0017,-1216.25,0,0
89399.075,51.4639,-1212.06,0,0
89659.4,51.6229,-1207.79,0,0
89919.725,52.0461,-1203.8,0,0
90180,52.3056,-1200.07,0,0
90440.4,51.7483,-1196.16,0,0
90700.7,51.3475,-1191.83,0,0
90961,51.3294,-1187,0,0
91221.3,52.136,-1182.7,0,0
91481.7,52.5514,-1178.85,0,0
91742,52.6322,-1174.86,0,0
92002.3,52.9132,-1170.55,0,0
92262.6,53.4642,-1166.44,0,0
92523,54.1866,-1162.71,0,0
92783.3,54.5578,-1159.09,0,0
93043.6,54.9449,-1155.47,0,0
93303.9,55.3687,-1151.86,0,0
93564.3,55.7915,-1148.43,0,0
93824.6,56.2281,-1145.17,0,0
94084.9,56.158,-1142.18,0,0
94345.2,55.8296,-1138.89,0,0
94605.6,55.4222,-1135.15,0,0
94865.9,55.5575,-1131.58,0,0
95126.2,55.2313,-1128.34,0,0
95386.5,54.5271,-1124.56,0,0
95646.9,54.1693,-1120.24,0,0
95907.2,54.4466,-1115.68,0,0
96167.5,55.331,-1111.58,0,0
96427.8,56.284,-1108.15,0,0
96688.2,56.8384,-1105.09,0,0
96948.5,57.2326,-1101.8,0,0
97208.8,57.8345,-1098.74,0,0
97469.1,58.4873,-1096.05,0,0
97729.5,58.3602,-1093.56,0,0
97989.8,58.1069,-1090.79,0,0
98250.1,57.8149,-1087.85,0,0
98510.4,57.7383,-1084.98,0,0
98770.8,57.3559,-1082.38,0,0
99031.1,56.7325,-1079.72,0,0
99291.4,55.7378,-1077.07,0,0
99551.7,54.5389,-1073.79,0,0
99812.1,53.4313,-1070.17,0,0
100072,52.6848,-1066.19,0,0
100333,52.5314,-1062.48,0,0
100593,52.2926,-1059.35,0,0
100853,51.5348,-1056.27,0,0
101114,50.6075,-1052.84,0,0
101374,49.6166,-1049.39,0,0
101634,48.4053,-1045.44,0,0
101895,47.5816,-1041.07,0,0
102155,47.1974,-1036.78,0,0
102415,47.0078,-1032.7,0,0
102676,46.6656,-1028.74,0,0
102936,46.193,-1024.59,0,0
103196,46.0092,-1020.19,0,0
103457,45.9928,-1015.94,0,0
103717,46.1436,-1011.61,0,0
103977,46.3947,-1007.29,0,0
104238,46.8807,-1002.99,0,0
104498,47.643,-998.843,0,0
104758,48.5107,-994.931,0,0
105019,49.3764,-991.275,0,0
105279,50.0982,-987.699,0,0
105539,50.92,-984.058,0,0
105800,51.9524,-980.417,0,0
106060,53.1536,-977.231,0,0
106320.175,54.1809,-974.276,0,0
106580.5,55.2559,-971.439,0,0
106840.825,56.2859,-968.932,0,0
107101.15,57.0152,-966.657,0,0
107361.475,57.5362,-964.42,0,0
107621.8,57.716,-962.368,0,0
107882.125,57.7424,-960.095,0,0
108142.45,57.5282,-957.987,0,0
108402.775,56.9249,-955.492,0,0
108663.1,56.5059,-952.733,0,0
108923.425,56.2081,-950.254,0,0
109183.75,55.5295,-947.567,0,0
109444.075,54.7997,-944.592,0,0
109704.4,54.2288,-941.543,0,0
109964.725,53.5453,-938.452,0,0
110225.05,52.874,-935.049,0,0
110485.375,52.3255,-931.51,0,0
110745.7,51.971,-927.94,0,0
111006.025,51.7257,-924.308,0,0
111266.35,51.6436,-920.752,0,0
111526.675,51.761,-917.131,0,0
111787.0,51.6741,-913.618,0,0
112047.325,51.8264,-910.145,0,0
112307.65,51.9132,-906.718,0,0
112567.975,52.0482,-903.248,0,0
112828.3,52.1702,-899.797,0,0
113088.625,52.3997,-896.259,0,0
113348.95,52.6498,-892.789,0,0
113609.275,53.0638,-889.42,0,0
113869.6,53.4315,-885.979,0,0
114129.925,53.7633,-882.62,0,0
114390.25,54.2497,-879.202,0,0
114650.575,54.7318,-875.949,0,0
114910.9,55.2665,-872.603,0,0
115171.225,55.9411,-869.277,0,0
115431.55,56.5792,-866.079,0,0
115691.875,57.2264,-863.021,0,0
115952.2,57.8016,-859.909,0,0
116212.525,58.4868,-856.814,0,0
116472.85,59.2253,-853.765,0,0
116733.175,59.9907,-850.792,0,0
116993.5,60.7816,-847.888,0,0
117253.825,61.5381,-845.031,0,0
117514.15,62.2787,-842.169,0,0
117774.475,63.1289,-839.383,0,0
118034.8,64.0289,-836.77,0,0
118295.125,64.8177,-834.293,0,0
118555.45,65.4917,-831.755,0,0
118815.775,66.2575,-829.192,0,0
119076.1,67.0967,-826.886,0,0
119336.425,67.6999,-824.663,0,0
119596.75,68.3348,-822.306,0,0
119857.075,68.9853,-820.206,0,0
120117.4,69.4799,-818.164,0,0
120377.725,69.8622,-816.143,0,0
120638.05,70.1286,-814.222,0,0
120898.375,70.1147,-812.296,0,0
121158.7,69.9428,-810.197,0,0
121419.025,69.7949,-807.877,0,0
121679.35,69.6923,-805.556,0,0
121939.675,69.5317,-803.208,0,0
122200.0,69.3086,-800.789,0,0
122460,69.0874,-798.24,0,0
122721,68.9386,-795.638,0,0
122981,68.8276,-793,0,0
123241,68.694,-790.349,0,0
123502,68.6231,-787.674,0,0
123762,68.4976,-785.02,0,0
124022,68.3231,-782.286,0,0
124283,68.2428,-779.444,0,0
124543,68.1354,-776.616,0,0
124803,68.0448,-773.739,0,0
125064,68.0266,-770.797,0,0
125324,68.0663,-767.787,0,0
125584,68.1493,-764.81,0,0
125845,68.2798,-761.787,0,0
126105,68.4583,-758.754,0,0
126365,68.6874,-755.738,0,0
126626,68.9419,-752.733,0,0
126886,69.247,-749.667,0,0
127146,69.6636,-746.598,0,0
127406,70.1625,-743.526,0,0
127667,70.8194,-740.551,0,0
127927,71.41,-737.736,0,0
128187,72.0178,-734.975,0,0
128448,72.6343,-732.176,0,0
128708,73.2436,-729.483,0,0
128968,73.8879,-726.825,0,0
129229,74.5129,-724.303,0,0
129489,74.9973,-721.792,0,0
129749,75.3932,-719.242,0,0
130010,75.7988,-716.539,0,0
130270,76.3909,-713.874,0,0
130530,76.9406,-711.288,0,0
130791,77.5432,-708.783,0,0
131051,78.0825,-706.358,0,0
131311,78.537,-704.035,0,0
131572,78.8441,-701.613,0,0
131832,79.1406,-699.227,0,0
132092,79.3635,-696.77,0,0
132353,79.4573,-694.245,0,0
132613,79.6113,-691.551,0,0
132873,79.8181,-688.834,0,0
133134,80.1071,-686.052,0,0
133394,80.3908,-683.3,0,0
133654,80.7144,-680.589,0,0
133915,81.0877,-677.842,0,0
134175,81.3613,-675.133,0,0
134435,81.5754,-672.41,0,0
134696,81.8081,-669.504,0,0
134956,82.1112,-666.612,0,0
135216,82.4546,-663.66,0,0
135477,82.8255,-660.582,0,0
135737,83.3049,-657.619,0,0
135997,83.8126,-654.644,0,0
136258,84.3136,-651.631,0,0
136518,84.8928,-648.695,0,0
136778,85.4096,-645.757,0,0
137039,85.8822,-642.685,0,0
137299,86.5434,-639.553,0,0
137559,87.2467,-636.522,0,0
137819,88.0077,-633.556,0,0
138080,88.7188,-630.649,0,0
138340.125,89.3003,-627.731,0,0
138600.45,89.9009,-624.717,0,0
138860.775,90.4742,-621.661,0,0
139121.1,91.1054,-618.535,0,0
139381.425,91.7457,-615.38,0,0
139641.75,92.3914,-612.209,0,0
139902.075,92.9073,-608.94,0,0
140162.4,93.4875,-605.417,0,0
140422.725,94.2205,-601.739,0,0
140683.05,95.1846,-597.945,0,0
140943.375,96.3325,-594.189,0,0
141203.7,97.6175,-590.331,0,0
141464.025,99.2025,-586.519,0,0
141724.35,100.911,-582.885,0,0
141984.675,102.748,-579.28,0,0
142245.0,104.713,-575.826,0,0
142505.325,106.756,-572.496,0,0
142765.65,108.839,-569.288,0,0
143025.975,110.937,-566.253,0,0
143286.3,112.88,-563.257,0,0
143546.625,114.808,-560.2,0,0
143806.95,116.828,-557.109,0,0
144067.275,118.916,-554.064,0,0
144327.6,121.029,-551.077,0,0
144587.925,123.093,-548.056,0,0
144848.25,125.253,-544.887,0,0
145108.575,127.699,-541.737,0,0
145368.9,130.249,-538.804,0,0
145629.225,132.822,-535.964,0,0
145889.55,135.374,-533.224,0,0
146149.875,137.868,-530.433,0,0
146410.2,140.456,-527.555,0,0
146670.525,143.219,-524.688,0,0
146930.85,146.037,-521.916,0,0
147191.175,148.891,-519.111,0,0
147451.5,151.909,-516.205,0,0
147711.825,155.195,-513.398,0,0
147972.15,158.55,-510.745,0,0
148232.475,161.973,-507.994,0,0
148492.8,165.765,-505.234,0,0
148753.125,169.769,-502.609,0,0
149013.45,174.126,-500.032,0,0
149273.775,179.001,-497.707,0,0
149534.1,184.232,-495.949,0,0
149794.425,189.613,-494.791,0,0
150054.75,194.912,-494.1,0,0
150315.075,200.361,-493.655,0,0
150575.4,206.181,-493.934,0,0
150835.725,211.805,-495.346,0,0
151096.05,216.587,-497.455,0,0
151356.375,220.698,-499.613,0,0
151616.7,224.666,-501.9,0,0
151877.025,228.319,-504.743,0,0
152137.35,231.141,-508.004,0,0
152397.675,233.187,-511.22,0,0
152658.0,234.688,-514.198,0,0
152918.325,235.818,-516.926,0,0
153178.65,236.765,-519.501,0,0
153438.975,237.472,-522.169,0,0
153699.3,237.55,-524.891,0,0
153959.625,237.079,-527.241,0,0
154219.95,236.243,-529.075,0,0
154480,235.348,-530.413,0,0
154741,234.403,-531.516,0,0
155001,233.467,-532.22,0,0
155261,232.563,-532.651,0,0
155522,231.871,-532.948,0,0
155782,231.292,-533.388,0,0
156042,230.367,-533.78,0,0
156303,229.132,-534.013,0,0
156563,228.006,-533.735,0,0
156823,227.03,-533.414,0,0
157084,225.831,-533.126,0,0
157344,224.402,-532.247,0,0
157604,223.178,-530.881,0,0
157864,222.414,-529.366,0,0
158125,221.881,-527.786,0,0
158385,221.694,-526.208,0,0
158645,221.662,-524.629,0,0
158906,221.824,-523.321,0,0
159166,221.909,-522.083,0,0
159426,221.962,-520.862,0,0
159687,222.09,-519.55,0,0
159947,222.146,-518.378,0,0
160207,222.292,-516.98,0,0
160468,222.638,-515.718,0,0
160728,222.806,-514.494,0,0
160988,222.907,-512.864,0,0
161249,223.737,-510.781,0,0
161509,225.3,-509.084,0,0
161769,227.274,-508.199,0,0
162030,229.394,-508.101,0,0
162290,231.345,-509.157,0,0
162550,232.115,-510.959,0,0
162811,231.917,-512.665,0,0
163071,230.893,-514.398,0,0
163331,229.028,-515.594,0,0
163592,226.923,-516.085,0,0
163852,224.856,-516.265,0,0
164112,222.323,-516.376,0,0
164373,219.517,-515.698,0,0
164633,216.739,-514.675,0,0
164893,213.816,-513.245,0,0
165154,210.918,-511.475,0,0
165414,207.999,-509.283,0,0
165674,205.093,-506.513,0,0
165935,202.649,-502.966,0,0
166195,200.669,-499.519,0,0
166455,198.925,-496.085,0,0
166716,197.113,-492.454,0,0
166976,195.624,-488.399,0,0
167236,194.581,-484.415,0,0
167497,193.539,-480.541,0,0
167757,192.415,-476.58,0,0
168017,191.514,-472.106,0,0
168277,191.037,-467.516,0,0
168538,190.893,-462.828,0,0
168798,191.218,-458.391,0,0
169058,191.588,-454.247,0,0
169319,191.708,-450.245,0,0
169579,191.665,-445.878,0,0
169839,191.963,-441.1,0,0
170100,192.77,-436.378,0,0
170360.075,193.87,-431.992,0,0
170620.4,194.777,-427.911,0,0
170880.725,195.326,-423.606,0,0
171141.05,196.067,-418.806,0,0
171401.375,197.293,-413.881,0,0
171661.7,198.71,-409.098,0,0
171922.025,200.359,-404.248,0,0
172182.35,202.109,-399.57,0,0
172442.675,203.9,-394.849,0,0
172703.0,205.907,-389.954,0,0
172963.325,208.179,-385.085,0,0
173223.65,210.599,-380.431,0,0
173483.975,212.959,-375.796,0,0
173744.3,215.482,-370.798,0,0
174004.625,218.324,-365.715,0,0
174264.95,221.57,-360.652,0,0
174525.275,225.099,-355.683,0,0
174785.6,229.01,-350.709,0,0
175045.925,233.268,-345.997,0,0
175306.25,237.826,-341.313,0,0
175566.575,242.934,-337.02,0,0
175826.9,248.275,-333.255,0,0
176087.225,253.732,-330.039,0,0
176347.55,258.955,-327.308,0,0
176607.875,263.992,-324.837,0,0
176868.2,268.778,-322.237,0,0
177128.525,273.873,-319.473,0,0
177388.85,279.468,-317.023,0,0
177649.175,285.48,-315.224,0,0
177909.5,291.399,-314.464,0,0
178169.825,296.561,-314.426,0,0
178430.15,301.046,-314.371,0,0
178690.475,305.319,-314.236,0,0
178950.8,309.465,-314.632,0,0
179211.125,312.719,-315.198,0,0
179471.45,315.529,-314.24,0,0
179731.775,318.307,-314.87,0,0
179992.1,319.901,-315.299,0,0
180252.425,320.845,-314.768,0,0
180512.75,321.691,-313.385,0,0
180773.075,322.624,-311.515,0,0
181033.4,323.556,-309.094,0,0
181293.725,324.478,-305.936,0,0
181554.05,325.939,-301.949,0,0
181814.375,328.163,-297.592,0,0
182074.7,331.158,-293.161,0,0
182335.025,334.775,-289.124,0,0
182595.35,338.243,-285.594,0,0
182855.675,341.432,-281.769,0,0
183116.0,344.675,-277.37,0,0
183376.325,348.616,-272.538,0,0
183636.65,353.217,-267.649,0,0
183896.975,358.439,-263.073,0,0
184157.3,363.686,-258.61,0,0
184417.625,369.426,-253.947,0,0
184677.95,375.761,-249.346,0,0
184938.275,382.849,-245.365,0,0
185198.6,389.945,-241.934,0,0
185458.925,396.989,-238.816,0,0
185719.25,404.217,-235.766,0,0
185979.575,411.586,-233.011,0,0
186239.9,419.051,-230.237,0,0
186500,426.872,-228.006,0,0
186761,434.54,-226.196,0,0
187021,441.8,-224.02,0,0
187281,449.731,-221.505,0,0
187542,458.341,-219.374,0,0
187802,467.297,-217.999,0,0
188062,475.927,-217.163,0,0
188322,484.662,-216.409,0,0
188583,493.194,-216.126,0,0
188843,501.656,-216.293,0,0
189103,509.419,-216.437,0,0
189364,516.938,-215.925,0,0
189624,524.874,-215.104,0,0
189884,533.172,-214.233,0,0
190145,541.81,-213.211,0,0
190405,551.002,-212.134,0,0
190665,560.389,-211.434,0,0
190926,569.976,-210.38,0,0
191186,580.465,-208.944,0,0
191446,592.265,-207.983,0,0
191707,604.619,-208.122,0,0
191967,617.16,-208.705,0,0
192227,630.297,-209.821,0,0
192488,643.905,-211.613,0,0
192748,657.96,-214.102,0,0
193008,672.619,-217.382,0,0
193269,687.961,-221.892,0,0
193529,703.433,-228.107,0,0
193789,718.46,-235.763,0,0
194050,732.8,-244.789,0,0
194310,746.135,-254.769,0,0
194570,758.553,-265.225,0,0
194831,770.522,-276.117,0,0
195091,782.126,-287.55,0,0
195351,792.706,-299.634,0,0
195612,802.679,-311.85,0,0
195872,812.023,-324.256,0,0
196132,820.926,-336.851,0,0
196393,829.387,-349.685,0,0
196653,837.328,-362.7,0,0
196913,844.85,-375.7,0,0
197174,852.498,-388.717,0,0
197434,860.246,-402.412,0,0
197694,867.65,-416.761,0,0
197955,874.75,-431.837,0,0
198215,881.381,-447.89,0,0
198475,887.05,-465.024,0,0
198735,891.046,-482.878,0,0
198996,893.54,-500.433,0,0
199256,894.912,-517.482,0,0
199516,895.648,-533.929,0,0
199777,896.361,-550.022,0,0
200037,897.047,-566.287,0,0
200297,897.36,-583.126,0,0
200558,896.867,-600.648,0,0
200818,895.359,-618.339,0,0
201078,892.621,-636.479,0,0
201339,888.243,-654.973,0,0
201599,882.054,-672.403,0,0
201859,874.905,-688.652,0,0
202120,867.525,-703.739,0,0
202380.025,859.425,-718.629,0,0
202640.35,850.986,-733.188,0,0
202900.675,841.557,-747.356,0,0
203161.0,831.559,-760.291,0,0
203421.325,820.98,-772.154,0,0
203681.65,810.289,-782.927,0,0
203941.975,799.936,-792.939,0,0
204202.3,789.788,-802.567,0,0
204462.625,779.475,-812.08,0,0
204722.95,769.202,-820.968,0,0
204983.275,758.745,-830.41,0,0
205243.6,746.989,-839.693,0,0
205503.925,734.138,-847.84,0,0
205764.25,720.679,-854.023,0,0
206024.575,707.944,-858.724,0,0
206284.9,695.913,-862.619,0,0
206545.225,684.075,-866.018,0,0
206805.55,672.709,-868.629,0,0
207065.875,661.734,-870.837,0,0
207326.2,651.232,-872.39,0,0
207586.525,641.344,-873.233,0,0
207846.85,632.261,-873.748,0,0
208107.175,624.04,-874.36,0,0
208367.5,616.365,-875.09,0,0
208627.825,609.262,-876.07,0,0
208888.15,602.466,-877.231,0,0
209148.475,596.042,-879.176,0,0
209408.8,589.518,-881.497,0,0
209669.125,582.584,-884.44,0,0
209929.45,574.561,-887.502,0,0
210189.775,566.02,-889.953,0,0
210450.1,557.495,-891.87,0,0
210710.425,548.802,-893.492,0,0
210970.75,539.886,-894.849,0,0
211231.075,530.487,-895.761,0,0
211491.4,520.929,-895.878,0,0
211751.725,511.309,-895.204,0,0
212012.05,502.931,-894.156,0,0
212272.375,493.89,-891.276,0,0
212532.7,486.3,-888.983,0,0
212793.025,479.169,-886.72,0,0
213053.35,472.144,-884.392,0,0
213313.675,465.73,-882.159,0,0
213574.0,458.964,-879.403,0,0
213834.325,452.511,-876.119,0,0
214094.65,446.684,-873.268,0,0
214354.975,441.045,-870.354,0,0
214615.3,435.754,-867.483,0,0
214875.625,430.713,-864.501,0,0
215135.95,425.924,-861.782,0,0
215396.275,421.009,-858.857,0,0
215656.6,416.262,-855.927,0,0
215916.925,411.721,-852.722,0,0
216177.25,407.566,-849.364,0,0
216437.575,403.659,-846.082,0,0
216697.9,399.972,-842.895,0,0
216958.225,396.512,-839.669,0,0
217218.55,393.277,-836.485,0,0
217478.875,390.301,-833.261,0,0
217739.2,387.546,-830.202,0,0
217999.525,385.023,-827.315,0,0
218259.85,382.438,-824.497,0,0
218520,379.794,-821.215,0,0
218780,377.762,-818.409,0,0
219041,375.884,-815.553,0,0
219301,374.044,-812.787,0,0
219561,372.647,-810.194,0,0
219822,371.295,-807.839,0,0
220082,369.915,-805.509,0,0
220342,368.563,-803.335,0,0
220603,367.109,-801.252,0,0
220863,365.812,-799.084,0,0
221123,364.544,-796.768,0,0
221384,363.852,-794.646,0,0
221644,363.13,-792.59,0,0
221904,362.501,-790.597,0,0
222165,362.094,-788.804,0,0
222425,362.306,-787.549,0,0
222685,362.258,-786.5,0,0
222946,362.148,-785.774,0,0
223206,362.052,-785.49,0,0
223466,361.431,-785.211,0,0
223727,360.804,-785.032,0,0
223987,359.924,-784.504,0,0
224247,359.235,-784.206,0,0
224508,358.516,-784.043,0,0
224768,357.777,-784.053,0,0
225028,356.59,-783.863,0,0
225289,355.411,-783.486,0,0
225549,354.416,-783.019,0,0
225809,353.666,-782.429,0,0
226070,353.15,-782.118,0,0
226330,352.741,-781.803,0,0
226590,352.341,-781.679,0,0
226851,352.11,-781.758,0,0
227111,351.878,-782.121,0,0
227371,351.698,-782.597,0,0
227632,351.353,-783.216,0,0
227892,351.056,-784.076,0,0
228152,350.783,-785.227,0,0
228413,350.399,-786.684,0,0
228673,349.77,-788.496,0,0
228933,348.85,-790.44,0,0
229193,347.62,-792.556,0,0
229454,346,-794.559,0,0
229714,344.14,-796.647,0,0
229974,341.911,-798.644,0,0
230235,339.242,-800.504,0,0
230495,336.627,-802.184,0,0
230755,333.749,-803.663,0,0
231016,330.712,-805.128,0,0
231276,327.67,-806.28,0,0
231536,324.534,-807.263,0,0
231797,321.435,-808.318,0,0
232057,318.341,-809.23,0,0
232317,315.033,-810.13,0,0
232578,311.614,-810.893,0,0
232838,308.123,-811.442,0,0
233098,304.519,-811.815,0,0
233359,301.09,-812.1,0,0
233619,297.522,-812.3,0,0
233879,293.943,-812.274,0,0
234140,290.421,-812.248,0,0
234400,286.907,-812.139,0,0
234660.3,283.292,-811.767,0,0
234920.625,279.797,-811.363,0,0
235180.95,276.346,-810.876,0,0
235441.275,272.898,-810.222,0,0
235701.6,269.433,-809.619,0,0
235961.925,265.955,-808.918,0,0
236222.25,262.611,-808.249,0,0
236482.575,259.238,-807.412,0,0
236742.9,255.758,-806.491,0,0
237003.225,252.277,-805.479,0,0
237263.55,248.83,-804.331,0,0
237523.875,245.415,-803.138,0,0
237784.2,242.05,-801.766,0,0
238044.525,238.718,-800.313,0,0
238304.85,235.487,-798.722,0,0
238565.175,232.326,-797.073,0,0
238825.5,229.375,-795.331,0,0
239085.825,226.382,-793.668,0,0
239346.15,223.454,-791.939,0,0
239606.475,220.651,-790.027,0,0
239866.8,217.838,-788.142,0,0
240127.125,215.11,-786.093,0,0
240387.45,212.607,-784.124,0,0
240647.775,210.152,-782.137,0,0
240908.1,207.77,-780.21,0,0
241168.425,205.483,-778.217,0,0
241428.75,203.141,-776.264,0,0
241689.075,200.871,-774.276,0,0
241949.4,198.664,-772.243,0,0
242209.725,196.531,-770.087,0,0
242470.05,194.607,-767.918,0,0
242730.375,192.829,-765.804,0,0
242990.7,191.179,-763.875,0,0
243251.025,189.507,-762.051,0,0
243511.35,187.819,-760.276,0,0
243771.675,186.151,-758.542,0,0
244032.0,184.519,-756.859,0,0
244292.325,182.827,-755.19,0,0
244552.65,181.104,-753.576,0,0
244812.975,179.567,-752.046,0,0
245073.3,177.838,-750.559,0,0
245333.625,176.09,-749.189,0,0
245593.95,174.288,-747.848,0,0
245854.275,172.442,-746.547,0,0
246114.6,170.479,-745.432,0,0
246374.925,168.199,-744.256,0,0
246635.25,165.759,-742.927,0,0
246895.575,163.135,-741.396,0,0
247155.9,160.445,-739.616,0,0
247416.225,157.756,-737.722,0,0
247676.55,155.175,-735.536,0,0
247936.875,152.57,-733.22,0,0
248197.2,150.033,-730.737,0,0
248457.525,147.7,-728.115,0,0
248717.85,145.354,-725.429,0,0
248978.175,143.226,-722.74,0,0
249238.5,141.116,-719.86,0,0
249498.825,139.151,-717.024,0,0
249759.15,137.188,-714.004,0,0
250019.475,135.308,-711.042,0,0
250279.8,133.477,-707.947,0,0
250540,131.723,-704.791,0,0
250800,130.142,-701.436,0,0
251061,128.709,-697.981,0,0
251321,127.49,-694.483,0,0
251581,126.364,-691.144,0,0
251842,125.483,-687.67,0,0
252102,124.699,-684.229,0,0
252362,124.106,-681.004,0,0
252623,123.556,-677.659,0,0
252883,123.099,-674.38,0,0
253143,122.706,-671.19,0,0
253404,122.426,-668.043,0,0
253664,122.093,-664.89,0,0
253924,121.762,-661.567,0,0
254185,121.528,-658.423,0,0
254445,121.365,-655.336,0,0
254705,121.245,-652.167,0,0
254966,121.255,-649.038,0,0
255226,121.34,-645.907,0,0
255486,121.537,-642.714,0,0
255747,121.866,-639.541,0,0
256007,122.383,-636.417,0,0
256267,123.052,-633.342,0,0
256528,123.826,-630.361,0,0
256788,124.723,-627.47,0,0
257048,125.716,-624.71,0,0
257309,126.789,-622.064,0,0
257569,127.846,-619.508,0,0
257829,128.95,-617.053,0,0
258090,130.092,-614.63,0,0
258350,131.3,-612.28,0,0
258610,132.524,-610.032,0,0
258871,133.786,-607.739,0,0
259131,135.051,-605.596,0,0
259391,136.455,-603.347,0,0
259651,137.944,-601.258,0,0
259912,139.578,-599.305,0,0
260172,141.28,-597.384,0,0
260432,143.033,-595.654,0,0
260693,144.773,-594.051,0,0
260953,146.556,-592.559,0,0
261213,148.318,-591.186,0,0
261474,150.124,-589.915,0,0
261734,151.936,-588.733,0,0
261994,153.755,-587.715,0,0
262255,155.535,-586.788,0,0
262515,157.366,-585.954,0,0
262775,159.166,-585.245,0,0
263036,160.903,-584.687,0,0
263296,162.65,-584.291,0,0
263556,164.253,-583.865,0,0
263817,165.837,-583.55,0,0
264077,167.337,-583.381,0,0
264337,168.854,-583.223,0,0
264598,170.266,-583.214,0,0
264858,171.653,-583.283,0,0
265118,172.945,-583.478,0,0
265379,174.087,-583.751,0,0
265639,175.128,-584.035,0,0
265899,176.025,-584.372,0,0
266160,176.8,-584.674,0,0
266420,177.498,-584.943,0,0
266680.25,178.11,-585.161,0,0
266940.575,178.724,-585.428,0,0
267200.9,179.279,-585.66,0,0
267461.225,179.768,-585.886,0,0
267721.55,180.202,-586.13,0,0
267981.875,180.569,-586.374,0,0
268242.2,180.795,-586.614,0,0
268502.525,180.985,-586.852,0,0
268762.85,181.024,-586.981,0,0
269023.175,181.018,-587.038,0,0
269283.5,180.907,-586.999,0,0
269543.825,180.789,-586.751,0,0
269804.15,180.691,-586.383,0,0
270064.475,180.681,-585.816,0,0
270324.8,180.703,-585.257,0,0
270585.125,180.819,-584.546,0,0
270845.45,181.124,-583.648,0,0
271105.775,181.659,-582.762,0,0
271366.1,182.258,-581.936,0,0
271626.425,183.078,-581.161,0,0
271886.75,183.936,-580.41,0,0
272147.075,184.887,-579.669,0,0
272407.4,185.974,-578.908,0,0
272667.725,187.263,-578.134,0,0
272928.05,188.762,-577.511,0,0
273188.375,190.46,-577.015,0,0
273448.7,192.262,-576.671,0,0
273709.025,194.264,-576.513,0,0
273969.35,196.377,-576.495,0,0
274229.675,198.749,-576.694,0,0
274490.0,201.314,-577.29,0,0
274750.325,204.041,-578.294,0,0
275010.65,206.706,-579.854,0,0
275270.975,209.216,-581.913,0,0
275531.3,211.536,-584.429,0,0
275791.625,213.474,-587.456,0,0
276051.95,214.959,-590.8,0,0
276312.275,215.973,-594.396,0,0
276572.6,216.411,-598.143,0,0
276832.925,216.252,-601.884,0,0
277093.25,215.603,-605.478,0,0
277353.575,214.555,-608.849,0,0
277613.9,213.178,-612.007,0,0
277874.225,211.553,-614.935,0,0
278134.55,209.721,-617.6,0,0
278394.875,207.755,-620.082,0,0
278655.2,205.624,-622.345,0,0
278915.525,203.402,-624.367,0,0
279175.85,201.038,-626.255,0,0
279436.175,198.624,-627.959,0,0
279696.5,196.133,-629.478,0,0
279956.825,193.562,-630.84,0,0
280217.15,190.857,-631.981,0,0
280477.475,188.206,-632.942,0,0
280737.8,185.501,-633.624,0,0
280998.125,182.974,-634.197,0,0
281258.45,180.49,-634.698,0,0
281518.775,178.07,-635.224,0,0
281779.1,175.502,-635.743,0,0
282039.425,172.852,-636.216,0,0
282299.75,170.04,-636.542,0,0
282560,167.068,-636.681,0,0
282820,164.013,-636.537,0,0
283081,160.947,-636.11,0,0
283341,158.001,-635.333,0,0
283601,155.239,-634.284,0,0
283862,152.823,-633.079,0,0
284122,150.71,-631.882,0,0
284382,148.787,-630.897,0,0
284643,146.934,-630.127,0,0
284903,144.885,-629.568,0,0
285163,142.572,-629.002,0,0
285424,140.014,-628.361,0,0
285684,137.22,-627.434,0,0
285944,134.311,-626.219,0,0
286205,131.375,-624.67,0,0
286465,128.473,-622.759,0,0
286725,125.661,-620.486,0,0
286986,123.056,-617.913,0,0
287246,120.698,-615.049,0,0
287506,118.59,-611.963,0,0
287767,116.775,-608.646,0,0
288027,115.285,-605.196,0,0
288287,114.09,-601.606,0,0
288548,113.199,-597.906,0,0
288808,112.676,-594.091,0,0
289068,112.58,-590.159,0,0
289329,112.991,-586.223,0,0
289589,113.936,-582.429,0,0
289849,115.314,-578.904,0,0
290109,117.043,-575.642,0,0
290370,119.081,-572.686,0,0
290630,121.437,-570.033,0,0
290890,124.116,-567.757,0,0
291151,127.034,-565.916,0,0
291411,130.138,-564.589,0,0
291671,133.356,-563.812,0,0
291932,136.543,-563.658,0,0
292192,139.601,-564.073,0,0
292452,142.415,-565.079,0,0
292713,144.792,-566.586,0,0
292973,146.61,-568.481,0,0
293233,147.844,-570.543,0,0
293494,148.465,-572.627,0,0
293754,148.571,-574.614,0,0
294014,148.223,-576.34,0,0
294275,147.487,-577.694,0,0
294535,146.587,-578.551,0,0
294795,145.713,-579.005,0,0
295056,145.013,-579.114,0,0
295316,144.591,-578.944,0,0
295576,144.507,-578.591,0,0
295837,144.913,-578.356,0,0
296097,145.709,-578.378,0,0
296357,146.819,-578.899,0,0
296618,147.923,-580.177,0,0
296878,148.637,-581.997,0,0
297138,148.761,-584.174,0,0
297399,148.291,-586.417,0,0
297659,147.273,-588.551,0,0
297919,145.839,-590.431,0,0
298180,144.112,-592.011,0,0
298440,142.181,-593.257,0,0
298700.2,140.18,-594.184,0,0
298960.525,138.201,-594.844,0,0
299220.85,136.216,-595.333,0,0
299481.175,134.253,-595.658,0,0
299741.5,132.312,-595.858,0,0
300001.825,130.315,-595.901,0,0
300262.15,128.33,-595.746,0,0
300522.475,126.388,-595.399,0,0
300782.8,124.556,-594.849,0,0
301043.125,122.856,-594.139,0,0
301303.45,121.357,-593.314,0,0
301563.775,120.074,-592.434,0,0
301824.1,118.996,-591.551,0,0
302084.425,118.105,-590.762,0,0
302344.75,117.369,-590.099,0,0
302605.075,116.705,-589.605,0,0
302865.4,116.055,-589.295,0,0
303125.725,115.339,-589.102,0,0
303386.05,114.56,-589.033,0,0
303646.375,113.689,-589.026,0,0
303906.7,112.707,-589.087,0,0
304167.025,111.619,-589.187,0,0
304427.35,110.384,-589.286,0,0
304687.675,109.042,-589.347,0,0
304948.0,107.561,-589.357,0,0
305208.325,105.974,-589.268,0,0
305468.65,104.32,-589.062,0,0
305728.975,102.6,-588.735,0,0
305989.3,100.894,-588.296,0,0
306249.625,99.1594,-587.754,0,0
306509.95,97.4426,-587.12,0,0
306770.275,95.7453,-586.374,0,0
307030.6,94.0455,-585.505,0,0
307290.925,92.378,-584.552,0,0
307551.25,90.7925,-583.499,0,0
307811.575,89.293,-582.386,0,0
308071.9,87.8637,-581.229,0,0
308332.225,86.5009,-580.033,0,0
308592.55,85.1982,-578.803,0,0
308852.875,83.9636,-577.537,0,0
309113.2,82.8083,-576.26,0,0
309373.525,81.7256,-575.001,0,0
309633.85,80.6772,-573.739,0,0
309894.175,79.6664,-572.518,0,0
310154.5,78.6823,-571.308,0,0
310414.825,77.686,-570.099,0,0
310675.15,76.7027,-568.843,0,0
310935.475,75.7361,-567.585,0,0
311195.8,74.8188,-566.306,0,0
311456.125,73.9273,-565.012,0,0
311716.45,73.0661,-563.701,0,0
311976.775,72.2435,-562.377,0,0
312237.1,71.4375,-561.045,0,0
312497.425,70.6876,-559.685,0,0
312757.75,69.9914,-558.345,0,0
313018.075,69.323,-556.981,0,0
313278.4,68.7025,-555.637,0,0
313538.725,68.1307,-554.327,0,0
313799.05,67.5924,-553.036,0,0
314059.375,67.0282,-551.777,0,0
314319.7,66.5109,-550.499,0,0
314580,65.9342,-549.269,0,0
314840,65.4274,-548.009,0,0
315101,64.9429,-546.74,0,0
315361,64.422,-545.523,0,0
315621,63.9968,-544.316,0,0
315882,63.5481,-542.964,0,0
316142,63.1244,-541.641,0,0
316402,62.7048,-540.462,0,0
316663,62.3283,-539.169,0,0
316923,61.959,-537.93,0,0
317183,61.584,-536.667,0,0
317444,61.3252,-535.339,0,0
317704,61.1254,-534.131,0,0
317964,60.8665,-532.969,0,0
318225,60.5964,-531.671,0,0
318485,60.4212,-530.603,0,0
318745,60.2445,-529.411,0,0
319006,60.0563,-528.317,0,0
319266,59.8534,-527.153,0,0
319526,59.7011,-526.139,0,0
319787,59.4765,-525.028,0,0
320047,59.3101,-524.061,0,0
320307,59.0523,-522.915,0,0
320567,58.8847,-521.838,0,0
320828,58.6706,-520.732,0,0
321088,58.4484,-519.745,0,0
321348,58.1862,-518.676,0,0
321609,58.0791,-517.561,0,0
321869,57.8785,-516.439,0,0
322129,57.7146,-515.382,0,0
322390,57.446,-514.28,0,0
322650,57.3022,-513.117,0,0
322910,57.085,-512.075,0,0
323171,56.9222,-510.899,0,0
323431,56.7809,-509.745,0,0
323691,56.6368,-508.466,0,0
323952,56.5134,-507.276,0,0
324212,56.44,-505.965,0,0
324472,56.3938,-504.68,0,0
324733,56.3713,-503.313,0,0
324993,56.5236,-501.953,0,0
325253,56.7956,-500.54,0,0
325514,57.0922,-499.241,0,0
325774,57.5568,-497.897,0,0
326034,58.0893,-496.679,0,0
326295,58.6244,-495.498,0,0
326555,59.2948,-494.497,0,0
326815,59.9873,-493.647,0,0
327076,60.6833,-492.853,0,0
327336,61.3641,-492.206,0,0
327596,61.9858,-491.649,0,0
327857,62.4717,-491.141,0,0
328117,62.9943,-490.696,0,0
328377,63.3856,-490.299,0,0
328638,63.7323,-489.872,0,0
328898,64.0466,-489.469,0,0
329158,64.3698,-489.084,0,0
329419,64.6796,-488.685,0,0
329679,64.9331,-488.272,0,0
329939,65.2793,-487.914,0,0
330200,65.6317,-487.671,0,0
330460,65.8592,-487.344,0,0
330720.15,66.1169,-487.196,0,0
330980.475,66.255,-486.989,0,0
331240.8,66.4193,-486.913,0,0
331501.125,66.4338,-486.867,0,0
331761.45,66.4522,-486.797,0,0
332021.775,66.4229,-486.784,0,0
332282.1,66.2454,-486.705,0,0
332542.425,66.0471,-486.702,0,0
332802.75,65.7478,-486.623,0,0
333063.075,65.3653,-486.539,0,0
333323.4,64.921,-486.353,0,0
333583.725,64.3979,-486.159,0,0
333844.05,63.9078,-485.89,0,0
334104.375,63.3556,-485.441,0,0
334364.7,62.7436,-484.957,0,0
334625.025,62.2495,-484.433,0,0
334885.35,61.8067,-483.865,0,0
335145.675,61.3296,-483.285,0,0
335406.0,60.8297,-482.65,0,0
335666.325,60.502,-481.965,0,0
335926.65,60.0406,-481.292,0,0
336186.975,59.645,-480.598,0,0
336447.3,59.2295,-480.016,0,0
336707.625,58.8529,-479.264,0,0
336967.95,58.4582,-478.526,0,0
337228.275,58.1414,-477.772,0,0
337488.6,57.7989,-476.931,0,0
337748.925,57.4381,-476.181,0,0
338009.25,57.2256,-475.429,0,0
338269.575,56.9658,-474.63,0,0
338529.9,56.6592,-473.851,0,0
338790.225,56.3428,-473.039,0,0
339050.55,56.0953,-472.218,0,0
339310.875,55.8461,-471.381,0,0
339571.2,55.6443,-470.517,0,0
339831.525,55.4274,-469.641,0,0
340091.85,55.2738,-468.795,0,0
340352.175,55.103,-467.947,0,0
340612.5,54.9505,-467.014,0,0
340872.825,54.8631,-466.176,0,0
341133.15,54.7526,-465.261,0,0
341393.475,54.6841,-464.384,0,0
341653.8,54.6056,-463.566,0,0
341914.125,54.5724,-462.726,0,0
342174.45,54.5675,-461.826,0,0
342434.775,54.4389,-460.989,0,0
342695.1,54.4192,-460.111,0,0
342955.425,54.4314,-459.243,0,0
343215.75,54.4307,-458.334,0,0
343476.075,54.4437,-457.494,0,0
343736.4,54.4954,-456.607,0,0
343996.725,54.6022,-455.728,0,0
344257.05,54.6581,-454.869,0,0
344517.375,54.749,-454.017,0,0
344777.7,54.8785,-453.166,0,0
345038.025,55.0758,-452.272,0,0
345298.35,55.255,-451.473,0,0
345558.675,55.3999,-450.67,0,0
345819.0,55.6068,-449.808,0,0
346079.325,55.8248,-449.072,0,0
346339.65,56.0831,-448.324,0,0
346599.975,56.3333,-447.568,0,0
346860,56.5712,-446.889,0,0
347121,56.794,-446.118,0,0
347381,57.0818,-445.414,0,0
347641,57.3486,-444.738,0,0
347902,57.6287,-444.061,0,0
348162,57.9023,-443.422,0,0
348422,58.2225,-442.741,0,0
348683,58.5454,-442.076,0,0
348943,58.8326,-441.509,0,0
349203,59.1728,-440.856,0,0
349464,59.5236,-440.284,0,0
349724,59.8519,-439.695,0,0
349984,60.1612,-439.185,0,0
350245,60.4875,-438.687,0,0
350505,60.8413,-438.166,0,0
350765,61.1699,-437.692,0,0
351025,61.5136,-437.211,0,0
351286,61.8755,-436.83,0,0
351546,62.1469,-436.428,0,0
351806,62.4768,-436.066,0,0
352067,62.6973,-435.676,0,0
352327,62.9877,-435.348,0,0
352587,63.1705,-435.032,0,0
352848,63.4018,-434.602,0,0
353108,63.5369,-434.187,0,0
353368,63.7294,-433.81,0,0
353629,63.9307,-433.409,0,0
353889,64.1104,-433.012,0,0
354149,64.3537,-432.554,0,0
354410,64.5558,-432.161,0,0
354670,64.8216,-431.802,0,0
354930,65.0601,-431.386,0,0
355191,65.3224,-431.006,0,0
355451,65.5568,-430.619,0,0
355711,65.7846,-430.285,0,0
355972,66.0338,-429.925,0,0
356232,66.2677,-429.532,0,0
356492,66.6009,-429.217,0,0
356753,66.8178,-428.815,0,0
357013,67.1538,-428.505,0,0
357273,67.4455,-428.199,0,0
357534,67.7769,-427.891,0,0
357794,68.1417,-427.615,0,0
358054,68.5067,-427.398,0,0
358315,68.8308,-427.148,0,0
358575,69.1636,-427.02,0,0
358835,69.5193,-426.909,0,0
359096,69.8699,-426.814,0,0
359356,70.122,-426.76,0,0
359616,70.4,-426.753,0,0
359877,70.5887,-426.746,0,0
360137,70.8556,-426.744,0,0
360397,71.0004,-426.85,0,0
360658,71.1276,-426.794,0,0
360918,71.2412,-426.878,0,0
361178,71.3101,-426.913,0,0
361438,71.4066,-426.977,0,0
361699,71.3653,-427.079,0,0
361959,71.345,-427.105,0,0
362219,71.2699,-427.158,0,0
362480,71.1799,-427.204,0,0
362740.1,71.0705,-427.178,0,0
363000.425,70.9324,-427.143,0,0
363260.75,70.8317,-427.17,0,0
363521.075,70.661,-427.128,0,0
363781.4,70.4929,-427.112,0,0
364041.725,70.3384,-427.062,0,0
364302.05,70.1191,-426.935,0,0
364562.375,69.9393,-426.898,0,0
364822.7,69.7201,-426.789,0,0
365083.025,69.5021,-426.681,0,0
365343.35,69.2229,-426.565,0,0
365603.675,68.9475,-426.41,0,0
365864.0,68.6873,-426.23,0,0
366124.325,68.422,-426.046,0,0
366384.65,68.1117,-425.773,0,0
366644.975,67.8393,-425.464,0,0
366905.3,67.5998,-425.17,0,0
367165.625,67.3987,-424.825,0,0
367425.95,67.1782,-424.441,0,0
367686.275,67.0519,-424.103,0,0
367946.6,66.9758,-423.755,0,0
368206.925,66.9203,-423.392,0,0
368467.25,66.9224,-423.057,0,0
368727.575,66.9507,-422.793,0,0
368987.9,66.9874,-422.545,0,0
369248.225,67.0085,-422.399,0,0
369508.55,66.991,-422.301,0,0
369768.875,66.9411,-422.201,0,0
370029.2,66.8406,-422.165,0,0
370289.525,66.6561,-422.131,0,0
370549.85,66.4351,-422.084,0,0
370810.175,66.2168,-422.019,0,0
371070.5,65.9325,-421.878,0,0
371330.825,65.6922,-421.779,0,0
371591.15,65.3135,-421.567,0,0
371851.475,65.0016,-421.37,0,0
372111.8,64.7367,-421.129,0,0
372372.125,64.4814,-420.896,0,0
372632.45,64.2146,-420.608,0,0
372892.775,63.9786,-420.338,0,0
373153.1,63.766,-420.104,0,0
373413.425,63.5085,-419.825,0,0
373673.75,63.3319,-419.629,0,0
373934.075,63.1031,-419.406,0,0
374194.4,62.8884,-419.162,0,0
374454.725,62.6995,-419.034,0,0
374715.05,62.4316,-418.833,0,0
374975.375,62.1118,-418.668,0,0
375235.7,61.8285,-418.472,0,0
375496.025,61.4673,-418.286,0,0
375756.35,61.1401,-418.013,0,0
376016.675,60.7794,-417.761,0,0
376277.0,60.3724,-417.458,0,0
376537.325,60.0805,-417.152,0,0
376797.65,59.7321,-416.863,0,0
377057.975,59.4291,-416.529,0,0
377318.3,59.1497,-416.224,0,0
377578.625,58.887,-415.915,0,0
377838.95,58.6104,-415.627,0,0
378099.275,58.3429,-415.42,0,0
378359.6,58.0284,-415.234,0,0
378619.925,57.5801,-415.091,0,0
378880,57.1246,-414.931,0,0
379141,56.566,-414.664,0,0
379401,55.9363,-414.379,0,0
379661,55.3026,-413.995,0,0
379922,54.6395,-413.42,0,0
380182,54.0132,-412.749,0,0
380442,53.4851,-412.039,0,0
380703,53.0849,-411.183,0,0
380963,52.8336,-410.329,0,0
381223,52.7206,-409.507,0,0
381483,52.7601,-408.834,0,0
381744,52.7965,-408.253,0,0
382004,52.8659,-407.84,0,0
382264,52.8658,-407.484,0,0
382525,52.8131,-407.244,0,0
382785,52.655,-406.932,0,0
383045,52.4381,-406.731,0,0
383306,52.1678,-406.469,0,0
383566,51.8415,-406.215,0,0
383826,51.5097,-405.902,0,0
384087,51.1146,-405.539,0,0
384347,50.694,-405.184,0,0
384607,50.2659,-404.761,0,0
384868,49.8474,-404.316,0,0
385128,49.3804,-403.812,0,0
385388,48.9821,-403.291,0,0
385649,48.5633,-402.692,0,0
385909,48.1929,-402.136,0,0
386169,47.7741,-401.508,0,0
386430,47.4317,-400.865,0,0
386690,47.118,-400.203,0,0
386950,46.7931,-399.502,0,0
387211,46.5253,-398.821,0,0
387471,46.2828,-398.163,0,0
387731,46.0321,-397.476,0,0
387992,45.8139,-396.814,0,0
388252,45.6121,-396.114,0,0
388512,45.3962,-395.442,0,0
388773,45.2741,-394.745,0,0
389033,45.1394,-394.006,0,0
389293,44.9821,-393.335,0,0
389554,44.927,-392.557,0,0
389814,44.8808,-391.893,0,0
390074,44.8975,-391.218,0,0
390335,44.8889,-390.595,0,0
390595,44.9252,-390.022,0,0
390855,44.962,-389.45,0,0
391116,44.9814,-388.947,0,0
391376,45.0006,-388.453,0,0
391636,45.0194,-388.046,0,0
391896,45.0485,-387.663,0,0
392157,44.9355,-387.328,0,0
392417,44.7764,-386.951,0,0
392677,44.5812,-386.598,0,0
392938,44.361,-386.236,0,0
393198,44.0558,-385.813,0,0
393458,43.7636,-385.349,0,0
393719,43.407,-384.87,0,0
393979,43.1025,-384.331,0,0
394239,42.7266,-383.709,0,0
394500,42.3844,-383.086,0,0
394760.05,42.1153,-382.63,0,0
395020.375,41.834,-381.924,0,0
395280.7,41.553,-381.217,0,0
395541.025,41.3078,-380.469,0,0
395801.35,41.1691,-379.717,0,0
396061.675,40.9928,-378.968,0,0
396322.0,40.8937,-378.163,0,0
396582.325,40.7294,-377.222,0,0
396842.65,40.6793,-376.422,0,0
397102.975,40.6589,-375.537,0,0
397363.3,40.6607,-374.825,0,0
397623.625,40.7188,-374.157,0,0
397883.95,40.6864,-373.033,0,0
398144.275,40.7972,-372.4,0,0
398404.6,40.9507,-371.823,0,0
398664.925,41.0075,-370.918,0,0
398925.25,41.1192,-370.163,0,0
399185.575,41.2491,-369.478,0,0
399445.9,41.3512,-368.651,0,0
399706.225,41.5297,-368.15,0,0
399966.55,41.616,-367.1,0,0
400006.6,41.6258,-366.986,0,0