File: Accelerated corrosion test data/2025-10-14_08-28-47/sample_4.csv
Frequency (Hz),Impedance (ohms),Phase (Radians),Temperature (C),Humidity (%)
10000.0,261.079,-11905,0,0
10260.325,257.757,-11605.8,0,0
10520.65,248.496,-11321.6,0,0
10780.975,242.576,-11049.6,0,0
11041.3,237.581,-10790.6,0,0
11301.625,231.845,-10547.1,0,0
11561.95,226.956,-10310.1,0,0
11822.275,222.425,-10084.5,0,0
12082.6,218.046,-9868.87,0,0
12342.925,213.559,-9661.99,0,0
12603.25,211.438,-9461.44,0,0
12863.575,206.471,-9273.82,0,0
13123.9,205.032,-9095.22,0,0
13384.225,197.751,-8915.98,0,0
13644.55,193.999,-8744.69,0,0
13904.875,191.637,-8578.67,0,0
14165.2,192.445,-8414.85,0,0
14425.525,197.713,-8268.51,0,0
14685.8,197.695,-8152.07,0,0
14946.175,180.07,-7995.3,0,0
15206.5,180.018,-7851.01,0,0
15466.825,187.42,-7709.14,0,0
15727.15,189.656,-7609.66,0,0
15987.5,183.813,-7493.25,0,0
16247.8,169.527,-7362.31,0,0
16508.125,188.229,-7235.51,0,0
16768.45,178.19,-7135.1,0,0
17028.775,168.887,-7046.1,0,0
17289.1,159.054,-6932.38,0,0
17549.425,157.145,-6828.14,0,0
17809.75,154.684,-6727.37,0,0
18070.075,151.378,-6627.89,0,0
18330.4,152.891,-6531.92,0,0
18590.725,151.664,-6442.84,0,0
18851.05,148.283,-6358.72,0,0
19111.375,144.057,-6268.78,0,0
19371.7,141.641,-6183.19,0,0
19632.025,140.497,-6098.94,0,0
19892.35,143.071,-6018.24,0,0
20152.675,142.624,-5941.42,0,0
20413.0,139.484,-5867.31,0,0
20673.3,139.99,-5792.63,0,0
20933.65,136.029,-5718.68,0,0
21193.975,139.36,-5643.64,0,0
21454.3,151.514,-5578.17,0,0
21714.625,144.755,-5521.52,0,0
21974.9,148.849,-5450.35,0,0
22235.275,147.564,-5404.45,0,0
22495.6,134.264,-5348,0,0
22755.925,127.387,-5282.69,0,0
23016.25,124.31,-5220.44,0,0
23276.6,121.959,-5160.36,0,0
23536.9,119.801,-5102.76,0,0
23797.225,118.088,-5045.81,0,0
24057.55,116.254,-4989.79,0,0
24317.875,114.712,-4935.21,0,0
24578.2,113.877,-4881.89,0,0
24838.525,113.329,-4829.52,0,0
25098.85,113.876,-4778.81,0,0
25359.175,112.329,-4730.85,0,0
25619.5,111.498,-4681.37,0,0
25879.8,110.127,-4636.82,0,0
26140.1,107.094,-4588.07,0,0
26400.5,106.536,-4541.5,0,0
26660.8,105.705,-4494.97,0,0
26921.1,105.886,-4451.41,0,0
27181.4,104.684,-4406.11,0,0
27441.8,105.537,-4361.46,0,0
27702.1,108.9,-4317.13,0,0
27962.4,115.637,-4275.72,0,0
28222.7,119.975,-4248.79,0,0
28483.1,112.122,-4212.7,0,0
28743.4,108.861,-4171.81,0,0
29003.7,111.554,-4130.26,0,0
29264,116.384,-4098.14,0,0
29524.4,112.35,-4067.96,0,0
29784.7,107.189,-4036.8,0,0
30045,106.46,-3999.34,0,0
30305.3,100.968,-3966.07,0,0
30565.7,99.0507,-3930.09,0,0
30826,98.3084,-3895.41,0,0
31086.3,97.3543,-3861.33,0,0
31346.6,98.4994,-3828.06,0,0
31607,96.9037,-3797.46,0,0
31867.3,96.6251,-3765.19,0,0
32127.6,99.6665,-3734.58,0,0
32387.9,97.2091,-3709.23,0,0
32648.3,96.0169,-3678.43,0,0
32908.6,94.2928,-3651.01,0,0
33168.9,91.9492,-3622.31,0,0
33429.2,89.1433,-3593.89,0,0
33689.6,87.947,-3564.88,0,0
33949.9,86.8121,-3536.04,0,0
34210.2,87.2684,-3508.29,0,0
34470.5,85.5324,-3482.16,0,0
34730.9,84.2821,-3454.59,0,0
34991.2,84.2153,-3428.03,0,0
35251.5,83.6372,-3402.52,0,0
35511.8,82.4538,-3377.18,0,0
35772.2,81.9263,-3352.02,0,0
36032.5,80.9268,-3326.99,0,0
36292.8,80.563,-3302.3,0,0
36553.1,80.3176,-3277.72,0,0
36813.5,79.8145,-3253.87,0,0
37073.8,79.9476,-3230.52,0,0
37334.1,79.221,-3208.26,0,0
37594.4,78.7715,-3185,0,0
37854.8,78.5327,-3162.71,0,0
38115.1,77.7162,-3140.45,0,0
38375.4,77.0036,-3118.31,0,0
38635.7,76.5591,-3095.81,0,0
38896.1,76.6974,-3074.25,0,0
39156.4,76.3451,-3053.37,0,0
39416.7,76.1663,-3032.19,0,0
39677,75.8499,-3010.8,0,0
39937.4,76.7425,-2989.8,0,0
40197.7,78.5216,-2969.9,0,0
40458,79.6577,-2951.06,0,0
40718.3,78.4549,-2933.36,0,0
40978.7,78.9253,-2913.07,0,0
41239,79.6809,-2895.39,0,0
41499.3,81.5505,-2878.76,0,0
41759.6,78.0935,-2862.02,0,0
42020,76.8581,-2843.56,0,0
42280.275,76.115,-2824.1,0,0
42540.6,78.81,-2806.65,0,0
42800.925,77.4085,-2792.62,0,0
43061.25,75.027,-2774.54,0,0
43321.575,75.3444,-2757.23,0,0
43581.9,74.2277,-2740.78,0,0
43842.225,73.1471,-2723.13,0,0
44102.55,72.9201,-2707.41,0,0
44362.875,71.7347,-2690.15,0,0
44623.2,72.2791,-2673.42,0,0
44883.525,71.7814,-2657.96,0,0
45143.85,70.7447,-2641.96,0,0
45404.175,70.2994,-2625.21,0,0
45664.5,71.0237,-2608.72,0,0
45924.825,72.3359,-2594.72,0,0
46185.15,70.8668,-2580.91,0,0
46445.475,69.968,-2564.4,0,0
46705.8,71.0131,-2549.41,0,0
46966.125,71.3864,-2535.25,0,0
47226.45,71.2453,-2521.59,0,0
47486.775,70.9806,-2508.47,0,0
47747.1,69.5188,-2494.59,0,0
48007.425,69.0106,-2480.06,0,0
48267.75,67.8478,-2466.81,0,0
48528.075,67.4681,-2452.84,0,0
48788.4,66.7797,-2438.97,0,0
49048.725,65.6343,-2425.3,0,0
49309.05,65.7725,-2411.1,0,0
49569.375,65.2255,-2398.1,0,0
49829.7,64.4554,-2384.17,0,0
50090.025,64.4252,-2370.94,0,0
50350.35,64.2519,-2357.61,0,0
50610.675,64.0753,-2344.75,0,0
50871.0,63.7517,-2331.48,0,0
51131.325,63.5861,-2318.53,0,0
51391.65,63.4143,-2305.56,0,0
51651.975,63.568,-2292.7,0,0
51912.3,63.5382,-2280.17,0,0
52172.625,63.8331,-2267.4,0,0
52432.95,64.0474,-2255.23,0,0
52693.275,64.1952,-2242.48,0,0
52953.6,65.3163,-2229.76,0,0
53213.925,66.0854,-2217.94,0,0
53474.25,67.3095,-2205.95,0,0
53734.575,68.6743,-2194.02,0,0
53994.9,71.2596,-2182.74,0,0
54255.225,73.2948,-2173.22,0,0
54515.55,75.3687,-2164.61,0,0
54775.875,75.423,-2156.86,0,0
55036.2,74.0846,-2148.43,0,0
55296.525,73.2692,-2138.7,0,0
55556.85,71.63,-2130.01,0,0
55817.175,69.6829,-2119.54,0,0
56077.5,68.2573,-2109.24,0,0
56337.825,66.9312,-2098.5,0,0
56598.15,65.7591,-2087.15,0,0
56858.475,65.4506,-2075.88,0,0
57118.8,65.5751,-2064.99,0,0
57379.125,65.9045,-2054.55,0,0
57639.45,65.8767,-2044.43,0,0
57899.775,66.1622,-2034.23,0,0
58160.1,66.1872,-2023.75,0,0
58420.4,67.2501,-2013.7,0,0
58680.7,67.7072,-2004.89,0,0
58941.1,67.3907,-1994.17,0,0
59201.4,68.6555,-1983.52,0,0
59461.7,70.3562,-1973.4,0,0
59722,73.0677,-1964.36,0,0
59982.4,75.3222,-1956.7,0,0
60242.7,76.5014,-1949.51,0,0
60503,77.3243,-1941.87,0,0
60763.3,80.0493,-1934.87,0,0
61023.7,80.5573,-1931.33,0,0
61284,78.4534,-1926.43,0,0
61544.3,74.4163,-1920.4,0,0
61804.6,71.2671,-1910.94,0,0
62065,69.8362,-1902.18,0,0
62325.3,68.3263,-1894.03,0,0
62585.6,65.7954,-1885.22,0,0
62845.9,64.9272,-1874.75,0,0
63106.3,64.3899,-1865.95,0,0
63366.6,63.989,-1856.57,0,0
63626.9,64.1701,-1847.52,0,0
63887.2,64.2362,-1839.76,0,0
64147.6,63.0063,-1830.62,0,0
64407.9,63.5495,-1821.4,0,0
64668.2,64.2845,-1813.1,0,0
64928.5,64.7391,-1804.97,0,0
65188.9,64.8529,-1797.24,0,0
65449.2,64.8975,-1789.02,0,0
65709.5,64.8433,-1780.37,0,0
65969.8,66.2953,-1771.87,0,0
66230.2,67.1229,-1764.77,0,0
66490.5,68.027,-1757.43,0,0
66750.8,68.517,-1750.56,0,0
67011.1,69.1214,-1743.13,0,0
67271.5,70.2766,-1735.91,0,0
67531.8,71.3006,-1729.4,0,0
67792.1,72.3434,-1723.21,0,0
68052.4,73.0475,-1717.42,0,0
68312.8,73.4783,-1711.94,0,0
68573.1,73.7485,-1706.87,0,0
68833.4,73.0263,-1702.35,0,0
69093.7,71.1929,-1697.16,0,0
69354.1,69.2736,-1691.2,0,0
69614.4,67.1291,-1684.31,0,0
69874.7,66.2138,-1676.89,0,0
70135,65.2866,-1669.95,0,0
70395.4,63.8969,-1662.56,0,0
70655.7,63.9073,-1654.34,0,0
70916,65.0471,-1648.07,0,0
71176.3,64.6349,-1642.34,0,0
71436.7,64.2447,-1636.19,0,0
71697,63.7001,-1630.89,0,0
71957.3,62.005,-1624.98,0,0
72217.6,60.3798,-1618.22,0,0
72478,59.1173,-1610.98,0,0
72738.3,58.1109,-1603.55,0,0
72998.6,57.4323,-1596.19,0,0
73258.9,57.0614,-1588.42,0,0
73519.3,57.3166,-1581.03,0,0
73779.6,57.5552,-1574.21,0,0
74039.9,57.9505,-1567.33,0,0
74300.225,58.1505,-1560.83,0,0
74560.55,58.4746,-1554,0,0
74820.875,59.0471,-1547.53,0,0
75081.2,59.7348,-1541.12,0,0
75341.525,60.5351,-1535.29,0,0
75601.85,60.7173,-1529.53,0,0
75862.175,61.1427,-1523.63,0,0
76122.5,61.5817,-1517.73,0,0
76382.825,62.1383,-1512.19,0,0
76643.15,62.0595,-1506.78,0,0
76903.475,61.9358,-1500.79,0,0
77163.8,62.885,-1494.46,0,0
77424.125,64.0952,-1489.29,0,0
77684.45,65.05,-1484.47,0,0
77944.775,65.4753,-1479.99,0,0
78205.1,65.3801,-1475.59,0,0
78465.425,65.1735,-1471.09,0,0
78725.75,64.5903,-1466.59,0,0
78986.075,63.7647,-1461.7,0,0
79246.4,62.8327,-1456.56,0,0
79506.725,62.069,-1451.17,0,0
79767.05,61.4381,-1445.64,0,0
80027.375,61.0626,-1440.14,0,0
80287.7,60.7858,-1434.57,0,0
80548.025,60.5794,-1429.16,0,0
80808.35,60.4723,-1423.76,0,0
81068.675,60.4629,-1418.59,0,0
81329.0,60.3717,-1413.54,0,0
81589.325,60.2254,-1408.58,0,0
81849.65,59.9929,-1403.53,0,0
82109.975,59.6731,-1398.52,0,0
82370.3,59.4377,-1393.4,0,0
82630.625,59.176,-1388.38,0,0
82890.95,58.9621,-1383.38,0,0
83151.275,58.7077,-1378.48,0,0
83411.6,58.3897,-1373.47,0,0
83671.925,58.114,-1368.4,0,0
83932.25,57.9614,-1363.46,0,0
84192.575,57.8157,-1358.47,0,0
84452.9,57.579,-1353.59,0,0
84713.225,57.3863,-1348.68,0,0
84973.55,57.2901,-1343.83,0,0
85233.875,57.1142,-1338.95,0,0
85494.2,56.9088,-1334.16,0,0
85754.525,56.7418,-1329.44,0,0
86014.85,56.5079,-1324.59,0,0
86275.175,56.3857,-1319.74,0,0
86535.5,56.3741,-1315.08,0,0
86795.825,56.1786,-1310.48,0,0
87056.15,55.9836,-1305.84,0,0
87316.475,55.8474,-1301.21,0,0
87576.8,55.6017,-1296.74,0,0
87837.125,55.3022,-1292.25,0,0
88097.45,54.8175,-1287.83,0,0
88357.775,54.2053,-1282.93,0,0
88618.1,53.8813,-1277.96,0,0
88878.425,53.721,-1273.07,0,0
89138.75,53.4753,-1268.31,0,0
89399.075,53.3792,-1263.56,0,0
89659.4,53.3738,-1258.78,0,0
89919.725,53.3653,-1254.08,0,0
90180,53.2904,-1249.53,0,0
90440.4,53.3635,-1244.92,0,0
90700.7,53.2617,-1240.32,0,0
90961,53.2115,-1235.71,0,0
91221.3,53.0465,-1230.91,0,0
91481.7,53.202,-1226.35,0,0
91742,53.3037,-1221.7,0,0
92002.3,53.6244,-1217.15,0,0
92262.6,53.8948,-1212.76,0,0
92523,54.2713,-1208.43,0,0
92783.3,54.5941,-1204.21,0,0
93043.6,54.7932,-1200.16,0,0
93303.9,54.8708,-1196.28,0,0
93564.3,54.8129,-1192.25,0,0
93824.6,54.6349,-1188.32,0,0
94084.9,54.3545,-1184.37,0,0
94345.2,53.9396,-1180.27,0,0
94605.6,53.4847,-1175.94,0,0
94865.9,53.1413,-1171.4,0,0
95126.2,53.0419,-1166.92,0,0
95386.5,52.8959,-1162.39,0,0
95646.9,52.8166,-1157.85,0,0
95907.2,52.9451,-1153.32,0,0
96167.5,53.0914,-1148.93,0,0
96427.8,53.2694,-1144.54,0,0
96688.2,53.4048,-1140.24,0,0
96948.5,53.5789,-1136.03,0,0
97208.8,53.6762,-1131.68,0,0
97469.1,53.8926,-1127.35,0,0
97729.5,54.0048,-1123.05,0,0
97989.8,54.2466,-1118.69,0,0
98250.1,54.6493,-1114.33,0,0
98510.4,55.0524,-1110.09,0,0
98770.8,55.365,-1105.82,0,0
99031.1,55.8476,-1101.51,0,0
99291.4,56.4937,-1097.3,0,0
99551.7,57.1041,-1093.33,0,0
99812.1,57.5984,-1089.28,0,0
100072,58.079,-1085.09,0,0
100333,59.0542,-1080.88,0,0
100593,60.2722,-1077.1,0,0
100853,61.2787,-1073.92,0,0
101114,61.81,-1070.81,0,0
101374,62.523,-1067.45,0,0
101634,63.1358,-1064.78,0,0
101895,63.0336,-1062.38,0,0
102155,62.2347,-1059.61,0,0
102415,61.1027,-1056.24,0,0
102676,60.0235,-1052.26,0,0
102936,59.2117,-1047.93,0,0
103196,58.5937,-1043.38,0,0
103457,58.1928,-1038.54,0,0
103717,58.2208,-1033.51,0,0
103977,58.6608,-1028.59,0,0
104238,59.1796,-1023.86,0,0
104498,59.8965,-1019.07,0,0
104758,60.8271,-1014.37,0,0
105019,61.9556,-1009.86,0,0
105279,63.1731,-1005.58,0,0
105539,64.4027,-1001.36,0,0
105800,65.7313,-997.228,0,0
106060,67.111,-993.24,0,0
106320.175,68.5299,-989.342,0,0
106580.5,69.9455,-985.61,0,0
106840.825,71.459,-981.982,0,0
107101.15,72.7827,-978.499,0,0
107361.475,74.0691,-975.036,0,0
107621.8,75.3624,-971.407,0,0
107882.125,76.8568,-967.765,0,0
108142.45,78.4872,-964.286,0,0
108402.775,80.1866,-960.907,0,0
108663.1,81.9818,-957.738,0,0
108923.425,83.7813,-954.719,0,0
109183.75,85.6138,-951.885,0,0
109444.075,87.4622,-949.29,0,0
109704.4,89.0929,-946.871,0,0
109964.725,90.5609,-944.512,0,0
110225.05,92.0237,-942.078,0,0
110485.375,93.4926,-939.882,0,0
110745.7,94.7804,-937.675,0,0
111006.025,96.0208,-935.625,0,0
111266.35,97.0717,-933.416,0,0
111526.675,98.0929,-931.376,0,0
111787.0,99.307,-929.289,0,0
112047.325,100.337,-927.205,0,0
112307.65,101.389,-925.315,0,0
112567.975,102.344,-923.414,0,0
112828.3,103.214,-921.47,0,0
113088.625,104.063,-919.744,0,0
113348.95,104.844,-918.041,0,0
113609.275,105.501,-916.283,0,0
113869.6,106.079,-914.586,0,0
114129.925,106.497,-912.877,0,0
114390.25,107.056,-911.109,0,0
114650.575,107.522,-909.406,0,0
114910.9,107.965,-907.708,0,0
115171.225,108.307,-906.197,0,0
115431.55,108.475,-904.65,0,0
115691.875,108.514,-903.002,0,0
115952.2,108.524,-901.385,0,0
116212.525,108.417,-899.692,0,0
116472.85,108.311,-897.973,0,0
116733.175,108.032,-896.237,0,0
116993.5,107.631,-894.357,0,0
117253.825,107.248,-892.409,0,0
117514.15,106.766,-890.256,0,0
117774.475,106.274,-887.989,0,0
118034.8,105.877,-885.497,0,0
118295.125,105.653,-882.874,0,0
118555.45,105.573,-880.258,0,0
118815.775,105.529,-877.482,0,0
119076.1,105.782,-874.492,0,0
119336.425,106.701,-871.46,0,0
119596.75,108.292,-868.955,0,0
119857.075,109.929,-867.411,0,0
120117.4,111.236,-866.581,0,0
120377.725,112.053,-866.287,0,0
120638.05,112.11,-866.297,0,0
120898.375,111.155,-866.22,0,0
121158.7,109.577,-865.464,0,0
121419.025,107.911,-864.006,0,0
121679.35,106.371,-862.16,0,0
121939.675,104.978,-860.064,0,0
122200.0,103.699,-857.759,0,0
122460,102.588,-855.257,0,0
122721,101.654,-852.648,0,0
122981,100.914,-850.13,0,0
123241,100.191,-847.595,0,0
123502,99.498,-845.149,0,0
123762,98.8299,-842.626,0,0
124022,98.2016,-840.049,0,0
124283,97.6011,-837.497,0,0
124543,97.0949,-834.921,0,0
124803,96.6088,-832.329,0,0
125064,96.2368,-829.729,0,0
125324,95.9663,-827.35,0,0
125584,95.5741,-824.968,0,0
125845,95.2491,-822.672,0,0
126105,94.8743,-820.518,0,0
126365,94.3034,-818.455,0,0
126626,93.5571,-816.36,0,0
126886,92.683,-814.05,0,0
127146,91.8864,-811.689,0,0
127406,91.0601,-809.29,0,0
127667,90.3377,-806.952,0,0
127927,89.3896,-804.71,0,0
128187,88.3491,-802.531,0,0
128448,87.0397,-800.065,0,0
128708,85.7499,-797.449,0,0
128968,84.3932,-794.751,0,0
129229,82.9509,-791.831,0,0
129489,81.5727,-788.71,0,0
129749,80.2978,-785.444,0,0
130010,79.0501,-781.988,0,0
130270,78.0093,-778.399,0,0
130530,77.1504,-774.838,0,0
130791,76.2734,-771.238,0,0
131051,75.4469,-767.571,0,0
131311,74.7769,-763.786,0,0
131572,74.214,-760.046,0,0
131832,73.7833,-756.354,0,0
132092,73.291,-752.622,0,0
132353,72.9127,-748.82,0,0
132613,72.6389,-745.015,0,0
132873,72.461,-741.209,0,0
133134,72.3624,-737.447,0,0
133394,72.2538,-733.755,0,0
133654,72.1576,-730.013,0,0
133915,72.161,-726.224,0,0
134175,72.2553,-722.356,0,0
134435,72.3451,-718.437,0,0
134696,72.5255,-714.663,0,0
134956,72.6908,-710.899,0,0
135216,72.9865,-707.113,0,0
135477,73.3719,-703.351,0,0
135737,73.8565,-699.604,0,0
135997,74.3329,-695.955,0,0
136258,74.7978,-692.407,0,0
136518,75.3044,-688.802,0,0
136778,75.8979,-685.249,0,0
137039,76.4989,-681.81,0,0
137299,76.9997,-678.467,0,0
137559,77.3844,-675.099,0,0
137819,77.7443,-671.633,0,0
138080,78.0674,-668.099,0,0
138340.125,78.4316,-664.618,0,0
138600.45,78.8698,-660.921,0,0
138860.775,79.3337,-657.247,0,0
139121.1,79.7811,-653.411,0,0
139381.425,80.4364,-649.549,0,0
139641.75,81.1769,-645.756,0,0
139902.075,81.9039,-642.026,0,0
140162.4,82.6977,-638.259,0,0
140422.725,83.5229,-634.45,0,0
140683.05,84.4574,-630.6,0,0
140943.375,85.4734,-626.782,0,0
141203.7,86.5757,-623.003,0,0
141464.025,87.7152,-619.302,0,0
141724.35,88.8176,-615.591,0,0
141984.675,89.9997,-611.879,0,0
142245.0,91.1854,-608.217,0,0
142505.325,92.4216,-604.571,0,0
142765.65,93.6309,-600.906,0,0
143025.975,94.8751,-597.212,0,0
143286.3,96.1983,-593.516,0,0
143546.625,97.5449,-589.93,0,0
143806.95,98.869,-586.284,0,0
144067.275,100.239,-582.601,0,0
144327.6,101.672,-578.84,0,0
144587.925,103.168,-575.104,0,0
144848.25,104.678,-571.375,0,0
145108.575,106.27,-567.615,0,0
145368.9,107.961,-563.823,0,0
145629.225,109.723,-560.089,0,0
145889.55,111.55,-556.369,0,0
146149.875,113.483,-552.622,0,0
146410.2,115.475,-548.896,0,0
146670.525,117.545,-545.227,0,0
146930.85,119.642,-541.634,0,0
147191.175,121.728,-538.013,0,0
147451.5,123.871,-534.412,0,0
147711.825,126.077,-530.794,0,0
147972.15,128.315,-527.193,0,0
148232.475,130.651,-523.546,0,0
148492.8,133.066,-519.956,0,0
148753.125,135.565,-516.357,0,0
149013.45,138.143,-512.804,0,0
149273.775,140.712,-509.288,0,0
149534.1,143.275,-505.695,0,0
149794.425,146.001,-501.969,0,0
150054.75,148.984,-498.245,0,0
150315.075,152.115,-494.597,0,0
150575.4,155.365,-491.028,0,0
150835.725,158.757,-487.472,0,0
151096.05,162.415,-483.926,0,0
151356.375,166.277,-480.65,0,0
151616.7,170.238,-477.564,0,0
151877.025,174.187,-474.619,0,0
152137.35,178.223,-471.594,0,0
152397.675,182.693,-468.698,0,0
152658.0,187.404,-466.342,0,0
152918.325,191.951,-464.368,0,0
153178.65,196.421,-462.464,0,0
153438.975,201.018,-460.817,0,0
153699.3,205.557,-459.535,0,0
153959.625,209.91,-458.563,0,0
154219.95,214.084,-457.765,0,0
154480,218.017,-457.22,0,0
154741,221.55,-456.939,0,0
155001,224.674,-456.16,0,0
155261,227.988,-455.14,0,0
155522,231.57,-454.12,0,0
155782,235.331,-453.38,0,0
156042,238.723,-453.145,0,0
156303,241.986,-452.807,0,0
156563,244.979,-452.521,0,0
156823,247.533,-452.02,0,0
157084,250.195,-451.173,0,0
157344,253.007,-450.239,0,0
157604,255.876,-449.302,0,0
157864,258.722,-448.089,0,0
158125,261.881,-446.801,0,0
158385,265.404,-445.538,0,0
158645,269.032,-444.526,0,0
158906,272.815,-443.48,0,0
159166,277.329,-442.585,0,0
159426,282.122,-442.636,0,0
159687,286.426,-443.225,0,0
159947,290.555,-444.065,0,0
160207,294.354,-445.355,0,0
160468,297.902,-446.813,0,0
160728,301.129,-448.79,0,0
160988,303.435,-450.888,0,0
161249,305.205,-452.618,0,0
161509,306.569,-453.885,0,0
161769,308.037,-454.772,0,0
162030,309.434,-455.671,0,0
162290,310.59,-456.157,0,0
162550,311.837,-456.754,0,0
162811,312.836,-457.151,0,0
163071,313.668,-457.11,0,0
163331,314.639,-456.881,0,0
163592,315.611,-456.352,0,0
163852,316.698,-455.526,0,0
164112,318.008,-454.493,0,0
164373,319.315,-452.927,0,0
164633,321.376,-451.39,0,0
164893,323.744,-449.958,0,0
165154,326.238,-448.689,0,0
165414,328.711,-447.285,0,0
165674,331.548,-445.527,0,0
165935,335.109,-443.649,0,0
166195,339.174,-442.099,0,0
166455,343.73,-440.819,0,0
166716,348.758,-439.909,0,0
166976,354.318,-439.489,0,0
167236,360.274,-439.973,0,0
167497,366.201,-441.225,0,0
167757,372.095,-443.147,0,0
168017,377.66,-445.733,0,0
168277,383.045,-449.072,0,0
168538,387.983,-452.789,0,0
168798,392.733,-456.688,0,0
169058,397.538,-461.182,0,0
169319,401.899,-466.704,0,0
169579,405.162,-472.713,0,0
169839,408.117,-478.556,0,0
170100,411.036,-485.079,0,0
170360.075,413.036,-492.615,0,0
170620.4,413.767,-500.665,0,0
170880.725,413.094,-508.801,0,0
171141.05,410.93,-516.549,0,0
171401.375,407.893,-523.267,0,0
171661.7,404.594,-529.543,0,0
171922.025,400.603,-535.78,0,0
172182.35,395.497,-541.391,0,0
172442.675,389.866,-546.06,0,0
172703.0,383.83,-549.942,0,0
172963.325,377.301,-552.974,0,0
173223.65,370.58,-555.013,0,0
173483.975,363.869,-556.306,0,0
173744.3,357.036,-556.627,0,0
174004.625,350.542,-556.052,0,0
174264.95,344.36,-554.95,0,0
174525.275,338.389,-553.215,0,0
174785.6,332.905,-550.967,0,0
175045.925,327.623,-548.501,0,0
175306.25,322.403,-545.431,0,0
175566.575,317.555,-541.653,0,0
175826.9,313.371,-537.416,0,0
176087.225,309.722,-532.946,0,0
176347.55,306.576,-528.307,0,0
176607.875,303.979,-523.497,0,0
176868.2,301.894,-518.701,0,0
177128.525,300.219,-513.907,0,0
177388.85,298.913,-509.214,0,0
177649.175,297.935,-504.508,0,0
177909.5,297.366,-499.962,0,0
178169.825,296.976,-495.68,0,0
178430.15,296.634,-491.487,0,0
178690.475,296.386,-487.274,0,0
178950.8,296.358,-483.001,0,0
179211.125,296.586,-478.721,0,0
179471.45,297.124,-474.589,0,0
179731.775,297.85,-470.615,0,0
179992.1,298.711,-466.935,0,0
180252.425,299.547,-463.375,0,0
180512.75,300.409,-459.942,0,0
180773.075,301.221,-456.573,0,0
181033.4,302.04,-453.243,0,0
181293.725,302.868,-449.948,0,0
181554.05,303.638,-446.683,0,0
181814.375,304.401,-443.447,0,0
182074.7,305.112,-440.23,0,0
182335.025,305.754,-436.939,0,0
182595.35,306.315,-433.552,0,0
182855.675,306.891,-430.022,0,0
183116.0,307.467,-426.331,0,0
183376.325,308.083,-422.496,0,0
183636.65,308.792,-418.479,0,0
183896.975,309.616,-414.305,0,0
184157.3,310.595,-409.993,0,0
184417.625,311.721,-405.569,0,0
184677.95,313.012,-401.038,0,0
184938.275,314.429,-396.398,0,0
185198.6,316.057,-391.634,0,0
185458.925,317.908,-386.799,0,0
185719.25,319.925,-381.978,0,0
185979.575,322.063,-377.111,0,0
186239.9,324.32,-372.159,0,0
186500,326.829,-367.115,0,0
186761,329.447,-361.993,0,0
187021,332.307,-356.803,0,0
187281,335.34,-351.587,0,0
187542,338.56,-346.249,0,0
187802,342.091,-340.769,0,0
188062,345.899,-335.242,0,0
188322,350.005,-329.675,0,0
188583,354.321,-324.134,0,0
188843,359.019,-318.558,0,0
189103,363.96,-312.999,0,0
189364,369.171,-307.465,0,0
189624,374.795,-301.902,0,0
189884,380.688,-296.36,0,0
190145,387.049,-290.97,0,0
190405,393.756,-285.62,0,0
190665,400.792,-280.392,0,0
190926,408.199,-275.452,0,0
191186,415.916,-270.53,0,0
191446,423.984,-265.856,0,0
191707,432.492,-261.331,0,0
191967,441.395,-256.99,0,0
192227,450.676,-253.035,0,0
192488,460.147,-249.432,0,0
192748,469.976,-246.166,0,0
193008,480.065,-243.255,0,0
193269,490.429,-240.661,0,0
193529,501.002,-238.431,0,0
193789,511.673,-236.548,0,0
194050,522.724,-235.005,0,0
194310,533.916,-233.984,0,0
194570,545.091,-233.299,0,0
194831,556.431,-232.908,0,0
195091,567.904,-232.807,0,0
195351,579.514,-232.985,0,0
195612,591.321,-233.386,0,0
195872,603.36,-234.085,0,0
196132,615.752,-235.12,0,0
196393,628.454,-236.483,0,0
196653,641.474,-238.362,0,0
196913,654.86,-240.636,0,0
197174,668.666,-243.569,0,0
197434,682.771,-247.26,0,0
197694,697.135,-251.683,0,0
197955,711.667,-256.931,0,0
198215,726.249,-262.976,0,0
198475,740.994,-269.813,0,0
198735,755.936,-277.586,0,0
198996,770.926,-286.541,0,0
199256,785.929,-296.676,0,0
199516,800.456,-308.329,0,0
199777,814.321,-321.199,0,0
200037,827.499,-335.04,0,0
200297,839.598,-349.95,0,0
200558,851.06,-365.807,0,0
200818,861.168,-382.472,0,0
201078,870.019,-399.753,0,0
201339,877.927,-417.335,0,0
201599,884.379,-435.569,0,0
201859,889.269,-454.063,0,0
202120,892.95,-472.141,0,0
202380.025,895.856,-489.961,0,0
202640.35,897.337,-507.744,0,0
202900.675,898.098,-524.765,0,0
203161.0,898.864,-541.033,0,0
203421.325,899.297,-557.498,0,0
203681.65,899.352,-574.685,0,0
203941.975,897.764,-592.152,0,0
204202.3,894.949,-608.994,0,0
204462.625,891.111,-624.905,0,0
204722.95,887.033,-640.222,0,0
204983.275,882.704,-654.958,0,0
205243.6,877.708,-669.605,0,0
205503.925,872.021,-683.654,0,0
205764.25,866.17,-696.936,0,0
206024.575,860.211,-709.94,0,0
206284.9,854.253,-722.68,0,0
206545.225,848.285,-735.193,0,0
206805.55,842.021,-748.001,0,0
207065.875,835.025,-761.124,0,0
207326.2,827.099,-774.539,0,0
207586.525,818.117,-787.649,0,0
207846.85,807.634,-799.972,0,0
208107.175,796.275,-811.12,0,0
208367.5,784.522,-821.089,0,0
208627.825,772.571,-830.237,0,0
208888.15,760.248,-838.497,0,0
209148.475,747.992,-845.37,0,0
209408.8,735.744,-851.157,0,0
209669.125,723.743,-856.118,0,0
209929.45,712.338,-860.405,0,0
210189.775,700.825,-863.888,0,0
210450.1,689.459,-866.912,0,0
210710.425,678.494,-869.333,0,0
210970.75,667.772,-871.136,0,0
211231.075,657.682,-872.087,0,0
211491.4,647.977,-872.842,0,0
211751.725,638.593,-873.013,0,0
212012.05,629.779,-872.973,0,0
212272.375,621.524,-872.583,0,0
212532.7,613.915,-872.112,0,0
212793.025,606.594,-871.554,0,0
213053.35,599.472,-871.125,0,0
213313.675,592.378,-870.263,0,0
213574.0,585.718,-868.882,0,0
213834.325,579.673,-867.392,0,0
214094.65,574.501,-865.627,0,0
214354.975,570.199,-863.911,0,0
214615.3,566.479,-862.65,0,0
214875.625,563.277,-861.956,0,0
215135.95,560.317,-861.989,0,0
215396.275,557.376,-862.661,0,0
215656.6,554.331,-863.834,0,0
215916.925,550.852,-865.468,0,0
216177.25,547.028,-867.253,0,0
216437.575,542.561,-868.873,0,0
216697.9,537.866,-870.246,0,0
216958.225,532.999,-871.018,0,0
217218.55,528.271,-871.68,0,0
217478.875,523.984,-872.496,0,0
217739.2,519.829,-873.518,0,0
217999.525,515.437,-874.243,0,0
218259.85,511.394,-875.321,0,0
218520,507.01,-876.169,0,0
218780,502.9,-876.877,0,0
219041,498.886,-877.665,0,0
219301,494.921,-878.74,0,0
219561,490.77,-879.958,0,0
219822,486.533,-881.113,0,0
220082,482.048,-882.471,0,0
220342,477.593,-883.64,0,0
220603,472.72,-884.574,0,0
220863,467.393,-884.986,0,0
221123,462.737,-885.54,0,0
221384,458.054,-886.079,0,0
221644,453.337,-886.47,0,0
221904,448.548,-886.796,0,0
222165,443.711,-886.975,0,0
222425,438.852,-887.016,0,0
222685,434.296,-886.991,0,0
222946,429.734,-887.033,0,0
223206,425.319,-886.943,0,0
223466,420.94,-887.054,0,0
223727,416.654,-887.001,0,0
223987,412.348,-886.966,0,0
224247,408.018,-887.15,0,0
224508,403.783,-887.493,0,0
224768,399.291,-887.983,0,0
225028,394.735,-888.491,0,0
225289,389.861,-888.767,0,0
225549,384.756,-889.032,0,0
225809,379.487,-889.31,0,0
226070,374.006,-889.127,0,0
226330,368.363,-888.82,0,0
226590,362.794,-888.188,0,0
226851,357.174,-887.482,0,0
227111,351.595,-886.502,0,0
227371,345.918,-885.329,0,0
227632,340.221,-884.022,0,0
227892,334.484,-882.417,0,0
228152,328.705,-880.501,0,0
228413,322.936,-878.263,0,0
228673,317.355,-875.62,0,0
228933,312.02,-872.757,0,0
229193,307.043,-869.674,0,0
229454,302.19,-866.453,0,0
229714,297.722,-863.053,0,0
229974,293.347,-859.615,0,0
230235,289.305,-856.176,0,0
230495,285.33,-852.671,0,0
230755,281.628,-849.154,0,0
231016,278.083,-845.539,0,0
231276,274.72,-842.007,0,0
231536,271.495,-838.429,0,0
231797,268.47,-834.898,0,0
232057,265.648,-831.356,0,0
232317,262.89,-827.771,0,0
232578,260.302,-824.222,0,0
232838,257.836,-820.589,0,0
233098,255.545,-817.09,0,0
233359,253.442,-813.651,0,0
233619,251.299,-810.275,0,0
233879,249.257,-806.839,0,0
234140,247.366,-803.457,0,0
234400,245.689,-800.163,0,0
234660.3,243.848,-796.486,0,0
234920.625,242.338,-793.304,0,0
235180.95,240.967,-790.255,0,0
235441.275,239.724,-787.418,0,0
235701.6,238.355,-784.454,0,0
235961.925,236.951,-781.687,0,0
236222.25,235.559,-778.767,0,0
236482.575,234.2,-775.808,0,0
236742.9,232.969,-772.906,0,0
237003.225,231.894,-770.085,0,0
237263.55,230.802,-767.073,0,0
237523.875,229.825,-763.98,0,0
237784.2,229.071,-760.878,0,0
238044.525,228.551,-757.931,0,0
238304.85,228.156,-755.155,0,0
238565.175,227.828,-752.555,0,0
238825.5,227.598,-750.128,0,0
239085.825,227.344,-747.833,0,0
239346.15,227.035,-745.618,0,0
239606.475,226.86,-743.512,0,0
239866.8,226.685,-741.54,0,0
240127.125,226.371,-739.65,0,0
240387.45,226.192,-737.938,0,0
240647.775,225.926,-736.219,0,0
240908.1,225.572,-734.58,0,0
241168.425,225.289,-732.954,0,0
241428.75,224.869,-731.429,0,0
241689.075,224.501,-730.103,0,0
241949.4,223.999,-728.867,0,0
242209.725,223.485,-727.573,0,0
242470.05,222.958,-726.334,0,0
242730.375,222.289,-725.279,0,0
242990.7,221.518,-724.073,0,0
243251.025,220.668,-722.846,0,0
243511.35,219.849,-721.729,0,0
243771.675,218.898,-720.561,0,0
244032.0,217.81,-719.332,0,0
244292.325,216.667,-718.175,0,0
244552.65,215.369,-716.893,0,0
244812.975,214.014,-715.433,0,0
245073.3,212.702,-713.879,0,0
245333.625,211.42,-712.18,0,0
245593.95,210.112,-710.351,0,0
245854.275,208.933,-708.457,0,0
246114.6,207.849,-706.585,0,0
246374.925,206.758,-704.59,0,0
246635.25,205.688,-702.593,0,0
246895.575,204.762,-700.431,0,0
247155.9,203.932,-698.234,0,0
247416.225,203.259,-696.086,0,0
247676.55,202.739,-694.034,0,0
247936.875,202.244,-692.115,0,0
248197.2,201.725,-690.259,0,0
248457.525,201.174,-688.466,0,0
248717.85,200.598,-686.627,0,0
248978.175,200.15,-684.79,0,0
249238.5,199.674,-682.923,0,0
249498.825,199.223,-681.092,0,0
249759.15,198.861,-679.339,0,0
250019.475,198.503,-677.629,0,0
250279.8,198.132,-675.883,0,0
250540,197.781,-674.381,0,0
250800,197.351,-672.919,0,0
251061,196.824,-671.533,0,0
251321,196.189,-670.191,0,0
251581,195.417,-668.85,0,0
251842,194.42,-667.417,0,0
252102,193.344,-665.819,0,0
252362,192.156,-664.149,0,0
252623,190.91,-662.321,0,0
252883,189.653,-660.223,0,0
253143,188.42,-657.88,0,0
253404,187.377,-655.444,0,0
253664,186.417,-652.836,0,0
253924,185.622,-650.199,0,0
254185,184.873,-647.571,0,0
254445,184.123,-644.95,0,0
254705,183.391,-642.167,0,0
254966,182.699,-639.169,0,0
255226,182.09,-636.1,0,0
255486,181.592,-632.842,0,0
255747,181.322,-629.352,0,0
256007,181.265,-625.722,0,0
256267,181.5,-622.051,0,0
256528,181.944,-618.427,0,0
256788,182.607,-614.74,0,0
257048,183.505,-611.14,0,0
257309,184.547,-607.471,0,0
257569,185.877,-603.793,0,0
257829,187.438,-600.125,0,0
258090,189.179,-596.559,0,0
258350,191.149,-593.034,0,0
258610,193.341,-589.554,0,0
258871,195.87,-586.067,0,0
259131,198.856,-582.862,0,0
259391,202.072,-579.979,0,0
259651,205.328,-577.433,0,0
259912,208.62,-575.231,0,0
260172,211.929,-573,0,0
260432,215.362,-570.865,0,0
260693,218.985,-568.891,0,0
260953,222.876,-567.145,0,0
261213,226.981,-565.736,0,0
261474,231.09,-564.677,0,0
261734,235.186,-563.956,0,0
261994,239.156,-563.46,0,0
262255,243.092,-562.995,0,0
262515,247.207,-562.693,0,0
262775,251.515,-562.622,0,0
263036,255.983,-562.98,0,0
263296,260.496,-563.79,0,0
263556,264.923,-565.023,0,0
263817,269.193,-566.741,0,0
264077,273.172,-568.768,0,0
264337,276.874,-571.105,0,0
264598,280.27,-573.641,0,0
264858,283.513,-576.293,0,0
265118,286.491,-579.035,0,0
265379,289.33,-581.87,0,0
265639,292.077,-584.785,0,0
265899,294.831,-588.127,0,0
266160,297.277,-591.595,0,0
266420,299.432,-595.267,0,0
266680.25,301.289,-599.254,0,0
266940.575,302.852,-603.193,0,0
267200.9,304.356,-607.282,0,0
267461.225,305.581,-611.618,0,0
267721.55,306.425,-616.233,0,0
267981.875,306.819,-620.879,0,0
268242.2,306.853,-625.709,0,0
268502.525,306.454,-630.728,0,0
268762.85,305.324,-635.768,0,0
269023.175,303.51,-640.655,0,0
269283.5,300.961,-645.18,0,0
269543.825,297.836,-648.996,0,0
269804.15,294.553,-651.969,0,0
270064.475,291.489,-654.23,0,0
270324.8,288.669,-656.065,0,0
270585.125,286.163,-657.708,0,0
270845.45,283.839,-659.28,0,0
271105.775,281.673,-660.724,0,0
271366.1,279.766,-662.25,0,0
271626.425,277.853,-663.765,0,0
271886.75,275.967,-665.383,0,0
272147.075,274.033,-666.992,0,0
272407.4,272.125,-668.657,0,0
272667.725,270.129,-670.45,0,0
272928.05,267.989,-672.19,0,0
273188.375,265.786,-673.87,0,0
273448.7,263.511,-675.653,0,0
273709.025,261.069,-677.386,0,0
273969.35,258.443,-679.247,0,0
274229.675,255.657,-681.041,0,0
274490.0,252.65,-682.805,0,0
274750.325,249.2,-684.49,0,0
275010.65,245.5,-685.935,0,0
275270.975,241.571,-687.062,0,0
275531.3,237.498,-687.768,0,0
275791.625,233.415,-688.161,0,0
276051.95,229.324,-688.242,0,0
276312.275,225.203,-688.021,0,0
276572.6,221.016,-687.72,0,0
276832.925,216.742,-686.992,0,0
277093.25,212.432,-685.859,0,0
277353.575,208.214,-684.263,0,0
277613.9,204.182,-682.216,0,0
277874.225,200.391,-679.817,0,0
278134.55,196.981,-677.1,0,0
278394.875,193.883,-674.085,0,0
278655.2,191.341,-670.802,0,0
278915.525,189.307,-667.411,0,0
279175.85,187.762,-664.016,0,0
279436.175,186.642,-660.767,0,0
279696.5,185.991,-657.743,0,0
279956.825,185.729,-655.101,0,0
280217.15,185.606,-652.825,0,0
280477.475,185.587,-650.953,0,0
280737.8,185.38,-649.382,0,0
280998.125,185.08,-647.899,0,0
281258.45,184.701,-646.555,0,0
281518.775,184.19,-645.238,0,0
281779.1,183.581,-643.867,0,0
282039.425,182.936,-642.314,0,0
282299.75,182.452,-640.626,0,0
282560,182.276,-638.867,0,0
282820,182.367,-637.261,0,0
283081,182.694,-635.953,0,0
283341,183.087,-634.934,0,0
283601,183.415,-634.302,0,0
283862,183.478,-633.895,0,0
284122,183.32,-633.586,0,0
284382,182.979,-633.26,0,0
284643,182.543,-632.889,0,0
284903,182.014,-632.577,0,0
285163,181.363,-632.324,0,0
285424,180.526,-632.023,0,0
285684,179.549,-631.739,0,0
285944,178.314,-631.307,0,0
286205,176.979,-630.7,0,0
286465,175.507,-629.826,0,0
286725,174.121,-628.68,0,0
286986,172.851,-627.358,0,0
287246,171.642,-625.986,0,0
287506,170.429,-624.507,0,0
287767,169.175,-622.85,0,0
288027,168.017,-620.948,0,0
288287,166.993,-618.776,0,0
288548,166.118,-616.36,0,0
288808,165.579,-613.713,0,0
289068,165.432,-610.903,0,0
289329,165.727,-608.032,0,0
289589,166.482,-605.253,0,0
289849,167.633,-602.637,0,0
290109,169.132,-600.312,0,0
290370,170.883,-598.213,0,0
290630,172.858,-596.433,0,0
290890,175.007,-595,0,0
291151,177.288,-593.852,0,0
291411,179.673,-593.056,0,0
291671,182.125,-592.593,0,0
291932,184.575,-592.532,0,0
292192,187.021,-592.796,0,0
292452,189.402,-593.422,0,0
292713,191.683,-594.421,0,0
292973,193.802,-595.824,0,0
293233,195.601,-597.572,0,0
293494,197.108,-599.536,0,0
293754,198.272,-601.696,0,0
294014,199.138,-603.981,0,0
294275,199.75,-606.427,0,0
294535,199.985,-608.999,0,0
294795,199.855,-611.63,0,0
295056,199.306,-614.298,0,0
295316,198.372,-616.85,0,0
295576,197.068,-619.273,0,0
295837,195.426,-621.477,0,0
296097,193.512,-623.471,0,0
296357,191.373,-625.141,0,0
296618,189.095,-626.515,0,0
296878,186.716,-627.54,0,0
297138,184.357,-628.269,0,0
297399,182.052,-628.749,0,0
297659,179.839,-629.051,0,0
297919,177.668,-629.203,0,0
298180,175.591,-629.211,0,0
298440,173.625,-629.054,0,0
298700.2,171.763,-628.876,0,0
298960.525,169.99,-628.666,0,0
299220.85,168.278,-628.445,0,0
299481.175,166.575,-628.217,0,0
299741.5,164.886,-627.937,0,0
300001.825,163.169,-627.659,0,0
300262.15,161.462,-627.352,0,0
300522.475,159.724,-626.947,0,0
300782.8,158.008,-626.473,0,0
301043.125,156.293,-625.953,0,0
301303.45,154.571,-625.345,0,0
301563.775,152.92,-624.628,0,0
301824.1,151.315,-623.893,0,0
302084.425,149.799,-623.063,0,0
302344.75,148.324,-622.244,0,0
302605.075,146.872,-621.427,0,0
302865.4,145.443,-620.579,0,0
303125.725,143.988,-619.725,0,0
303386.05,142.54,-618.789,0,0
303646.375,141.133,-617.784,0,0
303906.7,139.784,-616.709,0,0
304167.025,138.517,-615.589,0,0
304427.35,137.282,-614.434,0,0
304687.675,136.121,-613.231,0,0
304948.0,135.029,-612.018,0,0
305208.325,134.035,-610.822,0,0
305468.65,133.079,-609.625,0,0
305728.975,132.151,-608.405,0,0
305989.3,131.281,-607.225,0,0
306249.625,130.459,-605.991,0,0
306509.95,129.703,-604.738,0,0
306770.275,129.03,-603.478,0,0
307030.6,128.453,-602.26,0,0
307290.925,127.974,-601.1,0,0
307551.25,127.518,-599.998,0,0
307811.575,127.099,-598.976,0,0
308071.9,126.695,-597.992,0,0
308332.225,126.325,-597.046,0,0
308592.55,125.956,-596.176,0,0
308852.875,125.627,-595.402,0,0
309113.2,125.285,-594.704,0,0
309373.525,124.838,-594.053,0,0
309633.85,124.371,-593.448,0,0
309894.175,123.808,-592.856,0,0
310154.5,123.214,-592.249,0,0
310414.825,122.553,-591.639,0,0
310675.15,121.811,-590.997,0,0
310935.475,121.069,-590.264,0,0
311195.8,120.342,-589.471,0,0
311456.125,119.613,-588.651,0,0
311716.45,118.927,-587.79,0,0
311976.775,118.266,-586.896,0,0
312237.1,117.633,-586.008,0,0
312497.425,117.037,-585.083,0,0
312757.75,116.425,-584.168,0,0
313018.075,115.879,-583.199,0,0
313278.4,115.382,-582.241,0,0
313538.725,114.931,-581.281,0,0
313799.05,114.545,-580.342,0,0
314059.375,114.176,-579.411,0,0
314319.7,113.865,-578.53,0,0
314580,113.672,-577.933,0,0
314840,113.38,-577.149,0,0
315101,113.107,-576.337,0,0
315361,112.851,-575.672,0,0
315621,112.594,-574.954,0,0
315882,112.372,-574.24,0,0
316142,112.117,-573.573,0,0
316402,111.819,-572.903,0,0
316663,111.611,-572.3,0,0
316923,111.38,-571.706,0,0
317183,111.124,-571.191,0,0
317444,110.882,-570.655,0,0
317704,110.598,-570.266,0,0
317964,110.21,-569.863,0,0
318225,109.959,-569.469,0,0
318485,109.581,-569.069,0,0
318745,109.188,-568.722,0,0
319006,108.844,-568.476,0,0
319266,108.393,-568.277,0,0
319526,107.948,-568.01,0,0
319787,107.457,-567.876,0,0
320047,106.763,-567.786,0,0
320307,106.063,-567.805,0,0
320567,105.321,-567.64,0,0
320828,104.411,-567.527,0,0
321088,103.462,-567.389,0,0
321348,102.438,-567.174,0,0
321609,101.234,-566.88,0,0
321869,99.9344,-566.501,0,0
322129,98.5847,-566.067,0,0
322390,97.3155,-565.745,0,0
322650,95.7814,-565.027,0,0
322910,94.2807,-564.189,0,0
323171,92.9022,-563.091,0,0
323431,91.5264,-562.125,0,0
323691,90.3005,-560.936,0,0
323952,89.1471,-559.598,0,0
324212,88.1596,-558.046,0,0
324472,87.2051,-556.572,0,0
324733,86.4216,-555.314,0,0
324993,85.7378,-553.886,0,0
325253,85.0246,-552.462,0,0
325514,84.383,-551.094,0,0
325774,83.7717,-549.774,0,0
326034,83.1772,-548.521,0,0
326295,82.5948,-547.236,0,0
326555,82.029,-545.905,0,0
326815,81.4629,-544.626,0,0
327076,80.9728,-543.357,0,0
327336,80.3699,-541.923,0,0
327596,79.9444,-540.57,0,0
327857,79.5044,-539.196,0,0
328117,79.1349,-537.744,0,0
328377,78.7087,-536.446,0,0
328638,78.5145,-534.946,0,0
328898,78.179,-533.558,0,0
329158,78.0451,-532.224,0,0
329419,77.8778,-530.668,0,0
329679,77.8,-529.17,0,0
329939,77.7548,-527.521,0,0
330200,77.8907,-526.208,0,0
330460,78.0641,-524.925,0,0
330720.15,78.2433,-523.494,0,0
330980.475,78.4501,-522.265,0,0
331240.8,78.7563,-521.172,0,0
331501.125,79.0207,-520.15,0,0
331761.45,79.3249,-519.104,0,0
332021.775,79.6656,-518.21,0,0
332282.1,79.9935,-517.348,0,0
332542.425,80.2726,-516.54,0,0
332802.75,80.4946,-515.757,0,0
333063.075,80.6599,-515.105,0,0
333323.4,80.7861,-514.658,0,0
333583.725,80.8116,-514.231,0,0
333844.05,80.7863,-513.77,0,0
334104.375,80.6991,-513.227,0,0
334364.7,80.5285,-512.754,0,0
334625.025,80.2672,-512.173,0,0
334885.35,79.9884,-511.504,0,0
335145.675,79.6585,-510.801,0,0
335406.0,79.3218,-510.259,0,0
335666.325,78.8576,-509.394,0,0
335926.65,78.5179,-508.762,0,0
336186.975,78.0419,-507.839,0,0
336447.3,77.6306,-506.9,0,0
336707.625,77.201,-506.028,0,0
336967.95,76.8434,-504.94,0,0
337228.275,76.4252,-503.873,0,0
337488.6,76.2117,-502.759,0,0
337748.925,75.9254,-501.555,0,0
338009.25,75.7794,-500.426,0,0
338269.575,75.6102,-499.257,0,0
338529.9,75.4607,-498.015,0,0
338790.225,75.4055,-496.779,0,0
339050.55,75.3281,-495.491,0,0
339310.875,75.3099,-494.204,0,0
339571.2,75.4166,-492.887,0,0
339831.525,75.4974,-491.538,0,0
340091.85,75.7399,-490.144,0,0
340352.175,75.9816,-488.876,0,0
340612.5,76.3073,-487.509,0,0
340872.825,76.6847,-486.07,0,0
341133.15,77.205,-484.769,0,0
341393.475,77.792,-483.563,0,0
341653.8,78.651,-482.867,0,0
341914.125,79.3105,-481.684,0,0
342174.45,80.2062,-480.745,0,0
342434.775,81.1353,-479.947,0,0
342695.1,82.0626,-479.244,0,0
342955.425,82.9938,-478.703,0,0
343215.75,83.9263,-478.165,0,0
343476.075,84.8298,-477.807,0,0
343736.4,85.6082,-477.545,0,0
343996.725,86.4155,-477.411,0,0
344257.05,87.0918,-477.254,0,0
344517.375,87.7118,-477.266,0,0
344777.7,88.2686,-477.297,0,0
345038.025,88.6839,-477.342,0,0
345298.35,89.0908,-477.52,0,0
345558.675,89.3422,-477.601,0,0
345819.0,89.6151,-477.729,0,0
346079.325,89.7457,-477.895,0,0
346339.65,89.8379,-477.954,0,0
346599.975,89.8267,-478.032,0,0
346860,89.7757,-478.124,0,0
347121,89.6735,-478.21,0,0
347381,89.4737,-478.234,0,0
347641,89.2714,-478.264,0,0
347902,89.0062,-478.265,0,0
348162,88.6403,-478.227,0,0
348422,88.3359,-478.074,0,0
348683,87.9716,-477.879,0,0
348943,87.5739,-477.682,0,0
349203,87.226,-477.458,0,0
349464,86.7969,-477.164,0,0
349724,86.4306,-476.815,0,0
349984,86.035,-476.429,0,0
350245,85.512,-476.008,0,0
350505,85.1689,-475.571,0,0
350765,84.7373,-475.151,0,0
351025,84.2521,-474.642,0,0
351286,83.9089,-474.04,0,0
351546,83.5338,-473.493,0,0
351806,83.0874,-472.858,0,0
352067,82.6633,-472.153,0,0
352327,82.3825,-471.448,0,0
352587,81.995,-470.637,0,0
352848,81.7137,-469.869,0,0
353108,81.539,-469.028,0,0
353368,81.4272,-468.281,0,0
353629,81.3337,-467.447,0,0
353889,81.3396,-466.729,0,0
354149,81.3458,-465.932,0,0
354410,81.3769,-465.338,0,0
354670,81.4408,-464.721,0,0
354930,81.4658,-464.193,0,0
355191,81.4682,-463.6,0,0
355451,81.4607,-463.067,0,0
355711,81.4191,-462.563,0,0
355972,81.4463,-462.041,0,0
356232,81.4483,-461.542,0,0
356492,81.341,-461.09,0,0
356753,81.2782,-460.588,0,0
357013,81.1885,-460.183,0,0
357273,81.0326,-459.707,0,0
357534,80.9028,-459.296,0,0
357794,80.7112,-458.772,0,0
358054,80.5127,-458.297,0,0
358315,80.2855,-457.748,0,0
358575,80.0111,-457.174,0,0
358835,79.757,-456.58,0,0
359096,79.5112,-455.931,0,0
359356,79.3038,-455.239,0,0
359616,79.0133,-454.566,0,0
359877,78.8692,-453.835,0,0
360137,78.7019,-453.053,0,0
360397,78.4858,-452.266,0,0
360658,78.3924,-451.484,0,0
360918,78.3015,-450.635,0,0
361178,78.2382,-449.765,0,0
361438,78.2251,-448.899,0,0
361699,78.3235,-448.029,0,0
361959,78.3501,-447.199,0,0
362219,78.5124,-446.421,0,0
362480,78.6786,-445.621,0,0
362740.1,78.8468,-444.954,0,0
363000.425,79.0736,-444.224,0,0
363260.75,79.2141,-443.625,0,0
363521.075,79.4149,-443,0,0
363781.4,79.4965,-442.463,0,0
364041.725,79.5676,-441.86,0,0
364302.05,79.5887,-441.277,0,0
364562.375,79.615,-440.684,0,0
364822.7,79.6116,-440.01,0,0
365083.025,79.549,-439.334,0,0
365343.35,79.5268,-438.601,0,0
365603.675,79.5102,-437.883,0,0
365864.0,79.4757,-437.022,0,0
366124.325,79.5539,-436.117,0,0
366384.65,79.6486,-435.192,0,0
366644.975,79.7755,-434.188,0,0
366905.3,80.0258,-433.286,0,0
367165.625,80.35,-432.328,0,0
367425.95,80.6422,-431.378,0,0
367686.275,81.0538,-430.466,0,0
367946.6,81.4718,-429.555,0,0
368206.925,81.9242,-428.653,0,0
368467.25,82.4629,-427.716,0,0
368727.575,83.0659,-426.84,0,0
368987.9,83.6919,-425.957,0,0
369248.225,84.4426,-425.203,0,0
369508.55,85.1813,-424.391,0,0
369768.875,85.994,-423.69,0,0
370029.2,86.8687,-422.997,0,0
370289.525,87.7641,-422.405,0,0
370549.85,88.7346,-421.824,0,0
370810.175,89.7448,-421.278,0,0
371070.5,90.8232,-420.893,0,0
371330.825,91.9581,-420.545,0,0
371591.15,93.108,-420.465,0,0
371851.475,94.2367,-420.396,0,0
372111.8,95.3604,-420.476,0,0
372372.125,96.4356,-420.686,0,0
372632.45,97.4787,-421.005,0,0
372892.775,98.447,-421.43,0,0
373153.1,99.2492,-422.018,0,0
373413.425,100.063,-422.619,0,0
373673.75,100.672,-423.33,0,0
373934.075,101.134,-424.165,0,0
374194.4,101.504,-424.953,0,0
374454.725,101.64,-425.719,0,0
374715.05,101.658,-426.46,0,0
374975.375,101.581,-427.065,0,0
375235.7,101.425,-427.617,0,0
375496.025,101.237,-428.064,0,0
375756.35,100.997,-428.448,0,0
376016.675,100.852,-428.706,0,0
376277.0,100.662,-428.983,0,0
376537.325,100.463,-429.245,0,0
376797.65,100.297,-429.489,0,0
377057.975,100.102,-429.729,0,0
377318.3,99.8721,-429.907,0,0
377578.625,99.6937,-430.03,0,0
377838.95,99.482,-430.2,0,0
378099.275,99.2732,-430.347,0,0
378359.6,99.0679,-430.558,0,0
378619.925,98.8151,-430.674,0,0
378880,98.544,-430.734,0,0
379141,98.2646,-430.874,0,0
379401,97.9254,-430.957,0,0
379661,97.6396,-430.978,0,0
379922,97.3919,-431.064,0,0
380182,97.0012,-431.082,0,0
380442,96.7217,-431.15,0,0
380703,96.2877,-431.096,0,0
380963,95.9452,-430.975,0,0
381223,95.6207,-430.873,0,0
381483,95.3019,-430.542,0,0
381744,95.0894,-430.263,0,0
382004,95.0584,-429.926,0,0
382264,95.1664,-429.683,0,0
382525,95.2823,-429.6,0,0
382785,95.5302,-429.643,0,0
383045,95.7066,-429.823,0,0
383306,95.8889,-430.137,0,0
383566,95.8802,-430.682,0,0
383826,95.8334,-431.309,0,0
384087,95.518,-431.903,0,0
384347,95.0515,-432.463,0,0
384607,94.5216,-433.083,0,0
384868,93.8606,-433.656,0,0
385128,93.0942,-434.116,0,0
385388,92.1597,-434.582,0,0
385649,91.1782,-434.811,0,0
385909,90.0488,-434.96,0,0
386169,88.979,-435.044,0,0
386430,87.7986,-435.061,0,0
386690,86.5936,-434.857,0,0
386950,85.4258,-434.536,0,0
387211,84.3354,-434.028,0,0
387471,83.26,-433.428,0,0
387731,82.2016,-432.687,0,0
387992,81.3537,-431.883,0,0
388252,80.5805,-431.002,0,0
388512,79.9294,-430.019,0,0
388773,79.3579,-429.067,0,0
389033,78.9715,-428.107,0,0
389293,78.7051,-427.212,0,0
389554,78.5848,-426.272,0,0
389814,78.5944,-425.425,0,0
390074,78.6511,-424.788,0,0
390335,78.7663,-424.103,0,0
390595,78.95,-423.607,0,0
390855,79.1279,-423.304,0,0
391116,79.3493,-423.083,0,0
391376,79.4287,-423.056,0,0
391636,79.4326,-423.135,0,0
391896,79.2773,-423.295,0,0
392157,78.9967,-423.496,0,0
392417,78.5799,-423.698,0,0
392677,77.9807,-423.924,0,0
392938,77.3085,-424.024,0,0
393198,76.4943,-424.004,0,0
393458,75.6073,-423.902,0,0
393719,74.7363,-423.71,0,0
393979,73.8102,-423.377,0,0
394239,72.8685,-422.989,0,0
394500,71.9461,-422.526,0,0
394760.05,70.9954,-421.935,0,0
395020.375,70.1404,-421.261,0,0
395280.7,69.3248,-420.563,0,0
395541.025,68.5345,-419.822,0,0
395801.35,67.8075,-418.961,0,0
396061.675,67.1471,-418.111,0,0
396322.0,66.5831,-417.254,0,0
396582.325,65.9955,-416.439,0,0
396842.65,65.4203,-415.573,0,0
397102.975,64.9065,-414.735,0,0
397363.3,64.4009,-413.85,0,0
397623.625,63.9521,-413.016,0,0
397883.95,63.4639,-412.101,0,0
398144.275,63.0022,-411.169,0,0
398404.6,62.5694,-410.27,0,0
398664.925,62.188,-409.262,0,0
398925.25,61.8564,-408.316,0,0
399185.575,61.54,-407.301,0,0
399445.9,61.2097,-406.245,0,0
399706.225,60.9426,-405.255,0,0
399966.55,60.7267,-404.199,0,0
400006.6,60.6525,-404.043,0,0