File: Accelerated corrosion test data/2025-10-04_18-00-03/sample_3.csv
Frequency (Hz),Impedance (ohms),Phase (Radians),Temperature (C),Humidity (%)
10000.0,251.706,-11772.1,0,0
10260.325,245.485,-11475.2,0,0
10520.65,239.793,-11193.4,0,0
10780.975,235.304,-10923.9,0,0
11041.3,229.959,-10672.2,0,0
11301.625,224.207,-10427.4,0,0
11561.95,219.501,-10194,0,0
11822.275,214.763,-9970.76,0,0
12082.6,211.901,-9757.37,0,0
12342.925,209.277,-9551.91,0,0
12603.25,203.327,-9358.03,0,0
12863.575,199.991,-9168.81,0,0
13123.9,199.616,-8985.64,0,0
13384.225,193.163,-8817.58,0,0
13644.55,189.851,-8649.06,0,0
13904.875,185.867,-8486.68,0,0
14165.2,184.718,-8330.72,0,0
14425.525,180.087,-8181.67,0,0
14685.8,178.922,-8037.89,0,0
14946.175,176.975,-7898.6,0,0
15206.5,172.815,-7758.43,0,0
15466.825,179.111,-7621.27,0,0
15727.15,194.777,-7513.6,0,0
15987.5,174.746,-7406.33,0,0
16247.8,168.591,-7276.68,0,0
16508.125,162.444,-7164.85,0,0
16768.45,163.957,-7043.89,0,0
17028.775,158.058,-6946.42,0,0
17289.1,161.04,-6832.75,0,0
17549.425,156.608,-6740.71,0,0
17809.75,157.221,-6636.6,0,0
18070.075,163.588,-6547.72,0,0
18330.4,151.169,-6457.32,0,0
18590.725,149.21,-6364.5,0,0
18851.05,145.148,-6275.04,0,0
19111.375,146.34,-6185.23,0,0
19371.7,145.937,-6103.15,0,0
19632.025,146.389,-6020.12,0,0
19892.35,147.22,-5938.21,0,0
20152.675,149.345,-5864.47,0,0
20413.0,157.183,-5783.81,0,0
20673.3,164.268,-5719.58,0,0
20933.65,162.172,-5664.54,0,0
21193.975,164.459,-5601.3,0,0
21454.3,146.011,-5540.44,0,0
21714.625,138.411,-5465.95,0,0
21974.9,141.821,-5399.64,0,0
22235.275,138.699,-5340.69,0,0
22495.6,137.023,-5278.88,0,0
22755.925,129.602,-5219.57,0,0
23016.25,128.297,-5160.03,0,0
23276.6,127.912,-5098.17,0,0
23536.9,130.186,-5051.95,0,0
23797.225,121.761,-4994.05,0,0
24057.55,119.205,-4936.75,0,0
24317.875,119.045,-4881.51,0,0
24578.2,117.765,-4831.71,0,0
24838.525,118.465,-4778.75,0,0
25098.85,116.182,-4732.41,0,0
25359.175,114.583,-4682.5,0,0
25619.5,114.294,-4634.79,0,0
25879.8,111.319,-4588.03,0,0
26140.1,108.543,-4540.31,0,0
26400.5,107.643,-4493.57,0,0
26660.8,108.207,-4448.78,0,0
26921.1,108.401,-4404.29,0,0
27181.4,108.312,-4363.95,0,0
27441.8,106.734,-4320.42,0,0
27702.1,109.08,-4280.71,0,0
27962.4,105.849,-4241.8,0,0
28222.7,104.033,-4198.81,0,0
28483.1,109.937,-4155.42,0,0
28743.4,112.983,-4120.61,0,0
29003.7,115.373,-4091.02,0,0
29264,107.418,-4058.46,0,0
29524.4,110.147,-4019.5,0,0
29784.7,104.919,-3986.81,0,0
30045,103.013,-3953.01,0,0
30305.3,100.33,-3916.1,0,0
30565.7,102.894,-3881.35,0,0
30826,100.545,-3849.33,0,0
31086.3,102.774,-3816.5,0,0
31346.6,98.9967,-3786.75,0,0
31607,97.7931,-3752.56,0,0
31867.3,98.3321,-3718.8,0,0
32127.6,101.411,-3685.85,0,0
32387.9,109.457,-3656.82,0,0
32648.3,112.886,-3638.55,0,0
32908.6,103.565,-3615.37,0,0
33168.9,101.671,-3587.23,0,0
33429.2,100.027,-3560.22,0,0
33689.6,94.6361,-3533.67,0,0
33949.9,91.2177,-3504.05,0,0
34210.2,90.9987,-3476.02,0,0
34470.5,90.0702,-3449.4,0,0
34730.9,88.4628,-3423.37,0,0
34991.2,86.7205,-3396.61,0,0
35251.5,86.1162,-3371.05,0,0
35511.8,84.9704,-3345.58,0,0
35772.2,84.4802,-3320.52,0,0
36032.5,83.4047,-3295.85,0,0
36292.8,83.0399,-3271.25,0,0
36553.1,82.642,-3247.75,0,0
36813.5,81.9478,-3224.28,0,0
37073.8,81.1169,-3201.47,0,0
37334.1,80.5536,-3178.06,0,0
37594.4,80.3199,-3155.6,0,0
37854.8,79.8997,-3133.44,0,0
38115.1,79.1771,-3111.45,0,0
38375.4,78.4673,-3089.83,0,0
38635.7,78.0924,-3068.4,0,0
38896.1,77.6573,-3047.3,0,0
39156.4,77.4714,-3026.53,0,0
39416.7,77.2225,-3006.32,0,0
39677,76.7128,-2986.27,0,0
39937.4,75.7267,-2966.12,0,0
40197.7,75.7029,-2946.12,0,0
40458,75.1901,-2926.67,0,0
40718.3,74.9763,-2907.3,0,0
40978.7,74.6688,-2888.29,0,0
41239,74.5346,-2869.3,0,0
41499.3,74.4513,-2850.91,0,0
41759.6,74.487,-2832.63,0,0
42020,74.0121,-2814.92,0,0
42280.275,73.9629,-2796.85,0,0
42540.6,73.6261,-2779.63,0,0
42800.925,73.3833,-2762.35,0,0
43061.25,72.9152,-2745.6,0,0
43321.575,72.2411,-2728.46,0,0
43581.9,71.7886,-2711.23,0,0
43842.225,71.8676,-2694.12,0,0
44102.55,71.9676,-2678.03,0,0
44362.875,72.1039,-2662.12,0,0
44623.2,71.6779,-2646.36,0,0
44883.525,71.1897,-2630.39,0,0
45143.85,71.1134,-2614.7,0,0
45404.175,70.5665,-2599.35,0,0
45664.5,70.4465,-2583.51,0,0
45924.825,71.106,-2567.92,0,0
46185.15,70.7851,-2554.23,0,0
46445.475,70.1689,-2539.12,0,0
46705.8,69.9228,-2524.13,0,0
46966.125,70.1203,-2509.51,0,0
47226.45,69.711,-2495.54,0,0
47486.775,69.6366,-2481.08,0,0
47747.1,70.1558,-2466.52,0,0
48007.425,70.9495,-2453.7,0,0
48267.75,70.8049,-2440.96,0,0
48528.075,69.457,-2427.68,0,0
48788.4,69.6099,-2414.28,0,0
49048.725,68.7736,-2401.4,0,0
49309.05,68.0959,-2387.93,0,0
49569.375,68.0719,-2374.6,0,0
49829.7,67.8166,-2361.77,0,0
50090.025,67.4206,-2349.2,0,0
50350.35,66.8598,-2336.21,0,0
50610.675,66.6141,-2323.21,0,0
50871.0,66.6363,-2310.77,0,0
51131.325,66.4388,-2298.34,0,0
51391.65,66.3336,-2286.05,0,0
51651.975,66.34,-2273.72,0,0
51912.3,66.3214,-2261.82,0,0
52172.625,66.1746,-2249.75,0,0
52432.95,66.2044,-2237.74,0,0
52693.275,66.4986,-2225.73,0,0
52953.6,66.7756,-2213.99,0,0
53213.925,67.4139,-2202.42,0,0
53474.25,68.2305,-2191.62,0,0
53734.575,68.3216,-2181.04,0,0
53994.9,68.4353,-2170.05,0,0
54255.225,69.4475,-2159.27,0,0
54515.55,70.263,-2149.8,0,0
54775.875,69.9706,-2141.03,0,0
55036.2,68.8605,-2131.18,0,0
55296.525,68.3568,-2121.41,0,0
55556.85,66.9821,-2111.98,0,0
55817.175,65.3053,-2101.36,0,0
56077.5,64.4765,-2090.91,0,0
56337.825,63.7301,-2080.38,0,0
56598.15,62.7511,-2069.89,0,0
56858.475,62.0142,-2059.21,0,0
57118.8,61.4863,-2048.3,0,0
57379.125,61.2873,-2037.76,0,0
57639.45,61.3417,-2027.37,0,0
57899.775,61.4949,-2017.33,0,0
58160.1,61.3876,-2007.32,0,0
58420.4,61.3603,-1997.29,0,0
58680.7,61.4033,-1987.3,0,0
58941.1,61.4976,-1977.55,0,0
59201.4,61.5794,-1967.78,0,0
59461.7,61.9314,-1958.15,0,0
59722,62.142,-1948.77,0,0
59982.4,62.4904,-1939.3,0,0
60242.7,62.6823,-1930.07,0,0
60503,62.7047,-1920.71,0,0
60763.3,63.2333,-1911.5,0,0
61023.7,63.6923,-1902.36,0,0
61284,64.1169,-1893.39,0,0
61544.3,64.572,-1884.32,0,0
61804.6,65.1963,-1875.83,0,0
62065,65.3803,-1866.98,0,0
62325.3,65.7904,-1858.25,0,0
62585.6,66.5104,-1849.47,0,0
62845.9,66.9907,-1840.45,0,0
63106.3,68.2282,-1831.8,0,0
63366.6,68.9975,-1823.53,0,0
63626.9,69.9158,-1814.5,0,0
63887.2,71.5808,-1806.26,0,0
64147.6,73.2778,-1797.83,0,0
64407.9,74.9805,-1789.74,0,0
64668.2,77.5511,-1781.56,0,0
64928.5,80.4718,-1774.37,0,0
65188.9,84.5391,-1768.02,0,0
65449.2,87.23,-1763.93,0,0
65709.5,89.0952,-1759.47,0,0
65969.8,91.7064,-1756.19,0,0
66230.2,91.5897,-1755.94,0,0
66490.5,86.9033,-1754.22,0,0
66750.8,81.4469,-1748.41,0,0
67011.1,77.7399,-1739.12,0,0
67271.5,76.7008,-1731.17,0,0
67531.8,74.777,-1723.26,0,0
67792.1,74.9364,-1714.58,0,0
68052.4,75.057,-1707,0,0
68312.8,76.0969,-1699.77,0,0
68573.1,76.554,-1693.75,0,0
68833.4,76.5179,-1687.57,0,0
69093.7,76.6203,-1681.19,0,0
69354.1,77.1223,-1675.43,0,0
69614.4,76.7132,-1670.13,0,0
69874.7,76.1042,-1664.54,0,0
70135,75.0653,-1658.95,0,0
70395.4,74.0566,-1652.93,0,0
70655.7,73.0203,-1646.92,0,0
70916,71.8198,-1640.71,0,0
71176.3,70.7897,-1634.15,0,0
71436.7,69.9296,-1627.46,0,0
71697,69.3643,-1620.72,0,0
71957.3,69.1386,-1613.83,0,0
72217.6,69.2403,-1607.53,0,0
72478,69.2471,-1601.44,0,0
72738.3,69.3122,-1595.63,0,0
72998.6,69.1362,-1590.09,0,0
73258.9,68.6316,-1584.5,0,0
73519.3,68.0173,-1578.75,0,0
73779.6,67.5974,-1573.06,0,0
74039.9,67.1022,-1567.57,0,0
74300.225,66.2943,-1561.96,0,0
74560.55,65.5984,-1556.29,0,0
74820.875,64.8871,-1550.48,0,0
75081.2,64.1176,-1544.76,0,0
75341.525,63.3071,-1539.07,0,0
75601.85,62.6617,-1533.25,0,0
75862.175,61.879,-1527.34,0,0
76122.5,61.2355,-1521.44,0,0
76382.825,60.5532,-1515.54,0,0
76643.15,60.0542,-1509.7,0,0
76903.475,59.5498,-1503.83,0,0
77163.8,59.1017,-1498.03,0,0
77424.125,58.6519,-1492.32,0,0
77684.45,58.1498,-1486.66,0,0
77944.775,57.6562,-1480.96,0,0
78205.1,57.1667,-1475.27,0,0
78465.425,56.7463,-1469.5,0,0
78725.75,56.3633,-1463.79,0,0
78986.075,55.9449,-1458.18,0,0
79246.4,55.614,-1452.55,0,0
79506.725,55.2823,-1446.98,0,0
79767.05,54.9054,-1441.3,0,0
80027.375,54.6916,-1435.73,0,0
80287.7,54.4658,-1430.19,0,0
80548.025,54.2156,-1424.69,0,0
80808.35,54.047,-1419.26,0,0
81068.675,53.8122,-1413.83,0,0
81329.0,53.6281,-1408.43,0,0
81589.325,53.438,-1403.04,0,0
81849.65,53.3171,-1397.73,0,0
82109.975,53.1861,-1392.38,0,0
82370.3,53.0748,-1387.05,0,0
82630.625,52.9576,-1381.84,0,0
82890.95,52.9409,-1376.59,0,0
83151.275,52.8383,-1371.46,0,0
83411.6,52.7509,-1366.21,0,0
83671.925,52.6883,-1361.1,0,0
83932.25,52.6554,-1356,0,0
84192.575,52.6018,-1351,0,0
84452.9,52.6128,-1345.93,0,0
84713.225,52.5573,-1340.9,0,0
84973.55,52.5301,-1335.93,0,0
85233.875,52.5771,-1330.92,0,0
85494.2,52.5548,-1325.89,0,0
85754.525,52.6214,-1321.03,0,0
86014.85,52.6224,-1316.12,0,0
86275.175,52.7018,-1311.28,0,0
86535.5,52.6843,-1306.47,0,0
86795.825,52.7286,-1301.7,0,0
87056.15,52.8334,-1296.88,0,0
87316.475,52.8406,-1291.97,0,0
87576.8,52.9752,-1287.12,0,0
87837.125,53.0388,-1282.38,0,0
88097.45,53.3801,-1277.67,0,0
88357.775,53.4082,-1272.94,0,0
88618.1,53.5412,-1268.2,0,0
88878.425,53.7396,-1263.36,0,0
89138.75,54.1408,-1258.72,0,0
89399.075,54.539,-1253.91,0,0
89659.4,54.9976,-1249.43,0,0
89919.725,55.5391,-1244.99,0,0
90180,56.0757,-1240.48,0,0
90440.4,56.6181,-1236.33,0,0
90700.7,56.9455,-1232.03,0,0
90961,57.3639,-1227.66,0,0
91221.3,57.8649,-1223.38,0,0
91481.7,58.4396,-1219.11,0,0
91742,59.0019,-1215.16,0,0
92002.3,59.6491,-1211.04,0,0
92262.6,60.2324,-1207.04,0,0
92523,61.0656,-1203.21,0,0
92783.3,61.6914,-1199.59,0,0
93043.6,62.2459,-1195.97,0,0
93303.9,63.0776,-1192.34,0,0
93564.3,63.806,-1189.19,0,0
93824.6,64.3297,-1186.21,0,0
94084.9,64.663,-1183.41,0,0
94345.2,64.5206,-1180.69,0,0
94605.6,64.4688,-1177.86,0,0
94865.9,64.1379,-1175.48,0,0
95126.2,62.7996,-1173.11,0,0
95386.5,60.9835,-1169.55,0,0
95646.9,59.565,-1165.28,0,0
95907.2,58.8516,-1160.84,0,0
96167.5,58.2992,-1156.57,0,0
96427.8,57.8894,-1152.13,0,0
96688.2,57.8779,-1147.77,0,0
96948.5,57.92,-1143.74,0,0
97208.8,57.8664,-1139.76,0,0
97469.1,57.9035,-1135.83,0,0
97729.5,57.9264,-1132.07,0,0
97989.8,57.902,-1128.29,0,0
98250.1,57.8045,-1124.54,0,0
98510.4,57.7638,-1120.74,0,0
98770.8,57.7727,-1117,0,0
99031.1,57.6831,-1113.34,0,0
99291.4,57.5371,-1109.79,0,0
99551.7,57.2293,-1106.03,0,0
99812.1,56.9933,-1102.2,0,0
100072,56.8545,-1098.39,0,0
100333,56.6631,-1094.61,0,0
100593,56.4267,-1090.71,0,0
100853,56.2327,-1086.72,0,0
101114,56.1453,-1082.7,0,0
101374,56.147,-1078.62,0,0
101634,56.27,-1074.46,0,0
101895,56.5075,-1070.34,0,0
102155,56.8366,-1066.33,0,0
102415,57.2223,-1062.16,0,0
102676,58.0714,-1058.02,0,0
102936,59.0963,-1054.34,0,0
103196,59.9454,-1051.02,0,0
103457,60.5801,-1047.77,0,0
103717,61.1255,-1044.37,0,0
103977,61.9089,-1040.89,0,0
104238,62.9877,-1037.64,0,0
104498,64.1419,-1035.04,0,0
104758,64.7471,-1032.81,0,0
105019,64.8105,-1030.52,0,0
105279,64.6887,-1028.06,0,0
105539,64.5766,-1025.26,0,0
105800,64.5108,-1022.65,0,0
106060,64.194,-1020.09,0,0
106320.175,63.5864,-1017.46,0,0
106580.5,62.9891,-1014.48,0,0
106840.825,62.4675,-1011.48,0,0
107101.15,61.7786,-1008.42,0,0
107361.475,61.0754,-1005.11,0,0
107621.8,60.5304,-1001.58,0,0
107882.125,60.0767,-998.019,0,0
108142.45,59.6313,-994.544,0,0
108402.775,59.3532,-990.936,0,0
108663.1,59.0124,-987.419,0,0
108923.425,58.7034,-983.688,0,0
109183.75,58.4214,-979.887,0,0
109444.075,58.3468,-976.013,0,0
109704.4,58.5229,-972.257,0,0
109964.725,58.7032,-968.528,0,0
110225.05,58.6985,-964.853,0,0
110485.375,59.0232,-961.003,0,0
110745.7,59.4297,-957.166,0,0
111006.025,59.9868,-953.672,0,0
111266.35,60.5913,-950.164,0,0
111526.675,61.1035,-946.922,0,0
111787.0,61.4906,-943.649,0,0
112047.325,61.9368,-940.393,0,0
112307.65,62.3798,-937.181,0,0
112567.975,62.9056,-933.966,0,0
112828.3,63.2197,-930.869,0,0
113088.625,63.4669,-927.637,0,0
113348.95,63.826,-924.385,0,0
113609.275,64.2336,-921.198,0,0
113869.6,64.4588,-918.012,0,0
114129.925,64.7958,-914.733,0,0
114390.25,65.2095,-911.514,0,0
114650.575,65.4522,-908.201,0,0
114910.9,65.8331,-904.693,0,0
115171.225,66.4869,-901.292,0,0
115431.55,67.1041,-897.987,0,0
115691.875,67.7964,-894.721,0,0
115952.2,68.4177,-891.47,0,0
116212.525,69.0787,-888.133,0,0
116472.85,69.8503,-884.785,0,0
116733.175,70.8688,-881.453,0,0
116993.5,72.0088,-878.402,0,0
117253.825,72.8951,-875.5,0,0
117514.15,73.6475,-872.335,0,0
117774.475,74.7792,-868.913,0,0
118034.8,76.4715,-865.759,0,0
118295.125,78.1759,-863.13,0,0
118555.45,79.8595,-860.746,0,0
118815.775,81.2303,-858.78,0,0
119076.1,82.1714,-856.655,0,0
119336.425,83.3214,-854.163,0,0
119596.75,85.116,-851.875,0,0
119857.075,86.9718,-850.481,0,0
120117.4,88.1628,-849.667,0,0
120377.725,88.6136,-848.889,0,0
120638.05,88.6843,-847.784,0,0
120898.375,88.6158,-846.433,0,0
121158.7,88.3476,-845.012,0,0
121419.025,87.9006,-843.359,0,0
121679.35,87.1871,-841.488,0,0
121939.675,86.5029,-839.045,0,0
122200.0,86.278,-836.344,0,0
122460,86.188,-833.749,0,0
122721,86.3019,-831.147,0,0
122981,86.4568,-828.549,0,0
123241,86.8235,-825.985,0,0
123502,87.311,-823.71,0,0
123762,87.5977,-821.579,0,0
124022,87.7497,-819.382,0,0
124283,87.9881,-817.062,0,0
124543,88.28,-814.829,0,0
124803,88.589,-812.72,0,0
125064,88.8366,-810.643,0,0
125324,89.0338,-808.624,0,0
125584,89.1517,-806.612,0,0
125845,89.2956,-804.593,0,0
126105,89.4405,-802.662,0,0
126365,89.4194,-800.853,0,0
126626,89.2007,-798.981,0,0
126886,88.9274,-797,0,0
127146,88.5816,-794.919,0,0
127406,88.3061,-792.823,0,0
127667,87.9844,-790.554,0,0
127927,87.5209,-788.326,0,0
128187,87.2163,-786.05,0,0
128448,86.8353,-783.867,0,0
128708,86.2562,-781.462,0,0
128968,85.7567,-778.836,0,0
129229,85.4209,-776.043,0,0
129489,85.2338,-773.374,0,0
129749,84.9944,-770.607,0,0
130010,84.882,-767.769,0,0
130270,85.0057,-764.904,0,0
130530,85.2676,-762.163,0,0
130791,85.7258,-759.582,0,0
131051,86.099,-757.36,0,0
131311,86.1895,-755.25,0,0
131572,86.2146,-753.03,0,0
131832,86.1248,-750.806,0,0
132092,85.9608,-748.582,0,0
132353,85.6963,-746.253,0,0
132613,85.4717,-743.709,0,0
132873,85.4497,-741.202,0,0
133134,85.3916,-738.857,0,0
133394,85.2128,-736.515,0,0
133654,85.0369,-734.088,0,0
133915,84.8132,-731.682,0,0
134175,84.4913,-729.202,0,0
134435,84.2995,-726.638,0,0
134696,84.1044,-724.163,0,0
134956,83.736,-721.659,0,0
135216,83.335,-718.921,0,0
135477,83.1471,-716.08,0,0
135737,83.0423,-713.443,0,0
135997,82.8171,-710.747,0,0
136258,82.5101,-707.89,0,0
136518,82.2708,-705.025,0,0
136778,82.0775,-702.023,0,0
137039,82.0976,-698.902,0,0
137299,82.2398,-695.943,0,0
137559,82.4457,-692.989,0,0
137819,82.665,-690.194,0,0
138080,82.7984,-687.366,0,0
138340.125,83.0842,-684.488,0,0
138600.45,83.5496,-681.82,0,0
138860.775,83.7865,-679.474,0,0
139121.1,83.7163,-677.082,0,0
139381.425,83.5301,-674.419,0,0
139641.75,83.3876,-671.746,0,0
139902.075,83.2183,-669.003,0,0
140162.4,83.0039,-666.095,0,0
140422.725,82.9664,-663.07,0,0
140683.05,83.0517,-660.095,0,0
140943.375,83.1464,-657.301,0,0
141203.7,83.0994,-654.526,0,0
141464.025,82.934,-651.656,0,0
141724.35,82.742,-648.682,0,0
141984.675,82.5654,-645.582,0,0
142245.0,82.4572,-642.373,0,0
142505.325,82.4335,-639.178,0,0
142765.65,82.4012,-635.987,0,0
143025.975,82.3617,-632.68,0,0
143286.3,82.337,-629.344,0,0
143546.625,82.3609,-625.89,0,0
143806.95,82.4413,-622.384,0,0
144067.275,82.6584,-618.829,0,0
144327.6,82.9086,-615.309,0,0
144587.925,83.1945,-611.734,0,0
144848.25,83.5096,-608.169,0,0
145108.575,83.8735,-604.552,0,0
145368.9,84.3101,-600.955,0,0
145629.225,84.722,-597.332,0,0
145889.55,85.1453,-593.622,0,0
146149.875,85.6245,-589.846,0,0
146410.2,86.213,-585.984,0,0
146670.525,86.8658,-582.112,0,0
146930.85,87.618,-578.238,0,0
147191.175,88.4214,-574.298,0,0
147451.5,89.3045,-570.339,0,0
147711.825,90.27,-566.325,0,0
147972.15,91.3781,-562.303,0,0
148232.475,92.6081,-558.312,0,0
148492.8,93.8362,-554.393,0,0
148753.125,95.055,-550.41,0,0
149013.45,96.3904,-546.289,0,0
149273.775,97.8814,-542.172,0,0
149534.1,99.4583,-537.991,0,0
149794.425,101.276,-533.687,0,0
150054.75,103.409,-529.486,0,0
150315.075,105.754,-525.489,0,0
150575.4,108.181,-521.662,0,0
150835.725,110.665,-517.97,0,0
151096.05,113.262,-514.451,0,0
151356.375,115.9,-511.095,0,0
151616.7,118.514,-507.935,0,0
151877.025,121.069,-504.853,0,0
152137.35,123.646,-501.838,0,0
152397.675,126.27,-498.962,0,0
152658.0,128.825,-496.264,0,0
152918.325,131.297,-493.667,0,0
153178.65,133.718,-491.191,0,0
153438.975,135.875,-488.893,0,0
153699.3,137.794,-486.374,0,0
153959.625,139.801,-483.722,0,0
154219.95,141.851,-481.145,0,0
154480,143.867,-478.722,0,0
154741,145.435,-476.357,0,0
155001,146.697,-473.638,0,0
155261,147.853,-470.249,0,0
155522,149.856,-466.251,0,0
155782,152.54,-462.734,0,0
156042,155.041,-459.873,0,0
156303,157.043,-457.007,0,0
156563,158.868,-453.596,0,0
156823,161.128,-449.734,0,0
157084,164.07,-445.959,0,0
157344,167.272,-442.472,0,0
157604,170.878,-439.617,0,0
157864,174.109,-437.309,0,0
158125,176.99,-435.191,0,0
158385,179.676,-433.091,0,0
158645,181.878,-431.339,0,0
158906,183.068,-429.342,0,0
159166,183.782,-426.152,0,0
159426,185.236,-422.089,0,0
159687,186.96,-418.301,0,0
159947,188.226,-413.87,0,0
160207,190.05,-408.356,0,0
160468,192.812,-402.614,0,0
160728,196.248,-396.595,0,0
160988,200.944,-390.659,0,0
161249,206.228,-385.795,0,0
161509,210.968,-381.407,0,0
161769,215.388,-376.443,0,0
162030,220.836,-370.484,0,0
162290,227.668,-365.222,0,0
162550,234.821,-360.803,0,0
162811,241.94,-356.697,0,0
163071,249.414,-352.628,0,0
163331,257.453,-348.999,0,0
163592,265.604,-345.607,0,0
163852,274.601,-342.427,0,0
164112,284.238,-340.159,0,0
164373,293.867,-339.017,0,0
164633,302.988,-338.061,0,0
164893,312.577,-336.814,0,0
165154,323.626,-335.988,0,0
165414,335.756,-337.307,0,0
165674,346.878,-340.911,0,0
165935,356.578,-344.953,0,0
166195,366.235,-348.923,0,0
166455,376.051,-354.249,0,0
166716,384.499,-360.86,0,0
166976,391.71,-367.432,0,0
167236,398.67,-374.223,0,0
167497,404.704,-381.253,0,0
167757,410.401,-388.372,0,0
168017,415.57,-395.937,0,0
168277,420.524,-404.202,0,0
168538,423.64,-413.605,0,0
168798,424.842,-421.799,0,0
169058,425.74,-428.774,0,0
169319,427.299,-435.105,0,0
169579,429.487,-442.726,0,0
169839,429.668,-452.119,0,0
170100,426.988,-460.598,0,0
170360.075,422.963,-466.696,0,0
170620.4,419.312,-471.028,0,0
170880.725,416.124,-474.601,0,0
171141.05,412.784,-477.615,0,0
171401.375,409.427,-479.461,0,0
171661.7,406.842,-480,0,0
171922.025,405.632,-480.343,0,0
172182.35,404.815,-480.951,0,0
172442.675,404.451,-481.478,0,0
172703.0,404.113,-482.11,0,0
172963.325,404.14,-482.065,0,0
173223.65,405.611,-481.882,0,0
173483.975,408.159,-483.127,0,0
173744.3,409.95,-485.513,0,0
174004.625,411.388,-487.935,0,0
174264.95,412.914,-490.283,0,0
174525.275,415.205,-493.314,0,0
174785.6,416.777,-497.936,0,0
175045.925,417.053,-502.714,0,0
175306.25,416.62,-506.996,0,0
175566.575,416.426,-511.186,0,0
175826.9,415.647,-516.115,0,0
176087.225,413.525,-521.11,0,0
176347.55,410.539,-525.227,0,0
176607.875,407.555,-528.341,0,0
176868.2,404.971,-531.569,0,0
177128.525,401.725,-535.147,0,0
177388.85,397.55,-538.285,0,0
177649.175,392.991,-540.563,0,0
177909.5,388.376,-542.501,0,0
178169.825,382.932,-544.057,0,0
178430.15,376.688,-543.976,0,0
178690.475,371.243,-542.063,0,0
178950.8,367.013,-539.311,0,0
179211.125,363.947,-536.303,0,0
179471.45,361.75,-533.616,0,0
179731.775,359.564,-531.144,0,0
179992.1,357.813,-527.886,0,0
180252.425,357.267,-524.56,0,0
180512.75,357.655,-521.846,0,0
180773.075,358.659,-519.977,0,0
181033.4,359.539,-519.134,0,0
181293.725,359.951,-518.468,0,0
181554.05,360.462,-517.814,0,0
181814.375,361.61,-517.573,0,0
182074.7,362.854,-518.709,0,0
182335.025,362.682,-521.17,0,0
182595.35,360.616,-523.462,0,0
182855.675,357.538,-524.298,0,0
183116.0,354.793,-524.228,0,0
183376.325,352.335,-523.866,0,0
183636.65,349.754,-523.43,0,0
183896.975,347.034,-522.714,0,0
184157.3,344.172,-521.616,0,0
184417.625,341.285,-520.132,0,0
184677.95,338.552,-518.151,0,0
184938.275,336.017,-516.059,0,0
185198.6,333.353,-513.741,0,0
185458.925,330.747,-510.854,0,0
185719.25,328.375,-507.6,0,0
185979.575,326.154,-503.987,0,0
186239.9,324.169,-499.895,0,0
186500,322.701,-495.295,0,0
186761,321.908,-490.305,0,0
187021,322.099,-485.26,0,0
187281,323.084,-480.729,0,0
187542,324.234,-476.837,0,0
187802,325.376,-473.106,0,0
188062,326.725,-469.506,0,0
188322,328.345,-466.121,0,0
188583,330.086,-463.161,0,0
188843,331.636,-460.727,0,0
189103,332.579,-458.329,0,0
189364,333.297,-455.419,0,0
189624,334.257,-452.121,0,0
189884,335.772,-448.533,0,0
190145,337.831,-445.19,0,0
190405,340.066,-442.407,0,0
190665,342.066,-439.931,0,0
190926,343.842,-437.406,0,0
191186,345.639,-434.7,0,0
191446,347.5,-432.05,0,0
191707,349.311,-429.362,0,0
191967,351.144,-426.471,0,0
192227,353.23,-423.471,0,0
192488,355.416,-420.527,0,0
192748,357.57,-417.578,0,0
193008,359.658,-414.34,0,0
193269,362.047,-410.62,0,0
193529,365.036,-406.713,0,0
193789,368.514,-402.95,0,0
194050,372.305,-399.206,0,0
194310,376.608,-395.227,0,0
194570,381.907,-391.302,0,0
194831,388.201,-388.05,0,0
195091,395.089,-385.951,0,0
195351,402.097,-385.091,0,0
195612,408.463,-385.36,0,0
195872,413.988,-385.712,0,0
196132,419.46,-386.041,0,0
196393,425.217,-386.839,0,0
196653,430.856,-388.009,0,0
196913,436.323,-390.321,0,0
197174,440.614,-393.523,0,0
197434,443.455,-396.487,0,0
197694,445.43,-398.547,0,0
197955,447.71,-399.601,0,0
198215,450.587,-400.885,0,0
198475,453.23,-402.674,0,0
198735,455.086,-404.683,0,0
198996,455.944,-406.066,0,0
199256,456.848,-406.124,0,0
199516,458.747,-405.533,0,0
199777,461.536,-405.348,0,0
200037,464.397,-406.14,0,0
200297,466.262,-407.483,0,0
200558,467.052,-408.204,0,0
200818,467.674,-407.805,0,0
201078,468.812,-406.47,0,0
201339,470.684,-404.839,0,0
201599,473.033,-403.194,0,0
201859,475.673,-401.615,0,0
202120,478.367,-399.794,0,0
202380.025,481.565,-397.403,0,0
202640.35,485.89,-394.892,0,0
202900.675,491.131,-392.943,0,0
203161.0,496.748,-391.662,0,0
203421.325,502.549,-390.789,0,0
203681.65,508.753,-390.443,0,0
203941.975,515.303,-390.871,0,0
204202.3,521.713,-392.065,0,0
204462.625,527.725,-393.733,0,0
204722.95,533.736,-395.811,0,0
204983.275,539.51,-398.143,0,0
205243.6,545.171,-401.189,0,0
205503.925,550.285,-404.837,0,0
205764.25,554.602,-408.968,0,0
206024.575,557.817,-413.103,0,0
206284.9,560.024,-416.84,0,0
206545.225,561.42,-419.339,0,0
206805.55,563.1,-420.44,0,0
207065.875,565.645,-420.904,0,0
207326.2,568.877,-421.152,0,0
207586.525,572.833,-421.231,0,0
207846.85,577.556,-421.554,0,0
208107.175,582.609,-422.254,0,0
208367.5,588.025,-423.109,0,0
208627.825,593.974,-424.187,0,0
208888.15,600.332,-425.881,0,0
209148.475,606.919,-428.059,0,0
209408.8,613.641,-430.863,0,0
209669.125,620.482,-434.288,0,0
209929.45,627.321,-438.415,0,0
210189.775,633.841,-443.026,0,0
210450.1,640.04,-447.999,0,0
210710.425,645.96,-453.349,0,0
210970.75,651.668,-458.97,0,0
211231.075,657.091,-464.795,0,0
211491.4,662.431,-470.778,0,0
211751.725,667.648,-477.036,0,0
212012.05,672.631,-483.624,0,0
212272.375,677.373,-490.42,0,0
212532.7,681.744,-497.516,0,0
212793.025,686.164,-504.584,0,0
213053.35,690.465,-512.018,0,0
213313.675,694.569,-519.772,0,0
213574.0,698.414,-527.898,0,0
213834.325,701.899,-536.425,0,0
214094.65,704.844,-545.223,0,0
214354.975,707.198,-554.035,0,0
214615.3,709.104,-562.515,0,0
214875.625,711.228,-571.032,0,0
215135.95,713.373,-579.92,0,0
215396.275,715,-589.401,0,0
215656.6,715.874,-598.858,0,0
215916.925,716.63,-608.069,0,0
216177.25,717.287,-617.64,0,0
216437.575,717.316,-627.641,0,0
216697.9,716.81,-637.637,0,0
216958.225,715.91,-647.852,0,0
217218.55,713.998,-658.033,0,0
217478.875,711.451,-667.707,0,0
217739.2,708.611,-677.029,0,0
217999.525,705.311,-686.082,0,0
218259.85,701.835,-694.757,0,0
218520,698.29,-703.425,0,0
218780,694.196,-711.737,0,0
219041,689.702,-719.79,0,0
219301,684.726,-727.028,0,0
219561,680.008,-733.473,0,0
219822,675.839,-739.513,0,0
220082,672.357,-745.534,0,0
220342,669.57,-752.155,0,0
220603,666.675,-760.077,0,0
220863,662.868,-768.659,0,0
221123,657.775,-777.484,0,0
221384,651.698,-785.937,0,0
221644,644.821,-793.532,0,0
221904,637.983,-800.607,0,0
222165,630.66,-807.683,0,0
222425,622.784,-814.434,0,0
222685,614.202,-820.351,0,0
222946,605.508,-825.585,0,0
223206,596.345,-830.407,0,0
223466,586.473,-834.306,0,0
223727,576.781,-836.873,0,0
223987,567.301,-838.116,0,0
224247,558.742,-838.393,0,0
224508,550.642,-838.015,0,0
224768,543.509,-837.48,0,0
225028,537.117,-836.8,0,0
225289,531.561,-835.651,0,0
225549,526.924,-834.614,0,0
225809,523.074,-833.986,0,0
226070,519.823,-834.013,0,0
226330,516.759,-834.715,0,0
226590,513.684,-836.074,0,0
226851,510.393,-837.857,0,0
227111,506.889,-839.925,0,0
227371,503.053,-842.304,0,0
227632,498.889,-844.945,0,0
227892,494.239,-847.548,0,0
228152,489.306,-849.918,0,0
228413,484.147,-852.076,0,0
228673,479.035,-854.254,0,0
228933,473.465,-856.371,0,0
229193,467.573,-858.194,0,0
229454,461.752,-859.69,0,0
229714,455.713,-860.893,0,0
229974,449.924,-861.761,0,0
230235,444.098,-862.46,0,0
230495,438.173,-863.044,0,0
230755,432.251,-863.487,0,0
231016,426.235,-863.632,0,0
231276,420.528,-863.359,0,0
231536,414.949,-862.969,0,0
231797,409.506,-862.401,0,0
232057,404.236,-861.838,0,0
232317,399.122,-861.226,0,0
232578,394.045,-860.532,0,0
232838,389.049,-859.893,0,0
233098,384.195,-859.119,0,0
233359,379.164,-858.202,0,0
233619,374.487,-857.284,0,0
233879,369.943,-856.241,0,0
234140,365.44,-855.467,0,0
234400,360.788,-854.811,0,0
234660.3,356.035,-853.768,0,0
234920.625,351.527,-852.737,0,0
235180.95,347.241,-851.771,0,0
235441.275,342.729,-850.871,0,0
235701.6,338.184,-850.045,0,0
235961.925,333.427,-849.241,0,0
236222.25,328.488,-848.257,0,0
236482.575,323.357,-847.011,0,0
236742.9,318.197,-845.431,0,0
237003.225,313.246,-843.532,0,0
237263.55,308.502,-841.503,0,0
237523.875,303.854,-839.519,0,0
237784.2,299.162,-837.503,0,0
238044.525,294.401,-835.351,0,0
238304.85,289.542,-832.952,0,0
238565.175,284.769,-830.196,0,0
238825.5,280.156,-827.255,0,0
239085.825,275.637,-824.014,0,0
239346.15,271.524,-820.565,0,0
239606.475,267.557,-816.912,0,0
239866.8,263.951,-813.161,0,0
240127.125,260.698,-809.245,0,0
240387.45,257.621,-805.548,0,0
240647.775,254.837,-802.062,0,0
240908.1,252.08,-798.492,0,0
241168.425,249.449,-794.965,0,0
241428.75,246.97,-791.319,0,0
241689.075,244.619,-787.755,0,0
241949.4,242.329,-784.106,0,0
242209.725,240.271,-780.347,0,0
242470.05,238.547,-776.606,0,0
242730.375,236.993,-773.178,0,0
242990.7,235.614,-769.789,0,0
243251.025,234.288,-766.392,0,0
243511.35,233.167,-763.036,0,0
243771.675,232.274,-759.843,0,0
244032.0,231.581,-756.797,0,0
244292.325,230.894,-754.032,0,0
244552.65,230.181,-751.635,0,0
244812.975,229.292,-749.271,0,0
245073.3,228.399,-747.006,0,0
245333.625,227.465,-744.574,0,0
245593.95,226.538,-742.23,0,0
245854.275,225.627,-740.053,0,0
246114.6,224.53,-737.748,0,0
246374.925,223.569,-735.488,0,0
246635.25,222.64,-733.189,0,0
246895.575,221.712,-730.87,0,0
247155.9,220.755,-728.659,0,0
247416.225,219.862,-726.297,0,0
247676.55,218.981,-723.897,0,0
247936.875,218.207,-721.513,0,0
248197.2,217.563,-719.172,0,0
248457.525,216.971,-716.651,0,0
248717.85,216.609,-714.191,0,0
248978.175,216.547,-711.867,0,0
249238.5,216.536,-709.726,0,0
249498.825,216.58,-707.969,0,0
249759.15,216.494,-706.308,0,0
250019.475,216.514,-704.822,0,0
250279.8,216.431,-703.68,0,0
250540,216.133,-702.566,0,0
250800,215.551,-701.63,0,0
251061,214.792,-700.668,0,0
251321,213.864,-699.614,0,0
251581,212.708,-698.564,0,0
251842,211.397,-697.394,0,0
252102,209.942,-696.097,0,0
252362,208.362,-694.569,0,0
252623,206.664,-692.802,0,0
252883,204.918,-690.806,0,0
253143,203.313,-688.536,0,0
253404,201.689,-685.969,0,0
253664,200.248,-683.197,0,0
253924,199.068,-680.213,0,0
254185,198.088,-677.085,0,0
254445,197.388,-673.973,0,0
254705,196.931,-670.845,0,0
254966,196.554,-667.535,0,0
255226,196.366,-664.251,0,0
255486,196.391,-660.891,0,0
255747,196.656,-657.466,0,0
256007,197.298,-653.963,0,0
256267,198.357,-650.605,0,0
256528,199.752,-647.445,0,0
256788,201.377,-644.581,0,0
257048,203.098,-642.001,0,0
257309,204.969,-639.65,0,0
257569,206.937,-637.501,0,0
257829,208.976,-635.729,0,0
258090,210.898,-634.245,0,0
258350,212.638,-632.877,0,0
258610,214.251,-631.501,0,0
258871,215.789,-630.016,0,0
259131,217.575,-628.428,0,0
259391,219.573,-626.816,0,0
259651,221.894,-625.287,0,0
259912,224.616,-624.107,0,0
260172,227.514,-623.309,0,0
260432,230.47,-622.945,0,0
260693,233.339,-622.952,0,0
260953,236.282,-623.302,0,0
261213,239.206,-623.886,0,0
261474,242.169,-625.017,0,0
261734,245.045,-626.689,0,0
261994,247.538,-629.002,0,0
262255,249.538,-631.625,0,0
262515,251.005,-634.562,0,0
262775,251.915,-637.584,0,0
263036,252.31,-640.685,0,0
263296,252.189,-643.686,0,0
263556,251.837,-646.577,0,0
263817,251.063,-649.322,0,0
264077,250.022,-652.021,0,0
264337,248.607,-654.608,0,0
264598,246.9,-657.042,0,0
264858,244.819,-659.337,0,0
265118,242.509,-661.315,0,0
265379,239.827,-662.987,0,0
265639,236.96,-664.395,0,0
265899,233.982,-665.471,0,0
266160,230.786,-666.093,0,0
266420,227.652,-666.294,0,0
266680.25,224.519,-666.216,0,0
266940.575,221.448,-665.778,0,0
267200.9,218.426,-665.074,0,0
267461.225,215.588,-663.966,0,0
267721.55,212.964,-662.618,0,0
267981.875,210.6,-661.103,0,0
268242.2,208.384,-659.473,0,0
268502.525,206.394,-657.742,0,0
268762.85,204.577,-655.974,0,0
269023.175,202.918,-654.057,0,0
269283.5,201.482,-652.095,0,0
269543.825,200.296,-650.061,0,0
269804.15,199.293,-648.124,0,0
270064.475,198.353,-646.21,0,0
270324.8,197.552,-644.444,0,0
270585.125,196.816,-642.586,0,0
270845.45,196.202,-640.682,0,0
271105.775,195.681,-638.737,0,0
271366.1,195.379,-636.804,0,0
271626.425,195.155,-635.043,0,0
271886.75,195.093,-633.269,0,0
272147.075,195.158,-631.644,0,0
272407.4,195.402,-630.132,0,0
272667.725,195.6,-628.824,0,0
272928.05,195.671,-627.584,0,0
273188.375,195.72,-626.493,0,0
273448.7,195.68,-625.366,0,0
273709.025,195.533,-624.073,0,0
273969.35,195.443,-622.744,0,0
274229.675,195.466,-621.292,0,0
274490.0,195.563,-619.793,0,0
274750.325,195.878,-618.221,0,0
275010.65,196.382,-616.7,0,0
275270.975,196.998,-615.143,0,0
275531.3,197.833,-613.674,0,0
275791.625,198.823,-612.319,0,0
276051.95,199.999,-611.056,0,0
276312.275,201.427,-609.976,0,0
276572.6,202.943,-609.096,0,0
276832.925,204.644,-608.512,0,0
277093.25,206.398,-608.222,0,0
277353.575,208.18,-608.281,0,0
277613.9,209.881,-608.714,0,0
277874.225,211.377,-609.393,0,0
278134.55,212.749,-610.28,0,0
278394.875,214.004,-611.391,0,0
278655.2,215.038,-612.746,0,0
278915.525,215.818,-614.337,0,0
279175.85,216.258,-616.073,0,0
279436.175,216.306,-617.818,0,0
279696.5,216.067,-619.56,0,0
279956.825,215.565,-621.169,0,0
280217.15,214.851,-622.738,0,0
280477.475,213.878,-624.185,0,0
280737.8,212.804,-625.393,0,0
280998.125,211.559,-626.492,0,0
281258.45,210.295,-627.38,0,0
281518.775,209.017,-628.18,0,0
281779.1,207.709,-628.952,0,0
282039.425,206.308,-629.709,0,0
282299.75,204.762,-630.377,0,0
282560,203.094,-630.935,0,0
282820,201.333,-631.296,0,0
283081,199.498,-631.488,0,0
283341,197.675,-631.49,0,0
283601,195.93,-631.333,0,0
283862,194.174,-631.083,0,0
284122,192.484,-630.729,0,0
284382,190.787,-630.21,0,0
284643,189.219,-629.673,0,0
284903,187.674,-629.092,0,0
285163,186.099,-628.47,0,0
285424,184.491,-627.704,0,0
285684,182.957,-626.826,0,0
285944,181.459,-625.783,0,0
286205,180.018,-624.641,0,0
286465,178.709,-623.373,0,0
286725,177.478,-622.015,0,0
286986,176.395,-620.546,0,0
287246,175.504,-618.961,0,0
287506,174.809,-617.348,0,0
287767,174.389,-615.686,0,0
288027,174.192,-614.192,0,0
288287,174.158,-612.814,0,0
288548,174.272,-611.613,0,0
288808,174.452,-610.645,0,0
289068,174.631,-609.815,0,0
289329,174.802,-609.153,0,0
289589,174.903,-608.608,0,0
289849,174.909,-608.22,0,0
290109,174.843,-607.865,0,0
290370,174.681,-607.523,0,0
290630,174.45,-607.189,0,0
290890,174.208,-606.866,0,0
291151,173.898,-606.592,0,0
291411,173.514,-606.351,0,0
291671,172.995,-606.073,0,0
291932,172.374,-605.725,0,0
292192,171.661,-605.226,0,0
292452,171.004,-604.597,0,0
292713,170.413,-603.812,0,0
292973,169.925,-602.969,0,0
293233,169.538,-602.113,0,0
293494,169.267,-601.207,0,0
293754,169.083,-600.229,0,0
294014,169.092,-599.246,0,0
294275,169.224,-598.385,0,0
294535,169.514,-597.601,0,0
294795,169.905,-596.92,0,0
295056,170.384,-596.403,0,0
295316,170.956,-596.025,0,0
295576,171.568,-595.89,0,0
295837,172.148,-595.977,0,0
296097,172.622,-596.242,0,0
296357,172.935,-596.643,0,0
296618,173.161,-597.139,0,0
296878,173.249,-597.726,0,0
297138,173.212,-598.379,0,0
297399,173.035,-599.091,0,0
297659,172.713,-599.843,0,0
297919,172.243,-600.628,0,0
298180,171.591,-601.381,0,0
298440,170.784,-602.086,0,0
298700.2,169.858,-602.697,0,0
298960.525,168.861,-603.205,0,0
299220.85,167.805,-603.656,0,0
299481.175,166.676,-604.028,0,0
299741.5,165.515,-604.329,0,0
300001.825,164.331,-604.568,0,0
300262.15,163.096,-604.735,0,0
300522.475,161.813,-604.856,0,0
300782.8,160.514,-604.912,0,0
301043.125,159.174,-604.922,0,0
301303.45,157.812,-604.851,0,0
301563.775,156.421,-604.706,0,0
301824.1,154.981,-604.466,0,0
302084.425,153.563,-604.159,0,0
302344.75,152.132,-603.752,0,0
302605.075,150.739,-603.251,0,0
302865.4,149.38,-602.7,0,0
303125.725,148.048,-602.065,0,0
303386.05,146.777,-601.394,0,0
303646.375,145.538,-600.698,0,0
303906.7,144.314,-599.955,0,0
304167.025,143.118,-599.164,0,0
304427.35,141.961,-598.345,0,0
304687.675,140.864,-597.465,0,0
304948.0,139.769,-596.547,0,0
305208.325,138.735,-595.618,0,0
305468.65,137.778,-594.677,0,0
305728.975,136.821,-593.691,0,0
305989.3,135.933,-592.684,0,0
306249.625,135.056,-591.651,0,0
306509.95,134.265,-590.583,0,0
306770.275,133.518,-589.509,0,0
307030.6,132.856,-588.412,0,0
307290.925,132.282,-587.324,0,0
307551.25,131.796,-586.277,0,0
307811.575,131.377,-585.253,0,0
308071.9,131.021,-584.308,0,0
308332.225,130.719,-583.448,0,0
308592.55,130.434,-582.669,0,0
308852.875,130.141,-581.992,0,0
309113.2,129.818,-581.388,0,0
309373.525,129.41,-580.844,0,0
309633.85,128.995,-580.347,0,0
309894.175,128.501,-579.838,0,0
310154.5,127.922,-579.354,0,0
310414.825,127.309,-578.877,0,0
310675.15,126.635,-578.37,0,0
310935.475,125.942,-577.84,0,0
311195.8,125.221,-577.28,0,0
311456.125,124.467,-576.683,0,0
311716.45,123.711,-576.063,0,0
311976.775,122.909,-575.422,0,0
312237.1,122.067,-574.788,0,0
312497.425,121.146,-574.049,0,0
312757.75,120.217,-573.267,0,0
313018.075,119.273,-572.342,0,0
313278.4,118.329,-571.349,0,0
313538.725,117.449,-570.252,0,0
313799.05,116.644,-569.08,0,0
314059.375,115.87,-567.818,0,0
314319.7,115.222,-566.487,0,0
314580,114.629,-565.088,0,0
314840,114.122,-563.775,0,0
315101,113.912,-562.371,0,0
315361,113.543,-560.928,0,0
315621,113.505,-559.603,0,0
315882,113.542,-558.28,0,0
316142,113.67,-557.031,0,0
316402,113.794,-555.898,0,0
316663,113.99,-554.818,0,0
316923,114.25,-553.989,0,0
317183,114.484,-553.121,0,0
317444,114.811,-552.314,0,0
317704,115.007,-551.677,0,0
317964,115.198,-551.055,0,0
318225,115.332,-550.584,0,0
318485,115.424,-550.046,0,0
318745,115.416,-549.535,0,0
319006,115.478,-548.985,0,0
319266,115.386,-548.614,0,0
319526,115.43,-548.066,0,0
319787,115.281,-547.611,0,0
320047,115.232,-547.105,0,0
320307,115.147,-546.596,0,0
320567,115.123,-546.06,0,0
320828,115.048,-545.47,0,0
321088,115.084,-544.854,0,0
321348,115.119,-544.422,0,0
321609,115.17,-543.906,0,0
321869,115.316,-543.433,0,0
322129,115.56,-543.083,0,0
322390,115.68,-542.728,0,0
322650,115.863,-542.6,0,0
322910,116.007,-542.387,0,0
323171,116.098,-542.421,0,0
323431,116.212,-542.422,0,0
323691,116.107,-542.55,0,0
323952,116.054,-542.674,0,0
324212,115.892,-542.784,0,0
324472,115.497,-543.019,0,0
324733,115.181,-543.173,0,0
324993,114.744,-543.321,0,0
325253,114.164,-543.476,0,0
325514,113.608,-543.575,0,0
325774,113.002,-543.659,0,0
326034,112.27,-543.666,0,0
326295,111.528,-543.675,0,0
326555,110.748,-543.641,0,0
326815,109.88,-543.555,0,0
327076,109.021,-543.379,0,0
327336,108.146,-543.143,0,0
327596,107.272,-542.866,0,0
327857,106.396,-542.529,0,0
328117,105.519,-542.079,0,0
328377,104.63,-541.702,0,0
328638,103.882,-541.214,0,0
328898,103.052,-540.781,0,0
329158,102.258,-540.321,0,0
329419,101.481,-539.8,0,0
329679,100.674,-539.283,0,0
329939,99.9154,-538.737,0,0
330200,99.0574,-538.269,0,0
330460,98.2791,-537.762,0,0
330720.15,97.5489,-537.229,0,0
330980.475,96.6791,-536.769,0,0
331240.8,95.8227,-536.18,0,0
331501.125,94.968,-535.561,0,0
331761.45,94.0471,-534.935,0,0
332021.775,93.1585,-534.241,0,0
332282.1,92.2112,-533.551,0,0
332542.425,91.31,-532.816,0,0
332802.75,90.4913,-532.006,0,0
333063.075,89.5332,-531.163,0,0
333323.4,88.7482,-530.298,0,0
333583.725,87.792,-529.481,0,0
333844.05,86.9298,-528.566,0,0
334104.375,86.155,-527.549,0,0
334364.7,85.2736,-526.555,0,0
334625.025,84.5558,-525.463,0,0
334885.35,83.6915,-524.331,0,0
335145.675,82.9708,-523.193,0,0
335406.0,82.3283,-522.047,0,0
335666.325,81.7108,-520.897,0,0
335926.65,81.0781,-519.606,0,0
336186.975,80.47,-518.389,0,0
336447.3,80.0175,-517.162,0,0
336707.625,79.5874,-515.911,0,0
336967.95,79.1404,-514.653,0,0
337228.275,78.8137,-513.407,0,0
337488.6,78.4492,-512.205,0,0
337748.925,78.1448,-510.979,0,0
338009.25,77.7631,-509.808,0,0
338269.575,77.449,-508.583,0,0
338529.9,77.2498,-507.265,0,0
338790.225,76.9306,-506.145,0,0
339050.55,76.7588,-504.801,0,0
339310.875,76.5937,-503.475,0,0
339571.2,76.4758,-502.169,0,0
339831.525,76.4198,-500.796,0,0
340091.85,76.359,-499.445,0,0
340352.175,76.4808,-498.089,0,0
340612.5,76.6379,-496.662,0,0
340872.825,76.9338,-495.447,0,0
341133.15,77.2746,-494.247,0,0
341393.475,77.7208,-493.094,0,0
341653.8,78.2202,-492.037,0,0
341914.125,78.6765,-491.017,0,0
342174.45,79.2455,-490.093,0,0
342434.775,79.731,-489.301,0,0
342695.1,80.3088,-488.571,0,0
342955.425,80.7735,-487.93,0,0
343215.75,81.2096,-487.43,0,0
343476.075,81.7141,-486.936,0,0
343736.4,82.0866,-486.485,0,0
343996.725,82.4423,-486.121,0,0
344257.05,82.6753,-485.805,0,0
344517.375,82.8433,-485.479,0,0
344777.7,83.0382,-485.113,0,0
345038.025,83.1313,-484.838,0,0
345298.35,83.1251,-484.531,0,0
345558.675,83.1045,-484.151,0,0
345819.0,83.0435,-483.813,0,0
346079.325,82.9456,-483.371,0,0
346339.65,82.8802,-482.95,0,0
346599.975,82.7343,-482.483,0,0
346860,82.6486,-481.997,0,0
347121,82.494,-481.53,0,0
347381,82.419,-480.989,0,0
347641,82.2976,-480.49,0,0
347902,82.1342,-479.984,0,0
348162,81.99,-479.431,0,0
348422,81.8563,-478.807,0,0
348683,81.7103,-478.244,0,0
348943,81.5712,-477.518,0,0
349203,81.5138,-476.839,0,0
349464,81.4754,-476.096,0,0
349724,81.4821,-475.381,0,0
349984,81.5793,-474.678,0,0
350245,81.694,-473.999,0,0
350505,81.7556,-473.272,0,0
350765,82.0083,-472.649,0,0
351025,82.287,-472.076,0,0
351286,82.624,-471.537,0,0
351546,82.9217,-471.052,0,0
351806,83.2643,-470.725,0,0
352067,83.4628,-470.455,0,0
352327,83.7304,-470.287,0,0
352587,83.9146,-470.109,0,0
352848,84.0106,-470.01,0,0
353108,84.0239,-469.899,0,0
353368,83.9607,-469.83,0,0
353629,83.8279,-469.802,0,0
353889,83.6054,-469.737,0,0
354149,83.3289,-469.617,0,0
354410,82.9879,-469.436,0,0
354670,82.6216,-469.196,0,0
354930,82.2107,-468.899,0,0
355191,81.7524,-468.517,0,0
355451,81.34,-468.068,0,0
355711,80.9856,-467.601,0,0
355972,80.5999,-467.094,0,0
356232,80.2621,-466.5,0,0
356492,79.9239,-465.974,0,0
356753,79.6855,-465.416,0,0
357013,79.3907,-464.859,0,0
357273,79.0794,-464.304,0,0
357534,78.8094,-463.664,0,0
357794,78.5487,-463.071,0,0
358054,78.3091,-462.478,0,0
358315,78.0542,-461.751,0,0
358575,77.7415,-461.119,0,0
358835,77.5792,-460.394,0,0
359096,77.3938,-459.628,0,0
359356,77.2473,-458.954,0,0
359616,77.1723,-458.178,0,0
359877,77.0997,-457.454,0,0
360137,77.092,-456.761,0,0
360397,77.1108,-456.04,0,0
360658,77.1499,-455.443,0,0
360918,77.1635,-454.738,0,0
361178,77.1611,-454.199,0,0
361438,77.1414,-453.542,0,0
361699,77.1959,-453.027,0,0
361959,77.1854,-452.431,0,0
362219,77.1695,-451.819,0,0
362480,77.1854,-451.232,0,0
362740.1,77.1993,-450.644,0,0
363000.425,77.2202,-450.012,0,0
363260.75,77.2719,-449.373,0,0
363521.075,77.3777,-448.687,0,0
363781.4,77.5235,-448.07,0,0
364041.725,77.7223,-447.481,0,0
364302.05,78.0157,-446.856,0,0
364562.375,78.334,-446.4,0,0
364822.7,78.6146,-445.927,0,0
365083.025,78.9439,-445.631,0,0
365343.35,79.253,-445.365,0,0
365603.675,79.5356,-445.212,0,0
365864.0,79.7536,-445.117,0,0
366124.325,79.846,-445.074,0,0
366384.65,79.8658,-445.047,0,0
366644.975,79.8171,-445.079,0,0
366905.3,79.6277,-445.113,0,0
367165.625,79.3731,-445.074,0,0
367425.95,78.9596,-445.02,0,0
367686.275,78.577,-444.838,0,0
367946.6,78.0258,-444.704,0,0
368206.925,77.4834,-444.36,0,0
368467.25,76.957,-444.012,0,0
368727.575,76.3733,-443.384,0,0
368987.9,75.759,-442.782,0,0
369248.225,75.253,-441.98,0,0
369508.55,74.8253,-441.069,0,0
369768.875,74.6016,-440.131,0,0
370029.2,74.5017,-439.067,0,0
370289.525,74.5262,-438.044,0,0
370549.85,74.694,-437.162,0,0
370810.175,75.0036,-436.314,0,0
371070.5,75.4158,-435.648,0,0
371330.825,75.8234,-435.052,0,0
371591.15,76.2387,-434.627,0,0
371851.475,76.5824,-434.314,0,0
372111.8,76.8591,-434.091,0,0
372372.125,77.0881,-433.98,0,0
372632.45,77.2174,-433.953,0,0
372892.775,77.259,-433.898,0,0
373153.1,77.1881,-433.822,0,0
373413.425,77.0205,-433.744,0,0
373673.75,76.6789,-433.664,0,0
373934.075,76.3747,-433.446,0,0
374194.4,75.964,-433.181,0,0
374454.725,75.5499,-432.851,0,0
374715.05,75.1504,-432.461,0,0
374975.375,74.7376,-431.923,0,0
375235.7,74.3705,-431.39,0,0
375496.025,74.0088,-430.817,0,0
375756.35,73.6647,-430.144,0,0
376016.675,73.391,-429.428,0,0
376277.0,73.1434,-428.703,0,0
376537.325,72.9849,-427.925,0,0
376797.65,72.892,-427.122,0,0
377057.975,72.8414,-426.398,0,0
377318.3,72.8382,-425.628,0,0
377578.625,72.9148,-424.93,0,0
377838.95,73.0211,-424.176,0,0
378099.275,73.0858,-423.581,0,0
378359.6,73.2641,-422.964,0,0
378619.925,73.3752,-422.338,0,0
378880,73.5388,-421.722,0,0
379141,73.7213,-421.179,0,0
379401,73.9296,-420.666,0,0
379661,74.111,-420.184,0,0
379922,74.3513,-419.757,0,0
380182,74.517,-419.381,0,0
380442,74.6436,-419.003,0,0
380703,74.79,-418.639,0,0
380963,74.9448,-418.272,0,0
381223,75.0509,-417.969,0,0
381483,75.2136,-417.601,0,0
381744,75.3058,-417.367,0,0
382004,75.3984,-417.069,0,0
382264,75.4191,-416.835,0,0
382525,75.4616,-416.615,0,0
382785,75.502,-416.418,0,0
383045,75.5012,-416.122,0,0
383306,75.4135,-415.929,0,0
383566,75.2843,-415.725,0,0
383826,75.2458,-415.501,0,0
384087,75.0274,-415.236,0,0
384347,74.8842,-414.979,0,0
384607,74.6667,-414.745,0,0
384868,74.4176,-414.417,0,0
385128,74.1764,-414.106,0,0
385388,73.9011,-413.702,0,0
385649,73.7186,-413.296,0,0
385909,73.3922,-412.866,0,0
386169,73.0788,-412.433,0,0
386430,72.8632,-411.894,0,0
386690,72.642,-411.371,0,0
386950,72.4129,-410.866,0,0
387211,72.2131,-410.255,0,0
387471,71.9863,-409.743,0,0
387731,71.8006,-409.155,0,0
387992,71.6135,-408.507,0,0
388252,71.4358,-407.916,0,0
388512,71.2356,-407.316,0,0
388773,71.0503,-406.621,0,0
389033,70.8847,-405.927,0,0
389293,70.7709,-405.165,0,0
389554,70.664,-404.395,0,0
389814,70.6531,-403.614,0,0
390074,70.6288,-402.826,0,0
390335,70.7122,-402.011,0,0
390595,70.7984,-401.191,0,0
390855,70.9242,-400.415,0,0
391116,71.0748,-399.608,0,0
391376,71.3115,-398.869,0,0
391636,71.5395,-398.106,0,0
391896,71.7903,-397.337,0,0
392157,72.1482,-396.606,0,0
392417,72.5426,-395.884,0,0
392677,72.9996,-395.272,0,0
392938,73.4065,-394.631,0,0
393198,73.9066,-394.071,0,0
393458,74.3822,-393.569,0,0
393719,74.8928,-393.111,0,0
393979,75.3829,-392.673,0,0
394239,75.8905,-392.331,0,0
394500,76.3929,-392.016,0,0
394760.05,76.8874,-391.743,0,0
395020.375,77.3599,-391.546,0,0
395280.7,77.8372,-391.306,0,0
395541.025,78.3049,-391.165,0,0
395801.35,78.7482,-391.101,0,0
396061.675,79.1645,-391.052,0,0
396322.0,79.5534,-390.979,0,0
396582.325,79.9162,-391.042,0,0
396842.65,80.2125,-391.103,0,0
397102.975,80.4728,-391.148,0,0
397363.3,80.6537,-391.231,0,0
397623.625,80.8703,-391.391,0,0
397883.95,81.0109,-391.527,0,0
398144.275,81.0457,-391.647,0,0
398404.6,81.089,-391.786,0,0
398664.925,81.0025,-391.926,0,0
398925.25,80.9476,-392.011,0,0
399185.575,80.832,-392.063,0,0
399445.9,80.7041,-392.161,0,0
399706.225,80.5055,-392.194,0,0
399966.55,80.2727,-392.192,0,0
400006.6,80.2536,-392.219,0,0