File: Accelerated corrosion test data/2025-10-04_18-00-03/sample_6.csv
Frequency (Hz),Impedance (ohms),Phase (Radians),Temperature (C),Humidity (%)
10000.0,4253.21,-6526.35,0,0
10260.325,4115.11,-6451.11,0,0
10520.65,3983.53,-6375.74,0,0
10780.975,3857.44,-6301.27,0,0
11041.3,3738.14,-6227.09,0,0
11301.625,3623.21,-6153.93,0,0
11561.95,3513.49,-6081.35,0,0
11822.275,3408.96,-6009.62,0,0
12082.6,3307.55,-5937.62,0,0
12342.925,3211.85,-5866.63,0,0
12603.25,3121.48,-5796.23,0,0
12863.575,3033.74,-5727.7,0,0
13123.9,2952.14,-5662.13,0,0
13384.225,2869.72,-5597.67,0,0
13644.55,2789.93,-5532.35,0,0
13904.875,2714.7,-5467.8,0,0
14165.2,2642.68,-5404.16,0,0
14425.525,2573.25,-5341.89,0,0
14685.8,2506.27,-5279.51,0,0
14946.175,2442.97,-5219.3,0,0
15206.5,2381.61,-5159.1,0,0
15466.825,2322.56,-5101.23,0,0
15727.15,2265.17,-5044.04,0,0
15987.5,2210.38,-4987.6,0,0
16247.8,2157.14,-4932.4,0,0
16508.125,2106.06,-4877.59,0,0
16768.45,2057.14,-4823.33,0,0
17028.775,2009.96,-4771.29,0,0
17289.1,1963.89,-4720.49,0,0
17549.425,1919.55,-4669.4,0,0
17809.75,1876.23,-4618.96,0,0
18070.075,1835.33,-4570.46,0,0
18330.4,1794.83,-4521.59,0,0
18590.725,1755.74,-4473.75,0,0
18851.05,1719.89,-4426.45,0,0
19111.375,1684.45,-4382.43,0,0
19371.7,1649.64,-4338.56,0,0
19632.025,1614.51,-4294.61,0,0
19892.35,1582.41,-4251.57,0,0
20152.675,1549.77,-4209.14,0,0
20413.0,1518.71,-4167.78,0,0
20673.3,1487.44,-4126.12,0,0
20933.65,1459.46,-4085.29,0,0
21193.975,1430.74,-4045.49,0,0
21454.3,1403.42,-4006.28,0,0
21714.625,1376.97,-3968.15,0,0
21974.9,1350.52,-3929.55,0,0
22235.275,1324.71,-3892.49,0,0
22495.6,1300.43,-3853.69,0,0
22755.925,1278.76,-3815.76,0,0
23016.25,1259.82,-3779.78,0,0
23276.6,1240.1,-3748.51,0,0
23536.9,1218.81,-3716.83,0,0
23797.225,1196.4,-3685.71,0,0
24057.55,1174.57,-3653.21,0,0
24317.875,1153.48,-3621.02,0,0
24578.2,1133.12,-3588.73,0,0
24838.525,1113.84,-3557,0,0
25098.85,1095.08,-3525.6,0,0
25359.175,1077.07,-3495.56,0,0
25619.5,1059.3,-3465.59,0,0
25879.8,1041.73,-3435.87,0,0
26140.1,1025.1,-3406.5,0,0
26400.5,1008.71,-3377.43,0,0
26660.8,992.985,-3348.75,0,0
26921.1,977.338,-3320.65,0,0
27181.4,963.169,-3292.52,0,0
27441.8,948.629,-3265.72,0,0
27702.1,934.81,-3239.04,0,0
27962.4,921.194,-3213.92,0,0
28222.7,907.458,-3188.41,0,0
28483.1,893.401,-3163.1,0,0
28743.4,879.968,-3137.87,0,0
29003.7,866.809,-3112.54,0,0
29264,854.043,-3086.93,0,0
29524.4,843.224,-3062.61,0,0
29784.7,831.365,-3039.12,0,0
30045,820.158,-3014.7,0,0
30305.3,810.555,-2991.48,0,0
30565.7,799.76,-2970.3,0,0
30826,788.274,-2948.39,0,0
31086.3,776.971,-2925.79,0,0
31346.6,766.734,-2903.5,0,0
31607,756.467,-2881.15,0,0
31867.3,747.396,-2858.57,0,0
32127.6,738.847,-2837.49,0,0
32387.9,730.291,-2816.13,0,0
32648.3,722.151,-2795.44,0,0
32908.6,714.834,-2775.68,0,0
33168.9,707.448,-2756.13,0,0
33429.2,700.338,-2737.29,0,0
33689.6,693.327,-2719.57,0,0
33949.9,684.993,-2702.21,0,0
34210.2,676.822,-2684.57,0,0
34470.5,668.676,-2666.84,0,0
34730.9,660.467,-2649.08,0,0
34991.2,653.416,-2631.06,0,0
35251.5,646.687,-2613.8,0,0
35511.8,640.102,-2597.63,0,0
35772.2,632.86,-2582.15,0,0
36032.5,624.732,-2566.36,0,0
36292.8,616.855,-2550.36,0,0
36553.1,609.213,-2534.07,0,0
36813.5,601.317,-2518.23,0,0
37073.8,594.229,-2502.06,0,0
37334.1,586.988,-2486.21,0,0
37594.4,579.699,-2470.29,0,0
37854.8,572.509,-2454.3,0,0
38115.1,565.801,-2438.46,0,0
38375.4,558.992,-2422.75,0,0
38635.7,552.711,-2406.97,0,0
38896.1,546.552,-2391.29,0,0
39156.4,540.725,-2375.91,0,0
39416.7,535.261,-2360.71,0,0
39677,529.969,-2345.71,0,0
39937.4,524.637,-2331.17,0,0
40197.7,519.073,-2316.77,0,0
40458,514.365,-2302.26,0,0
40718.3,509.446,-2288.47,0,0
40978.7,503.949,-2275.02,0,0
41239,498.688,-2260.45,0,0
41499.3,494.428,-2246.3,0,0
41759.6,490.074,-2232.51,0,0
42020,486.254,-2219.61,0,0
42280.275,481.721,-2207.63,0,0
42540.6,476.285,-2194.71,0,0
42800.925,471.058,-2181.36,0,0
43061.25,466.708,-2167.7,0,0
43321.575,462.51,-2154.1,0,0
43581.9,459.023,-2140.65,0,0
43842.225,455.952,-2127.99,0,0
44102.55,452.042,-2116.18,0,0
44362.875,448.296,-2102.99,0,0
44623.2,445.224,-2090.32,0,0
44883.525,442.455,-2077.73,0,0
45143.85,440.404,-2065.48,0,0
45404.175,438.084,-2054.16,0,0
45664.5,435.553,-2042.6,0,0
45924.825,433.54,-2031.26,0,0
46185.15,432.116,-2020.63,0,0
46445.475,429.993,-2010.75,0,0
46705.8,427.44,-2001.06,0,0
46966.125,425.105,-1990.79,0,0
47226.45,422.94,-1981.07,0,0
47486.775,420.835,-1971.23,0,0
47747.1,419.11,-1961.85,0,0
48007.425,416.938,-1953.02,0,0
48267.75,415.12,-1944.28,0,0
48528.075,413.252,-1935.84,0,0
48788.4,410.94,-1927.79,0,0
49048.725,409.06,-1920.23,0,0
49309.05,406.921,-1913.62,0,0
49569.375,403.363,-1907.28,0,0
49829.7,399.042,-1900.74,0,0
50090.025,394.261,-1893.68,0,0
50350.35,389.254,-1886.18,0,0
50610.675,383.916,-1877.87,0,0
50871.0,379.064,-1869.16,0,0
51131.325,374.468,-1860.16,0,0
51391.65,370.203,-1851.41,0,0
51651.975,365.719,-1842.15,0,0
51912.3,361.81,-1833.06,0,0
52172.625,357.98,-1823.7,0,0
52432.95,354.547,-1814.49,0,0
52693.275,351.669,-1805.55,0,0
52953.6,348.829,-1797.12,0,0
53213.925,345.568,-1789.19,0,0
53474.25,341.957,-1780.87,0,0
53734.575,338.342,-1772.61,0,0
53994.9,334.577,-1764.05,0,0
54255.225,331.165,-1755.12,0,0
54515.55,328.069,-1746.33,0,0
54775.875,325.288,-1737.91,0,0
55036.2,322.121,-1729.69,0,0
55296.525,318.64,-1721.47,0,0
55556.85,315.192,-1712.88,0,0
55817.175,312.015,-1704.04,0,0
56077.5,308.668,-1694.99,0,0
56337.825,305.824,-1685.29,0,0
56598.15,303.902,-1675.65,0,0
56858.475,302.511,-1666.43,0,0
57118.8,301.572,-1657.8,0,0
57379.125,300.718,-1649.5,0,0
57639.45,300.009,-1641.75,0,0
57899.775,299.318,-1634.62,0,0
58160.1,298.206,-1627.96,0,0
58420.4,296.658,-1621.47,0,0
58680.7,294.941,-1614.81,0,0
58941.1,293.275,-1608.29,0,0
59201.4,291.38,-1601.83,0,0
59461.7,289.418,-1595.61,0,0
59722,287.065,-1589.39,0,0
59982.4,284.523,-1583.04,0,0
60242.7,281.738,-1576.29,0,0
60503,279.335,-1569.47,0,0
60763.3,276.849,-1562.73,0,0
61023.7,274.34,-1555.9,0,0
61284,271.73,-1549.05,0,0
61544.3,269.082,-1542.08,0,0
61804.6,266.151,-1534.8,0,0
62065,263.775,-1526.94,0,0
62325.3,261.585,-1518.77,0,0
62585.6,260.324,-1510.58,0,0
62845.9,259.592,-1502.71,0,0
63106.3,259.516,-1495.13,0,0
63366.6,259.636,-1488.75,0,0
63626.9,259.671,-1482.87,0,0
63887.2,259.583,-1477.61,0,0
64147.6,258.619,-1473.47,0,0
64407.9,256.456,-1469.05,0,0
64668.2,253.494,-1463.66,0,0
64928.5,251.037,-1457.38,0,0
65188.9,248.786,-1451.06,0,0
65449.2,247.333,-1444.61,0,0
65709.5,245.963,-1438.87,0,0
65969.8,244.206,-1433.44,0,0
66230.2,242.15,-1427.8,0,0
66490.5,240.239,-1422.09,0,0
66750.8,238.075,-1416.36,0,0
67011.1,235.741,-1410.77,0,0
67271.5,233.182,-1404.64,0,0
67531.8,230.794,-1398.01,0,0
67792.1,228.953,-1391.42,0,0
68052.4,227.123,-1384.85,0,0
68312.8,225.308,-1378.44,0,0
68573.1,223.718,-1371.98,0,0
68833.4,222.31,-1365.36,0,0
69093.7,220.819,-1359,0,0
69354.1,219.604,-1352.38,0,0
69614.4,218.418,-1345.82,0,0
69874.7,217.255,-1339.27,0,0
70135,216.393,-1332.81,0,0
70395.4,215.647,-1326.26,0,0
70655.7,214.973,-1320.04,0,0
70916,214.353,-1313.82,0,0
71176.3,213.977,-1307.54,0,0
71436.7,213.797,-1301.51,0,0
71697,213.641,-1295.68,0,0
71957.3,213.311,-1289.86,0,0
72217.6,213.208,-1284.17,0,0
72478,213.286,-1278.44,0,0
72738.3,213.367,-1273.02,0,0
72998.6,213.573,-1267.72,0,0
73258.9,213.699,-1262.75,0,0
73519.3,213.831,-1257.94,0,0
73779.6,213.685,-1253.22,0,0
74039.9,213.517,-1248.51,0,0
74300.225,213.135,-1243.88,0,0
74560.55,212.871,-1239.12,0,0
74820.875,212.59,-1234.45,0,0
75081.2,212.442,-1229.69,0,0
75341.525,212.299,-1225.11,0,0
75601.85,212.118,-1220.63,0,0
75862.175,211.839,-1216.22,0,0
76122.5,211.586,-1211.86,0,0
76382.825,211.25,-1207.54,0,0
76643.15,210.963,-1203.15,0,0
76903.475,210.597,-1198.85,0,0
77163.8,210.36,-1194.47,0,0
77424.125,210.155,-1190.18,0,0
77684.45,209.99,-1185.99,0,0
77944.775,209.819,-1181.91,0,0
78205.1,209.694,-1177.9,0,0
78465.425,209.441,-1173.99,0,0
78725.75,209.141,-1170.13,0,0
78986.075,208.884,-1166.35,0,0
79246.4,208.544,-1162.57,0,0
79506.725,208.09,-1158.9,0,0
79767.05,207.68,-1155.23,0,0
80027.375,207.224,-1151.64,0,0
80287.7,206.637,-1148.01,0,0
80548.025,206.01,-1144.44,0,0
80808.35,205.365,-1140.82,0,0
81068.675,204.637,-1137.24,0,0
81329.0,203.867,-1133.54,0,0
81589.325,203.142,-1129.96,0,0
81849.65,202.317,-1126.26,0,0
82109.975,201.489,-1122.6,0,0
82370.3,200.678,-1118.89,0,0
82630.625,199.841,-1115.2,0,0
82890.95,198.948,-1111.46,0,0
83151.275,198.041,-1107.72,0,0
83411.6,197.141,-1103.95,0,0
83671.925,196.239,-1100.06,0,0
83932.25,195.369,-1096.24,0,0
84192.575,194.478,-1092.22,0,0
84452.9,193.683,-1088.14,0,0
84713.225,192.882,-1083.99,0,0
84973.55,192.303,-1079.9,0,0
85233.875,191.848,-1075.79,0,0
85494.2,191.52,-1071.79,0,0
85754.525,191.196,-1067.72,0,0
86014.85,190.864,-1063.85,0,0
86275.175,190.669,-1060.03,0,0
86535.5,190.403,-1056.18,0,0
86795.825,190.295,-1052.45,0,0
87056.15,190.044,-1048.94,0,0
87316.475,189.842,-1045.44,0,0
87576.8,189.473,-1041.89,0,0
87837.125,189.166,-1038.42,0,0
88097.45,188.822,-1034.76,0,0
88357.775,188.531,-1031.16,0,0
88618.1,188.248,-1027.55,0,0
88878.425,188.074,-1023.91,0,0
89138.75,188.027,-1020.26,0,0
89399.075,187.961,-1016.77,0,0
89659.4,188.016,-1013.36,0,0
89919.725,188.024,-1010.09,0,0
90180,188.101,-1006.76,0,0
90440.4,188.243,-1003.64,0,0
90700.7,188.268,-1000.71,0,0
90961,188.155,-997.809,0,0
91221.3,187.771,-995.125,0,0
91481.7,187.253,-992.189,0,0
91742,186.665,-989.187,0,0
92002.3,186.076,-985.95,0,0
92262.6,185.602,-982.654,0,0
92523,185.272,-979.071,0,0
92783.3,185.254,-975.757,0,0
93043.6,185.045,-972.825,0,0
93303.9,184.837,-969.712,0,0
93564.3,184.247,-966.399,0,0
93824.6,183.948,-962.849,0,0
94084.9,183.806,-959.369,0,0
94345.2,183.852,-955.692,0,0
94605.6,184.49,-952.075,0,0
94865.9,185.216,-949.22,0,0
95126.2,185.647,-946.523,0,0
95386.5,185.906,-943.69,0,0
95646.9,186.231,-941.026,0,0
95907.2,186.594,-938.45,0,0
96167.5,186.847,-936.096,0,0
96427.8,186.929,-933.811,0,0
96688.2,186.828,-931.643,0,0
96948.5,186.599,-929.455,0,0
97208.8,185.983,-927.198,0,0
97469.1,185.357,-924.578,0,0
97729.5,184.683,-921.649,0,0
97989.8,184.34,-918.543,0,0
98250.1,183.947,-915.205,0,0
98510.4,184.118,-911.549,0,0
98770.8,184.889,-908.083,0,0
99031.1,186.145,-905.088,0,0
99291.4,187.728,-902.675,0,0
99551.7,189.137,-901.1,0,0
99812.1,189.937,-900.089,0,0
100072,190.28,-898.886,0,0
100333,190.509,-897.815,0,0
100593,190.503,-897.037,0,0
100853,189.806,-896.353,0,0
101114,188.595,-895.355,0,0
101374,187.176,-893.723,0,0
101634,186.01,-891.694,0,0
101895,185.05,-889.566,0,0
102155,184.329,-887.395,0,0
102415,183.909,-885.328,0,0
102676,183.457,-883.732,0,0
102936,182.814,-882.249,0,0
103196,182.06,-881.091,0,0
103457,180.777,-879.962,0,0
103717,179.273,-878.68,0,0
103977,177.461,-877.462,0,0
104238,175.197,-876.041,0,0
104498,172.66,-874.288,0,0
104758,170.033,-872.11,0,0
105019,167.129,-869.543,0,0
105279,164.103,-866.337,0,0
105539,161.447,-862.686,0,0
105800,158.862,-858.823,0,0
106060,156.471,-854.329,0,0
106320.175,154.827,-849.48,0,0
106580.5,153.588,-844.672,0,0
106840.825,152.713,-839.733,0,0
107101.15,152.457,-835.009,0,0
107361.475,152.229,-830.623,0,0
107621.8,152.109,-826.122,0,0
107882.125,152.628,-821.593,0,0
108142.45,153.365,-817.592,0,0
108402.775,154.148,-813.944,0,0
108663.1,154.821,-810.647,0,0
108923.425,155.309,-807.347,0,0
109183.75,155.802,-804.061,0,0
109444.075,156.265,-800.891,0,0
109704.4,156.749,-797.608,0,0
109964.725,157.338,-794.54,0,0
110225.05,157.955,-791.594,0,0
110485.375,158.382,-788.541,0,0
110745.7,158.78,-785.441,0,0
111006.025,159.409,-782.283,0,0
111266.35,160.346,-779.151,0,0
111526.675,161.026,-776.264,0,0
111787.0,161.877,-773.554,0,0
112047.325,162.667,-770.655,0,0
112307.65,163.661,-768.103,0,0
112567.975,164.551,-765.537,0,0
112828.3,165.394,-763.012,0,0
113088.625,166.418,-760.442,0,0
113348.95,167.356,-758.081,0,0
113609.275,168.486,-755.617,0,0
113869.6,169.844,-753.473,0,0
114129.925,170.849,-751.725,0,0
114390.25,171.57,-749.932,0,0
114650.575,172.342,-747.965,0,0
114910.9,173.222,-746.224,0,0
115171.225,173.918,-744.507,0,0
115431.55,174.405,-742.733,0,0
115691.875,175.139,-740.671,0,0
115952.2,176.111,-738.733,0,0
116212.525,177.429,-737.161,0,0
116472.85,178.446,-736.113,0,0
116733.175,179.131,-735.278,0,0
116993.5,179.429,-734.353,0,0
117253.825,179.647,-733.427,0,0
117514.15,179.589,-732.633,0,0
117774.475,179.087,-731.681,0,0
118034.8,178.275,-730.359,0,0
118295.125,177.372,-728.482,0,0
118555.45,176.753,-726.142,0,0
118815.775,176.561,-723.761,0,0
119076.1,176.604,-721.214,0,0
119336.425,176.989,-718.787,0,0
119596.75,177.311,-716.543,0,0
119857.075,177.815,-713.822,0,0
120117.4,179.068,-711.133,0,0
120377.725,180.896,-708.932,0,0
120638.05,183.012,-707.718,0,0
120898.375,184.876,-707.167,0,0
121158.7,186.258,-707.206,0,0
121419.025,187.16,-707.747,0,0
121679.35,187.144,-708.543,0,0
121939.675,186.215,-708.96,0,0
122200.0,184.816,-708.624,0,0
122460,183.537,-707.63,0,0
122721,182.566,-706.411,0,0
122981,181.678,-705.166,0,0
123241,180.85,-703.827,0,0
123502,180.045,-702.439,0,0
123762,179.276,-700.89,0,0
124022,178.699,-699.338,0,0
124283,178.161,-698.078,0,0
124543,177.317,-696.835,0,0
124803,176.39,-695.297,0,0
125064,175.485,-693.658,0,0
125324,174.638,-691.937,0,0
125584,173.896,-690.143,0,0
125845,173.128,-688.374,0,0
126105,172.409,-686.65,0,0
126365,171.621,-684.962,0,0
126626,170.589,-683.007,0,0
126886,169.73,-680.887,0,0
127146,168.9,-678.647,0,0
127406,168.233,-676.325,0,0
127667,167.612,-673.784,0,0
127927,167.343,-671.183,0,0
128187,167.183,-668.616,0,0
128448,167.341,-666.14,0,0
128708,167.779,-663.835,0,0
128968,168.243,-661.799,0,0
129229,168.717,-660.03,0,0
129489,169.153,-658.454,0,0
129749,169.452,-656.976,0,0
130010,169.647,-655.664,0,0
130270,169.727,-654.423,0,0
130530,169.706,-653.178,0,0
130791,169.495,-651.995,0,0
131051,169.2,-650.707,0,0
131311,168.968,-649.369,0,0
131572,168.67,-648.133,0,0
131832,168.268,-646.93,0,0
132092,167.755,-645.636,0,0
132353,167.259,-644.355,0,0
132613,166.711,-643.119,0,0
132873,166.117,-641.891,0,0
133134,165.348,-640.667,0,0
133394,164.476,-639.401,0,0
133654,163.469,-637.992,0,0
133915,162.38,-636.526,0,0
134175,161.21,-634.856,0,0
134435,160.067,-633.158,0,0
134696,158.989,-631.158,0,0
134956,157.989,-629.255,0,0
135216,156.868,-627.314,0,0
135477,155.776,-625.263,0,0
135737,154.671,-623.082,0,0
135997,153.663,-620.75,0,0
136258,152.643,-618.282,0,0
136518,151.884,-615.88,0,0
136778,151.083,-613.396,0,0
137039,150.296,-610.938,0,0
137299,149.563,-608.378,0,0
137559,148.916,-605.798,0,0
137819,148.345,-603.201,0,0
138080,147.719,-600.552,0,0
138340.125,147.216,-597.839,0,0
138600.45,146.83,-595.161,0,0
138860.775,146.5,-592.448,0,0
139121.1,146.186,-589.735,0,0
139381.425,145.921,-587.038,0,0
139641.75,145.743,-584.322,0,0
139902.075,145.639,-581.505,0,0
140162.4,145.634,-578.849,0,0
140422.725,145.607,-576.16,0,0
140683.05,145.562,-573.458,0,0
140943.375,145.672,-570.696,0,0
141203.7,145.938,-567.969,0,0
141464.025,146.286,-565.356,0,0
141724.35,146.617,-562.888,0,0
141984.675,146.912,-560.489,0,0
142245.0,147.117,-558.096,0,0
142505.325,147.35,-555.706,0,0
142765.65,147.493,-553.266,0,0
143025.975,147.661,-550.69,0,0
143286.3,147.963,-548.142,0,0
143546.625,148.383,-545.516,0,0
143806.95,148.89,-542.891,0,0
144067.275,149.526,-540.296,0,0
144327.6,150.319,-537.842,0,0
144587.925,151.217,-535.656,0,0
144848.25,151.99,-533.538,0,0
145108.575,152.863,-531.544,0,0
145368.9,153.593,-529.751,0,0
145629.225,154.222,-528.075,0,0
145889.55,154.684,-526.476,0,0
146149.875,154.974,-524.867,0,0
146410.2,155.097,-523.163,0,0
146670.525,155.176,-521.407,0,0
146930.85,155.214,-519.518,0,0
147191.175,155.28,-517.677,0,0
147451.5,155.235,-515.828,0,0
147711.825,155.048,-513.846,0,0
147972.15,154.869,-511.737,0,0
148232.475,154.687,-509.491,0,0
148492.8,154.542,-507.154,0,0
148753.125,154.476,-504.766,0,0
149013.45,154.364,-502.299,0,0
149273.775,154.339,-499.748,0,0
149534.1,154.34,-497.102,0,0
149794.425,154.406,-494.382,0,0
150054.75,154.502,-491.654,0,0
150315.075,154.612,-488.795,0,0
150575.4,154.847,-485.846,0,0
150835.725,155.141,-482.705,0,0
151096.05,155.66,-479.497,0,0
151356.375,156.342,-476.221,0,0
151616.7,157.257,-472.8,0,0
151877.025,158.475,-469.429,0,0
152137.35,160.054,-466.09,0,0
152397.675,161.972,-462.931,0,0
152658.0,164.276,-460.158,0,0
152918.325,166.649,-457.905,0,0
153178.65,168.823,-456.167,0,0
153438.975,170.777,-454.631,0,0
153699.3,172.568,-453.35,0,0
153959.625,174.009,-452.207,0,0
154219.95,175.049,-451.157,0,0
154480,175.716,-449.769,0,0
154741,176.259,-448.039,0,0
155001,176.982,-446.055,0,0
155261,177.85,-443.864,0,0
155522,178.985,-441.567,0,0
155782,180.267,-439.314,0,0
156042,181.857,-437.111,0,0
156303,183.74,-434.971,0,0
156563,185.853,-433.179,0,0
156823,188.104,-432.002,0,0
157084,190.048,-431.127,0,0
157344,191.731,-430.549,0,0
157604,193.046,-430.119,0,0
157864,194.085,-429.746,0,0
158125,194.797,-429.134,0,0
158385,195.377,-428.489,0,0
158645,195.891,-427.734,0,0
158906,196.209,-426.942,0,0
159166,196.346,-425.999,0,0
159426,196.49,-424.872,0,0
159687,196.703,-423.396,0,0
159947,197.08,-421.904,0,0
160207,197.425,-420.633,0,0
160468,197.824,-419.314,0,0
160728,198.079,-417.863,0,0
160988,198.375,-416.381,0,0
161249,198.769,-414.893,0,0
161509,199.071,-413.499,0,0
161769,199.463,-412.012,0,0
162030,199.734,-410.628,0,0
162290,199.819,-409.283,0,0
162550,199.809,-407.665,0,0
162811,199.78,-405.941,0,0
163071,199.839,-404.071,0,0
163331,200.099,-402.103,0,0
163592,200.392,-400.327,0,0
163852,200.531,-398.662,0,0
164112,200.525,-396.932,0,0
164373,200.409,-394.991,0,0
164633,200.339,-392.763,0,0
164893,200.33,-390.51,0,0
165154,200.272,-388.082,0,0
165414,200.447,-385.424,0,0
165674,200.842,-382.685,0,0
165935,201.423,-380.047,0,0
166195,202.11,-377.409,0,0
166455,202.944,-374.887,0,0
166716,203.807,-372.521,0,0
166976,204.578,-370.258,0,0
167236,205.244,-367.971,0,0
167497,205.885,-365.567,0,0
167757,206.611,-363.102,0,0
168017,207.372,-360.55,0,0
168277,208.232,-358.085,0,0
168538,209.142,-355.572,0,0
168798,210.061,-353.071,0,0
169058,211.024,-350.503,0,0
169319,212.147,-348.078,0,0
169579,213.193,-345.714,0,0
169839,214.195,-343.337,0,0
170100,215.191,-341.002,0,0
170360.075,216.122,-338.624,0,0
170620.4,217.149,-336.257,0,0
170880.725,218.074,-333.781,0,0
171141.05,219.019,-331.342,0,0
171401.375,219.94,-328.798,0,0
171661.7,220.956,-326.175,0,0
171922.025,221.998,-323.573,0,0
172182.35,223.081,-320.956,0,0
172442.675,224.126,-318.367,0,0
172703.0,225.302,-315.723,0,0
172963.325,226.353,-313.127,0,0
173223.65,227.459,-310.466,0,0
173483.975,228.522,-307.805,0,0
173744.3,229.531,-305.115,0,0
174004.625,230.504,-302.282,0,0
174264.95,231.471,-299.388,0,0
174525.275,232.43,-296.368,0,0
174785.6,233.396,-293.162,0,0
175045.925,234.474,-289.844,0,0
175306.25,235.684,-286.381,0,0
175566.575,237.006,-282.861,0,0
175826.9,238.356,-279.303,0,0
176087.225,239.815,-275.637,0,0
176347.55,241.409,-271.843,0,0
176607.875,243.074,-268.002,0,0
176868.2,244.902,-264.045,0,0
177128.525,246.927,-260.064,0,0
177388.85,249.086,-255.987,0,0
177649.175,251.383,-251.943,0,0
177909.5,253.798,-247.845,0,0
178169.825,256.357,-243.669,0,0
178430.15,259.113,-239.416,0,0
178690.475,262.092,-235.164,0,0
178950.8,265.246,-230.779,0,0
179211.125,268.734,-226.498,0,0
179471.45,272.538,-222.271,0,0
179731.775,276.547,-218.171,0,0
179992.1,280.814,-214.314,0,0
180252.425,285.167,-210.565,0,0
180512.75,289.623,-207.052,0,0
180773.075,294.253,-203.654,0,0
181033.4,298.956,-200.471,0,0
181293.725,303.645,-197.449,0,0
181554.05,308.431,-194.468,0,0
181814.375,313.409,-191.642,0,0
182074.7,318.48,-189.083,0,0
182335.025,323.553,-186.827,0,0
182595.35,328.535,-184.775,0,0
182855.675,333.351,-182.867,0,0
183116.0,338.078,-181.011,0,0
183376.325,342.684,-179.061,0,0
183636.65,347.355,-177.199,0,0
183896.975,352.095,-175.264,0,0
184157.3,356.954,-173.474,0,0
184417.625,361.89,-171.904,0,0
184677.95,366.823,-170.632,0,0
184938.275,371.51,-169.457,0,0
185198.6,376.043,-168.409,0,0
185458.925,380.548,-167.417,0,0
185719.25,384.736,-166.706,0,0
185979.575,388.621,-165.959,0,0
186239.9,392.151,-165.077,0,0
186500,395.661,-164.026,0,0
186761,398.734,-162.845,0,0
187021,401.482,-161.384,0,0
187281,403.937,-159.536,0,0
187542,406.347,-157.015,0,0
187802,408.781,-153.999,0,0
188062,411.418,-150.427,0,0
188322,414.353,-146.31,0,0
188583,417.676,-141.8,0,0
188843,421.252,-136.975,0,0
189103,425.228,-131.644,0,0
189364,429.791,-125.939,0,0
189624,434.845,-119.831,0,0
189884,440.55,-113.481,0,0
190145,447.08,-106.79,0,0
190405,454.494,-100.066,0,0
190665,462.861,-93.2869,0,0
190926,472.055,-86.8203,0,0
191186,482.194,-80.6006,0,0
191446,493.055,-74.8819,0,0
191707,504.629,-69.7743,0,0
191967,516.785,-65.3901,0,0
192227,529.305,-61.6287,0,0
192488,541.85,-58.4782,0,0
192748,554.596,-55.6856,0,0
193008,567.577,-53.1269,0,0
193269,580.946,-50.6587,0,0
193529,594.968,-48.4572,0,0
193789,609.723,-46.6949,0,0
194050,625.178,-45.5907,0,0
194310,641.244,-45.3234,0,0
194570,657.739,-45.9488,0,0
194831,674.734,-47.4421,0,0
195091,691.93,-50.2441,0,0
195351,709.107,-54.1165,0,0
195612,725.964,-58.8851,0,0
195872,742.636,-64.3202,0,0
196132,759.411,-70.5027,0,0
196393,776.135,-77.456,0,0
196653,792.762,-85.3612,0,0
196913,809.145,-94.1769,0,0
197174,825.08,-103.852,0,0
197434,840.582,-114.208,0,0
197694,855.66,-125.129,0,0
197955,870.261,-136.458,0,0
198215,884.66,-148.213,0,0
198475,899.182,-160.432,0,0
198735,913.506,-173.482,0,0
198996,927.725,-187.248,0,0
199256,941.626,-202.049,0,0
199516,955.254,-217.669,0,0
199777,967.858,-234.25,0,0
200037,980.222,-251.443,0,0
200297,991.839,-269.173,0,0
200558,1003.16,-287.475,0,0
200818,1013.9,-306.82,0,0
201078,1024.22,-326.724,0,0
201339,1034.1,-347.697,0,0
201599,1043.03,-369.906,0,0
201859,1050.88,-393.422,0,0
202120,1057.37,-418.157,0,0
202380.025,1062.08,-443.732,0,0
202640.35,1064.67,-470.175,0,0
202900.675,1065.14,-496.68,0,0
203161.0,1063.43,-522.652,0,0
203421.325,1059.81,-548.075,0,0
203681.65,1054.86,-572.698,0,0
203941.975,1048.5,-596.67,0,0
204202.3,1041.11,-619.137,0,0
204462.625,1032.26,-641.256,0,0
204722.95,1022.99,-662.591,0,0
204983.275,1012.89,-682.908,0,0
205243.6,1001.73,-702.188,0,0
205503.925,989.534,-721.302,0,0
205764.25,977.006,-739.074,0,0
206024.575,963.4,-755.879,0,0
206284.9,949.547,-771.152,0,0
206545.225,935.234,-785.461,0,0
206805.55,920.777,-798.987,0,0
207065.875,906.217,-811.067,0,0
207326.2,891.569,-822.248,0,0
207586.525,876.862,-832.628,0,0
207846.85,862.298,-841.934,0,0
208107.175,847.892,-850.628,0,0
208367.5,833.774,-858.401,0,0
208627.825,819.883,-865.494,0,0
208888.15,806.642,-872.055,0,0
209148.475,793.471,-877.963,0,0
209408.8,780.581,-883.835,0,0
209669.125,768.235,-888.983,0,0
209929.45,756.688,-894.112,0,0
210189.775,744.619,-898.849,0,0
210450.1,733.256,-903.938,0,0
210710.425,721.9,-908.937,0,0
210970.75,710.633,-914.256,0,0
211231.075,699.195,-919.634,0,0
211491.4,687.296,-925.035,0,0
211751.725,674.771,-930.371,0,0
212012.05,661.587,-935.28,0,0
212272.375,647.866,-939.54,0,0
212532.7,633.772,-942.848,0,0
212793.025,619.571,-945.328,0,0
213053.35,605.561,-946.809,0,0
213313.675,591.869,-947.745,0,0
213574.0,578.268,-947.836,0,0
213834.325,564.865,-947.297,0,0
214094.65,552.054,-946.079,0,0
214354.975,539.564,-944.791,0,0
214615.3,527.546,-942.829,0,0
214875.625,515.725,-940.561,0,0
215135.95,504.3,-937.956,0,0
215396.275,493.492,-935,0,0
215656.6,483.276,-931.493,0,0
215916.925,473.073,-928.067,0,0
216177.25,463.705,-924.425,0,0
216437.575,454.494,-920.869,0,0
216697.9,445.647,-917.064,0,0
216958.225,437.19,-913.158,0,0
217218.55,428.96,-909.168,0,0
217478.875,420.982,-905.292,0,0
217739.2,413.343,-901.317,0,0
217999.525,405.802,-897.245,0,0
218259.85,398.57,-892.951,0,0
218520,391.585,-888.797,0,0
218780,384.795,-884.504,0,0
219041,378.301,-880.265,0,0
219301,371.851,-875.977,0,0
219561,366.043,-871.726,0,0
219822,360.236,-867.335,0,0
220082,354.437,-862.994,0,0
220342,349.03,-858.538,0,0
220603,343.84,-854.232,0,0
220863,338.63,-849.738,0,0
221123,333.688,-845.462,0,0
221384,328.889,-840.89,0,0
221644,324.131,-836.591,0,0
221904,319.639,-832.007,0,0
222165,315.265,-827.519,0,0
222425,311.025,-822.936,0,0
222685,307.034,-818.255,0,0
222946,303.233,-813.71,0,0
223206,299.505,-809.143,0,0
223466,296.004,-804.276,0,0
223727,292.83,-799.443,0,0
223987,289.768,-794.709,0,0
224247,287.03,-790.011,0,0
224508,284.378,-785.191,0,0
224768,282.067,-780.522,0,0
225028,279.973,-775.865,0,0
225289,278.223,-771.136,0,0
225549,276.56,-766.622,0,0
225809,275.395,-762.104,0,0
226070,274.502,-757.884,0,0
226330,273.723,-753.783,0,0
226590,273.248,-750.044,0,0
226851,272.877,-746.502,0,0
227111,272.908,-743.264,0,0
227371,272.877,-740.402,0,0
227632,272.848,-737.846,0,0
227892,272.82,-735.715,0,0
228152,272.623,-733.843,0,0
228413,272.368,-732.321,0,0
228673,271.775,-731.008,0,0
228933,270.987,-729.878,0,0
229193,270.03,-728.871,0,0
229454,268.855,-727.951,0,0
229714,267.283,-727.039,0,0
229974,265.575,-725.957,0,0
230235,263.633,-724.879,0,0
230495,261.533,-723.627,0,0
230755,259.326,-722.321,0,0
231016,256.964,-720.84,0,0
231276,254.569,-719.178,0,0
231536,252.185,-717.293,0,0
231797,249.756,-715.33,0,0
232057,247.37,-713.167,0,0
232317,245.112,-710.909,0,0
232578,242.845,-708.493,0,0
232838,240.614,-706.002,0,0
233098,238.544,-703.405,0,0
233359,236.505,-700.696,0,0
233619,234.653,-697.908,0,0
233879,232.831,-695.007,0,0
234140,231.167,-692.122,0,0
234400,229.666,-689.218,0,0
234660.3,228.261,-686.298,0,0
234920.625,226.872,-683.235,0,0
235180.95,225.894,-680.439,0,0
235441.275,224.69,-677.435,0,0
235701.6,223.632,-674.522,0,0
235961.925,222.777,-671.581,0,0
236222.25,221.931,-668.776,0,0
236482.575,221.254,-665.892,0,0
236742.9,220.569,-663.049,0,0
237003.225,219.991,-660.249,0,0
237263.55,219.452,-657.472,0,0
237523.875,218.975,-654.773,0,0
237784.2,218.547,-652.045,0,0
238044.525,218.236,-649.366,0,0
238304.85,217.93,-646.692,0,0
238565.175,217.77,-644.04,0,0
238825.5,217.6,-641.461,0,0
239085.825,217.534,-638.923,0,0
239346.15,217.484,-636.433,0,0
239606.475,217.436,-633.839,0,0
239866.8,217.528,-631.47,0,0
240127.125,217.646,-629.022,0,0
240387.45,217.778,-626.768,0,0
240647.775,217.979,-624.344,0,0
240908.1,218.068,-621.972,0,0
241168.425,218.357,-619.687,0,0
241428.75,218.659,-617.417,0,0
241689.075,218.992,-615.06,0,0
241949.4,219.353,-612.8,0,0
242209.725,219.77,-610.583,0,0
242470.05,220.239,-608.352,0,0
242730.375,220.844,-606.102,0,0
242990.7,221.395,-603.896,0,0
243251.025,222.045,-601.671,0,0
243511.35,222.797,-599.504,0,0
243771.675,223.559,-597.406,0,0
244032.0,224.366,-595.29,0,0
244292.325,225.378,-593.217,0,0
244552.65,226.285,-591.141,0,0
244812.975,227.375,-589.196,0,0
245073.3,228.439,-587.204,0,0
245333.625,229.559,-585.196,0,0
245593.95,230.725,-583.231,0,0
245854.275,232.09,-581.328,0,0
246114.6,233.468,-579.406,0,0
246374.925,235.026,-577.516,0,0
246635.25,236.615,-575.605,0,0
246895.575,238.487,-573.821,0,0
247155.9,240.434,-572.072,0,0
247416.225,242.593,-570.433,0,0
247676.55,244.876,-568.98,0,0
247936.875,247.257,-567.64,0,0
248197.2,249.741,-566.606,0,0
248457.525,252.205,-565.76,0,0
248717.85,254.843,-565.004,0,0
248978.175,257.429,-564.627,0,0
249238.5,259.935,-564.307,0,0
249498.825,262.399,-564.257,0,0
249759.15,264.779,-564.283,0,0
250019.475,267.045,-564.308,0,0
250279.8,269.202,-564.501,0,0
250540,271.392,-564.62,0,0
250800,273.469,-564.696,0,0
251061,275.82,-564.865,0,0
251321,278.198,-564.859,0,0
251581,280.869,-564.997,0,0
251842,283.759,-565.383,0,0
252102,286.762,-566.027,0,0
252362,289.963,-566.888,0,0
252623,293.277,-568.141,0,0
252883,296.544,-569.797,0,0
253143,299.807,-571.783,0,0
253404,303.061,-574.152,0,0
253664,306.124,-576.985,0,0
253924,308.981,-580.179,0,0
254185,311.735,-583.666,0,0
254445,314.035,-587.651,0,0
254705,315.873,-591.784,0,0
254966,317.639,-596.126,0,0
255226,318.862,-600.736,0,0
255486,319.621,-605.441,0,0
255747,319.911,-610.276,0,0
256007,319.882,-615.057,0,0
256267,319.431,-619.789,0,0
256528,318.638,-624.521,0,0
256788,317.418,-629.138,0,0
257048,315.879,-633.654,0,0
257309,314.134,-637.949,0,0
257569,311.999,-642.165,0,0
257829,309.654,-646.138,0,0
258090,307.097,-649.969,0,0
258350,304.232,-653.573,0,0
258610,301.32,-657.06,0,0
258871,298.17,-660.186,0,0
259131,294.757,-663.216,0,0
259391,291.448,-665.963,0,0
259651,287.863,-668.604,0,0
259912,284.185,-670.97,0,0
260172,280.476,-673.205,0,0
260432,276.647,-675.105,0,0
260693,272.756,-676.769,0,0
260953,268.818,-678.307,0,0
261213,264.855,-679.543,0,0
261474,260.881,-680.553,0,0
261734,256.926,-681.425,0,0
261994,253.053,-682.07,0,0
262255,249.262,-682.484,0,0
262515,245.434,-682.78,0,0
262775,241.759,-682.891,0,0
263036,238.155,-682.968,0,0
263296,234.559,-682.839,0,0
263556,231.187,-682.564,0,0
263817,227.797,-682.278,0,0
264077,224.499,-681.864,0,0
264337,221.193,-681.424,0,0
264598,218.009,-680.848,0,0
264858,214.899,-680.283,0,0
265118,211.704,-679.52,0,0
265379,208.793,-678.675,0,0
265639,205.874,-677.921,0,0
265899,202.862,-677.007,0,0
266160,200.136,-676.025,0,0
266420,197.371,-675.092,0,0
266680.25,194.788,-673.976,0,0
266940.575,192.174,-672.868,0,0
267200.9,189.642,-671.75,0,0
267461.225,187.17,-670.558,0,0
267721.55,184.79,-669.417,0,0
267981.875,182.368,-668.154,0,0
268242.2,180.124,-666.958,0,0
268502.525,177.879,-665.68,0,0
268762.85,175.694,-664.467,0,0
269023.175,173.543,-663.127,0,0
269283.5,171.399,-661.826,0,0
269543.825,169.535,-660.513,0,0
269804.15,167.551,-659.227,0,0
270064.475,165.293,-657.866,0,0
270324.8,163.489,-656.629,0,0
270585.125,161.601,-655.27,0,0
270845.45,159.678,-653.921,0,0
271105.775,157.906,-652.598,0,0
271366.1,156.096,-651.198,0,0
271626.425,154.336,-649.872,0,0
271886.75,152.612,-648.415,0,0
272147.075,150.838,-647.023,0,0
272407.4,149.169,-645.6,0,0
272667.725,147.514,-644.167,0,0
272928.05,145.875,-642.762,0,0
273188.375,144.341,-641.323,0,0
273448.7,142.767,-639.867,0,0
273709.025,141.209,-638.412,0,0
273969.35,139.726,-636.947,0,0
274229.675,138.233,-635.427,0,0
274490.0,136.819,-634.063,0,0
274750.325,135.382,-632.385,0,0
275010.65,134.008,-630.888,0,0
275270.975,132.617,-629.483,0,0
275531.3,131.339,-627.929,0,0
275791.625,129.988,-626.4,0,0
276051.95,128.768,-624.874,0,0
276312.275,127.6,-623.286,0,0
276572.6,126.357,-621.781,0,0
276832.925,125.205,-620.217,0,0
277093.25,124.096,-618.668,0,0
277353.575,122.985,-617.146,0,0
277613.9,121.887,-615.585,0,0
277874.225,120.819,-614.059,0,0
278134.55,119.786,-612.468,0,0
278394.875,118.754,-610.914,0,0
278655.2,117.815,-609.311,0,0
278915.525,116.843,-607.735,0,0
279175.85,115.913,-606.13,0,0
279436.175,115.057,-604.462,0,0
279696.5,114.266,-602.848,0,0
279956.825,113.55,-601.216,0,0
280217.15,112.762,-599.546,0,0
280477.475,112.186,-598.035,0,0
280737.8,111.67,-596.415,0,0
280998.125,111.124,-594.943,0,0
281258.45,110.651,-593.466,0,0
281518.775,110.228,-592.088,0,0
281779.1,109.752,-590.772,0,0
282039.425,109.292,-589.472,0,0
282299.75,108.793,-588.232,0,0
282560,108.298,-586.977,0,0
282820,107.767,-585.758,0,0
283081,107.227,-584.498,0,0
283341,106.706,-583.256,0,0
283601,106.19,-582.011,0,0
283862,105.691,-580.772,0,0
284122,105.184,-579.471,0,0
284382,104.741,-578.224,0,0
284643,104.298,-577.003,0,0
284903,103.885,-575.796,0,0
285163,103.513,-574.497,0,0
285424,103.147,-573.338,0,0
285684,102.849,-572.182,0,0
285944,102.572,-571.065,0,0
286205,102.27,-569.962,0,0
286465,102.004,-568.931,0,0
286725,101.692,-567.967,0,0
286986,101.332,-567.002,0,0
287246,100.947,-566.072,0,0
287506,100.514,-565.136,0,0
287767,100.054,-564.188,0,0
288027,99.586,-563.18,0,0
288287,99.1228,-562.176,0,0
288548,98.6821,-561.129,0,0
288808,98.2811,-560.083,0,0
289068,97.8555,-559.062,0,0
289329,97.5043,-558.025,0,0
289589,97.1314,-556.992,0,0
289849,96.7665,-555.976,0,0
290109,96.4679,-554.997,0,0
290370,96.1637,-554.008,0,0
290630,95.8528,-553.04,0,0
290890,95.5274,-552.064,0,0
291151,95.2551,-551.114,0,0
291411,94.9899,-550.201,0,0
291671,94.6978,-549.309,0,0
291932,94.38,-548.425,0,0
292192,94.1532,-547.564,0,0
292452,93.8676,-546.732,0,0
292713,93.6017,-545.921,0,0
292973,93.3242,-545.132,0,0
293233,92.987,-544.359,0,0
293494,92.6864,-543.641,0,0
293754,92.3557,-542.909,0,0
294014,91.9857,-542.231,0,0
294275,91.5745,-541.521,0,0
294535,91.0755,-540.819,0,0
294795,90.6313,-540.145,0,0
295056,90.097,-539.458,0,0
295316,89.5303,-538.71,0,0
295576,88.9464,-537.93,0,0
295837,88.358,-537.112,0,0
296097,87.7439,-536.271,0,0
296357,87.1008,-535.397,0,0
296618,86.483,-534.467,0,0
296878,85.8507,-533.478,0,0
297138,85.2375,-532.439,0,0
297399,84.6509,-531.372,0,0
297659,84.1156,-530.237,0,0
297919,83.6113,-529.059,0,0
298180,83.1702,-527.843,0,0
298440,82.8328,-526.627,0,0
298700.2,82.5459,-525.425,0,0
298960.525,82.3052,-524.214,0,0
299220.85,82.2251,-523.006,0,0
299481.175,82.0945,-521.964,0,0
299741.5,82.0266,-520.944,0,0
300001.825,82.0707,-519.908,0,0
300262.15,81.9502,-518.915,0,0
300522.475,81.8654,-517.998,0,0
300782.8,81.8206,-517.134,0,0
301043.125,81.7412,-516.329,0,0
301303.45,81.6557,-515.57,0,0
301563.775,81.5853,-514.753,0,0
301824.1,81.4324,-513.949,0,0
302084.425,81.3358,-513.147,0,0
302344.75,81.1715,-512.445,0,0
302605.075,81.0316,-511.675,0,0
302865.4,80.8584,-510.929,0,0
303125.725,80.6723,-510.227,0,0
303386.05,80.4298,-509.413,0,0
303646.375,80.1995,-508.678,0,0
303906.7,79.9845,-507.854,0,0
304167.025,79.7811,-507.037,0,0
304427.35,79.6379,-506.193,0,0
304687.675,79.4398,-505.393,0,0
304948.0,79.2299,-504.521,0,0
305208.325,79.2286,-503.658,0,0
305468.65,79.0732,-502.807,0,0
305728.975,79.0011,-501.981,0,0
305989.3,79.0145,-501.163,0,0
306249.625,79.1316,-500.402,0,0
306509.95,79.156,-499.782,0,0
306770.275,79.2536,-499.071,0,0
307030.6,79.3093,-498.483,0,0
307290.925,79.3117,-497.954,0,0
307551.25,79.2732,-497.482,0,0
307811.575,79.1756,-496.987,0,0
308071.9,79.0889,-496.529,0,0
308332.225,78.9271,-496.081,0,0
308592.55,78.7567,-495.57,0,0
308852.875,78.498,-495.092,0,0
309113.2,78.318,-494.576,0,0
309373.525,78.0827,-494.075,0,0
309633.85,77.8417,-493.561,0,0
309894.175,77.6191,-493.031,0,0
310154.5,77.3564,-492.525,0,0
310414.825,77.0657,-491.954,0,0
310675.15,76.8187,-491.44,0,0
310935.475,76.6111,-490.934,0,0
311195.8,76.3378,-490.375,0,0
311456.125,76.015,-489.866,0,0
311716.45,75.6702,-489.349,0,0
311976.775,75.3824,-488.808,0,0
312237.1,75.0682,-488.224,0,0
312497.425,74.7064,-487.716,0,0
312757.75,74.4688,-487.144,0,0
313018.075,74.0725,-486.578,0,0
313278.4,73.743,-485.941,0,0
313538.725,73.428,-485.36,0,0
313799.05,73.1186,-484.74,0,0
314059.375,72.7421,-484.14,0,0
314319.7,72.4113,-483.434,0,0
314580,72.067,-482.814,0,0
314840,71.7906,-482.202,0,0
315101,71.4722,-481.549,0,0
315361,71.1246,-480.94,0,0
315621,70.9134,-480.271,0,0
315882,70.6137,-479.678,0,0
316142,70.2738,-478.968,0,0
316402,70.0009,-478.36,0,0
316663,69.6997,-477.733,0,0
316923,69.4585,-477.137,0,0
317183,69.1602,-476.467,0,0
317444,68.8778,-475.828,0,0
317704,68.5735,-475.183,0,0
317964,68.2623,-474.559,0,0
318225,68.0134,-473.978,0,0
318485,67.6811,-473.32,0,0
318745,67.3719,-472.681,0,0
319006,66.9875,-472.048,0,0
319266,66.7467,-471.416,0,0
319526,66.4261,-470.716,0,0
319787,66.0829,-470.087,0,0
320047,65.7767,-469.433,0,0
320307,65.4833,-468.827,0,0
320567,65.1678,-468.087,0,0
320828,64.8817,-467.397,0,0
321088,64.5492,-466.656,0,0
321348,64.2893,-465.91,0,0
321609,64.029,-465.2,0,0
321869,63.7342,-464.461,0,0
322129,63.4815,-463.757,0,0
322390,63.2788,-463.081,0,0
322650,63.0558,-462.371,0,0
322910,62.775,-461.655,0,0
323171,62.6287,-460.926,0,0
323431,62.4361,-460.269,0,0
323691,62.2156,-459.586,0,0
323952,62.0065,-458.912,0,0
324212,61.8196,-458.228,0,0
324472,61.6533,-457.569,0,0
324733,61.4,-456.946,0,0
324993,61.1471,-456.262,0,0
325253,60.9863,-455.568,0,0
325514,60.7907,-454.953,0,0
325774,60.4823,-454.273,0,0
326034,60.3014,-453.644,0,0
326295,60.0988,-452.931,0,0
326555,59.8713,-452.292,0,0
326815,59.6627,-451.587,0,0
327076,59.445,-450.905,0,0
327336,59.2272,-450.216,0,0
327596,59.0471,-449.508,0,0
327857,58.8502,-448.842,0,0
328117,58.6374,-448.145,0,0
328377,58.4266,-447.482,0,0
328638,58.2277,-446.768,0,0
328898,58.0918,-446.149,0,0
329158,57.8763,-445.437,0,0
329419,57.669,-444.777,0,0
329679,57.5413,-444.073,0,0
329939,57.3802,-443.416,0,0
330200,57.1836,-442.653,0,0
330460,57.0517,-442.024,0,0
330720.15,56.8857,-441.383,0,0
330980.475,56.687,-440.669,0,0
331240.8,56.5421,-440.01,0,0
331501.125,56.4119,-439.29,0,0
331761.45,56.268,-438.619,0,0
332021.775,56.0771,-437.961,0,0
332282.1,55.9399,-437.274,0,0
332542.425,55.768,-436.588,0,0
332802.75,55.6465,-435.924,0,0
333063.075,55.4482,-435.249,0,0
333323.4,55.3354,-434.543,0,0
333583.725,55.2146,-433.847,0,0
333844.05,55.0922,-433.17,0,0
334104.375,55.0209,-432.512,0,0
334364.7,54.8735,-431.793,0,0
334625.025,54.8173,-431.12,0,0
334885.35,54.7425,-430.481,0,0
335145.675,54.6305,-429.782,0,0
335406.0,54.5474,-429.099,0,0
335666.325,54.4555,-428.423,0,0
335926.65,54.3871,-427.762,0,0
336186.975,54.2975,-427.105,0,0
336447.3,54.2349,-426.512,0,0
336707.625,54.14,-425.828,0,0
336967.95,54.1111,-425.204,0,0
337228.275,54.0437,-424.598,0,0
337488.6,53.9485,-423.996,0,0
337748.925,53.888,-423.34,0,0
338009.25,53.7982,-422.728,0,0
338269.575,53.7068,-422.055,0,0
338529.9,53.6597,-421.456,0,0
338790.225,53.5762,-420.841,0,0
339050.55,53.4833,-420.176,0,0
339310.875,53.4554,-419.631,0,0
339571.2,53.3728,-418.974,0,0
339831.525,53.3422,-418.334,0,0
340091.85,53.2398,-417.73,0,0
340352.175,53.1647,-417.037,0,0
340612.5,53.1305,-416.427,0,0
340872.825,53.1263,-415.833,0,0
341133.15,53.1032,-415.186,0,0
341393.475,53.0516,-414.525,0,0
341653.8,53.0387,-413.914,0,0
341914.125,53.074,-413.332,0,0
342174.45,53.0715,-412.684,0,0
342434.775,53.0593,-412.097,0,0
342695.1,53.1157,-411.478,0,0
342955.425,53.184,-410.925,0,0
343215.75,53.2426,-410.392,0,0
343476.075,53.2843,-409.858,0,0
343736.4,53.3302,-409.393,0,0
343996.725,53.3805,-408.972,0,0
344257.05,53.3584,-408.517,0,0
344517.375,53.3466,-408.158,0,0
344777.7,53.2327,-407.784,0,0
345038.025,53.148,-407.27,0,0
345298.35,52.9547,-406.859,0,0
345558.675,52.8531,-406.357,0,0
345819.0,52.633,-405.841,0,0
346079.325,52.4764,-405.339,0,0
346339.65,52.3509,-404.764,0,0
346599.975,52.2105,-404.214,0,0
346860,52.0708,-403.615,0,0
347121,51.9179,-403.074,0,0
347381,51.8422,-402.466,0,0
347641,51.7219,-401.867,0,0
347902,51.6332,-401.269,0,0
348162,51.5695,-400.679,0,0
348422,51.459,-400.068,0,0
348683,51.4327,-399.466,0,0
348943,51.3725,-398.894,0,0
349203,51.2912,-398.287,0,0
349464,51.2913,-397.703,0,0
349724,51.2358,-397.128,0,0
349984,51.2018,-396.526,0,0
350245,51.137,-395.965,0,0
350505,51.1375,-395.402,0,0
350765,51.1076,-394.82,0,0
351025,51.065,-394.254,0,0
351286,51.0749,-393.686,0,0
351546,51.053,-393.106,0,0
351806,51.0608,-392.525,0,0
352067,51.0295,-391.954,0,0
352327,51.0719,-391.415,0,0
352587,51.0621,-390.877,0,0
352848,51.0822,-390.334,0,0
353108,51.0986,-389.837,0,0
353368,51.0949,-389.29,0,0
353629,51.1299,-388.805,0,0
353889,51.1445,-388.312,0,0
354149,51.1083,-387.788,0,0
354410,51.1452,-387.315,0,0
354670,51.1185,-386.812,0,0
354930,51.0939,-386.374,0,0
355191,51.0665,-385.834,0,0
355451,51.0454,-385.331,0,0
355711,50.9982,-384.879,0,0
355972,50.9137,-384.364,0,0
356232,50.9089,-383.797,0,0
356492,50.8783,-383.284,0,0
356753,50.8458,-382.789,0,0
357013,50.8195,-382.248,0,0
357273,50.8125,-381.709,0,0
357534,50.8497,-381.187,0,0
357794,50.8625,-380.637,0,0
358054,50.8935,-380.137,0,0
358315,50.9308,-379.635,0,0
358575,50.9375,-379.115,0,0
358835,50.9776,-378.662,0,0
359096,51.0734,-378.198,0,0
359356,51.0543,-377.714,0,0
359616,51.1241,-377.272,0,0
359877,51.1148,-376.915,0,0
360137,51.1726,-376.395,0,0
360397,51.1606,-376.014,0,0
360658,51.1346,-375.546,0,0
360918,51.1415,-375.158,0,0
361178,51.087,-374.731,0,0
361438,51.0928,-374.29,0,0
361699,51.0262,-373.914,0,0
361959,51.0106,-373.514,0,0
362219,50.9548,-373.059,0,0
362480,50.906,-372.637,0,0
362740.1,50.8228,-372.155,0,0
363000.425,50.7884,-371.757,0,0
363260.75,50.6855,-371.306,0,0
363521.075,50.6317,-370.875,0,0
363781.4,50.5973,-370.356,0,0
364041.725,50.5017,-369.908,0,0
364302.05,50.4131,-369.46,0,0
364562.375,50.3891,-368.957,0,0
364822.7,50.295,-368.481,0,0
365083.025,50.2692,-367.995,0,0
365343.35,50.2131,-367.512,0,0
365603.675,50.1724,-367.022,0,0
365864.0,50.1438,-366.538,0,0
366124.325,50.0862,-366.038,0,0
366384.65,50.0528,-365.528,0,0
366644.975,50.0318,-365.099,0,0
366905.3,49.9792,-364.597,0,0
367165.625,49.9791,-364.103,0,0
367425.95,49.949,-363.616,0,0
367686.275,49.9382,-363.148,0,0
367946.6,49.9433,-362.679,0,0
368206.925,49.8594,-362.172,0,0
368467.25,49.8436,-361.7,0,0
368727.575,49.8286,-361.183,0,0
368987.9,49.8287,-360.748,0,0
369248.225,49.8056,-360.208,0,0
369508.55,49.7721,-359.727,0,0
369768.875,49.7544,-359.242,0,0
370029.2,49.7737,-358.787,0,0
370289.525,49.7757,-358.283,0,0
370549.85,49.7968,-357.798,0,0
370810.175,49.8208,-357.308,0,0
371070.5,49.8611,-356.82,0,0
371330.825,49.9084,-356.373,0,0
371591.15,49.9366,-355.871,0,0
371851.475,49.9643,-355.415,0,0
372111.8,50.0097,-354.951,0,0
372372.125,50.0719,-354.516,0,0
372632.45,50.1318,-354.086,0,0
372892.775,50.2217,-353.631,0,0
373153.1,50.2804,-353.259,0,0
373413.425,50.3704,-352.879,0,0
373673.75,50.4217,-352.511,0,0
373934.075,50.4749,-352.16,0,0
374194.4,50.5135,-351.853,0,0
374454.725,50.5143,-351.554,0,0
374715.05,50.4879,-351.266,0,0
374975.375,50.4042,-350.951,0,0
375235.7,50.342,-350.61,0,0
375496.025,50.2671,-350.311,0,0
375756.35,50.1769,-349.94,0,0
376016.675,50.0498,-349.553,0,0
376277.0,49.9294,-349.174,0,0
376537.325,49.8236,-348.782,0,0
376797.65,49.7258,-348.381,0,0
377057.975,49.6142,-347.969,0,0
377318.3,49.5208,-347.558,0,0
377578.625,49.3929,-347.141,0,0
377838.95,49.3202,-346.704,0,0
378099.275,49.2069,-346.286,0,0
378359.6,49.0902,-345.859,0,0
378619.925,48.9993,-345.446,0,0
378880,48.8926,-344.98,0,0
379141,48.7862,-344.552,0,0
379401,48.6403,-344.135,0,0
379661,48.5116,-343.65,0,0
379922,48.3265,-343.177,0,0
380182,48.2474,-342.706,0,0
380442,48.1,-342.188,0,0
380703,47.9465,-341.663,0,0
380963,47.8481,-341.112,0,0
381223,47.7472,-340.563,0,0
381483,47.6554,-340.023,0,0
381744,47.5446,-339.45,0,0
382004,47.5224,-338.853,0,0
382264,47.5101,-338.288,0,0
382525,47.4893,-337.714,0,0
382785,47.5514,-337.101,0,0
383045,47.6297,-336.629,0,0
383306,47.6594,-336.049,0,0
383566,47.7842,-335.596,0,0
383826,47.8596,-335.157,0,0
384087,47.8806,-334.785,0,0
384347,47.9266,-334.398,0,0
384607,47.8996,-334.014,0,0
384868,47.8447,-333.62,0,0
385128,47.7943,-333.206,0,0
385388,47.6881,-332.781,0,0
385649,47.6568,-332.347,0,0
385909,47.5697,-331.902,0,0
386169,47.4771,-331.42,0,0
386430,47.3727,-330.989,0,0
386690,47.3398,-330.51,0,0
386950,47.2714,-329.99,0,0
387211,47.156,-329.485,0,0
387471,47.1137,-329.009,0,0
387731,47.0471,-328.525,0,0
387992,46.977,-327.968,0,0
388252,46.8904,-327.443,0,0
388512,46.8517,-326.983,0,0
388773,46.7932,-326.42,0,0
389033,46.7673,-325.912,0,0
389293,46.7088,-325.41,0,0
389554,46.6638,-324.845,0,0
389814,46.6677,-324.317,0,0
390074,46.6255,-323.784,0,0
390335,46.602,-323.288,0,0
390595,46.5894,-322.726,0,0
390855,46.5737,-322.203,0,0
391116,46.566,-321.675,0,0
391376,46.5389,-321.13,0,0
391636,46.5245,-320.64,0,0
391896,46.5206,-320.095,0,0
392157,46.5146,-319.556,0,0
392417,46.5374,-319.022,0,0
392677,46.5046,-318.498,0,0
392938,46.5433,-317.944,0,0
393198,46.5359,-317.429,0,0
393458,46.5131,-316.873,0,0
393719,46.5308,-316.351,0,0
393979,46.5418,-315.809,0,0
394239,46.5547,-315.293,0,0
394500,46.5713,-314.725,0,0
394760.05,46.5852,-314.211,0,0
395020.375,46.6079,-313.661,0,0
395280.7,46.6555,-313.122,0,0
395541.025,46.6527,-312.595,0,0
395801.35,46.6882,-312.033,0,0
396061.675,46.7057,-311.497,0,0
396322.0,46.7393,-310.986,0,0
396582.325,46.7708,-310.42,0,0
396842.65,46.817,-309.865,0,0
397102.975,46.8312,-309.327,0,0
397363.3,46.9023,-308.773,0,0
397623.625,46.9299,-308.233,0,0
397883.95,46.974,-307.703,0,0
398144.275,47.0647,-307.17,0,0
398404.6,47.0724,-306.623,0,0
398664.925,47.1215,-306.107,0,0
398925.25,47.1719,-305.558,0,0
399185.575,47.2277,-305.011,0,0
399445.9,47.3019,-304.485,0,0
399706.225,47.3426,-303.945,0,0
399966.55,47.4077,-303.401,0,0
400006.6,47.4375,-303.324,0,0