File: Accelerated corrosion test data/2025-10-04_18-00-03/sample_1.csv
Frequency (Hz),Impedance (ohms),Phase (Radians),Temperature (C),Humidity (%)
10000.0,238.171,-12238.9,0,0
10260.325,237.815,-11922.6,0,0
10520.65,227.16,-11642.9,0,0
10780.975,222.546,-11358.3,0,0
11041.3,217.26,-11097.5,0,0
11301.625,212.033,-10839.4,0,0
11561.95,208.867,-10595,0,0
11822.275,205.669,-10355.8,0,0
12082.6,222.413,-10124.2,0,0
12342.925,207.811,-9947.73,0,0
12603.25,192.75,-9736.67,0,0
12863.575,189.078,-9534.57,0,0
13123.9,195.022,-9341.93,0,0
13384.225,183.358,-9170.59,0,0
13644.55,178.711,-8988.26,0,0
13904.875,180.328,-8810.53,0,0
14165.2,193.897,-8675.6,0,0
14425.525,212.019,-8501.98,0,0
14685.8,197.195,-8340.34,0,0
14946.175,176.731,-8241.25,0,0
15206.5,180.405,-8077.76,0,0
15466.825,173.113,-7956.43,0,0
15727.15,171.091,-7830.65,0,0
15987.5,158.986,-7698.21,0,0
16247.8,156.181,-7572.25,0,0
16508.125,154.075,-7448.63,0,0
16768.45,157.494,-7331.41,0,0
17028.775,161.269,-7224.35,0,0
17289.1,152.093,-7120.47,0,0
17549.425,152.056,-7014.49,0,0
17809.75,146.293,-6912.86,0,0
18070.075,146.617,-6813.95,0,0
18330.4,140.779,-6715.88,0,0
18590.725,136.673,-6621.46,0,0
18851.05,136.691,-6523.54,0,0
19111.375,134.553,-6441.65,0,0
19371.7,131.766,-6348.96,0,0
19632.025,130.983,-6259.99,0,0
19892.35,133.418,-6174.06,0,0
20152.675,134.974,-6086.18,0,0
20413.0,153.795,-5998.66,0,0
20673.3,168.432,-5956.72,0,0
20933.65,151.691,-5889,0,0
21193.975,156.396,-5821.44,0,0
21454.3,145.839,-5749.28,0,0
21714.625,138.182,-5684.87,0,0
21974.9,134.456,-5597.85,0,0
22235.275,174.116,-5549.87,0,0
22495.6,142.05,-5512.68,0,0
22755.925,126.836,-5443.47,0,0
23016.25,122.101,-5376.82,0,0
23276.6,118.474,-5314.57,0,0
23536.9,115.019,-5253.1,0,0
23797.225,111.939,-5192.36,0,0
24057.55,113.325,-5130.97,0,0
24317.875,112.463,-5082.96,0,0
24578.2,109.855,-5022.97,0,0
24838.525,110.075,-4972.71,0,0
25098.85,109.983,-4917.78,0,0
25359.175,105.771,-4869.31,0,0
25619.5,103.984,-4818.16,0,0
25879.8,102.87,-4766.57,0,0
26140.1,102.718,-4717.01,0,0
26400.5,101.597,-4666.93,0,0
26660.8,103.883,-4616.32,0,0
26921.1,112.259,-4568.86,0,0
27181.4,119.071,-4533.46,0,0
27441.8,112.794,-4501.95,0,0
27702.1,103.473,-4452.96,0,0
27962.4,109.994,-4402.68,0,0
28222.7,110.012,-4364.31,0,0
28483.1,120.164,-4319.52,0,0
28743.4,132.251,-4301.84,0,0
29003.7,116.442,-4268.28,0,0
29264,118.1,-4230.1,0,0
29524.4,106.987,-4197.57,0,0
29784.7,104.089,-4155.57,0,0
30045,101.353,-4123.04,0,0
30305.3,99.6193,-4083.71,0,0
30565.7,96.6587,-4045.57,0,0
30826,100.294,-4010.83,0,0
31086.3,104.034,-3981.05,0,0
31346.6,98.5946,-3952.66,0,0
31607,93.6074,-3916.24,0,0
31867.3,96.7342,-3881.16,0,0
32127.6,97.8411,-3850.95,0,0
32387.9,97.4051,-3825.18,0,0
32648.3,92.6913,-3793.35,0,0
32908.6,94.7422,-3763.72,0,0
33168.9,89.9287,-3735.51,0,0
33429.2,88.6282,-3707.19,0,0
33689.6,85.7352,-3677.62,0,0
33949.9,84.4026,-3646.86,0,0
34210.2,86.5823,-3619.72,0,0
34470.5,83.6871,-3592.79,0,0
34730.9,81.3352,-3565.27,0,0
34991.2,80.8375,-3538.04,0,0
35251.5,79.6261,-3510.94,0,0
35511.8,78.9211,-3484.88,0,0
35772.2,78.6126,-3458.98,0,0
36032.5,77.7454,-3433.66,0,0
36292.8,76.8253,-3408.07,0,0
36553.1,76.2803,-3383.53,0,0
36813.5,75.88,-3358.62,0,0
37073.8,75.5513,-3334.61,0,0
37334.1,74.7635,-3311.01,0,0
37594.4,74.7214,-3287.24,0,0
37854.8,73.7694,-3264.89,0,0
38115.1,73.2913,-3241.68,0,0
38375.4,72.8334,-3218.82,0,0
38635.7,72.5353,-3197.04,0,0
38896.1,71.9051,-3174.74,0,0
39156.4,71.7384,-3152.83,0,0
39416.7,71.974,-3132.24,0,0
39677,71.0115,-3111.27,0,0
39937.4,70.7311,-3090.24,0,0
40197.7,70.5774,-3069.27,0,0
40458,70.4289,-3049.24,0,0
40718.3,70.6386,-3028.6,0,0
40978.7,71.8296,-3008.95,0,0
41239,71.9127,-2990.71,0,0
41499.3,71.4332,-2972.7,0,0
41759.6,70.5998,-2954.13,0,0
42020,69.6012,-2934.64,0,0
42280.275,69.8942,-2916.44,0,0
42540.6,70.3748,-2898.37,0,0
42800.925,69.8752,-2881.2,0,0
43061.25,69.0295,-2863.25,0,0
43321.575,68.9455,-2846.35,0,0
43581.9,68.2847,-2828.68,0,0
43842.225,67.4158,-2811.29,0,0
44102.55,67.6979,-2793.42,0,0
44362.875,68.5254,-2776.63,0,0
44623.2,68.945,-2761,0,0
44883.525,68.1952,-2745.31,0,0
45143.85,68.5995,-2729.36,0,0
45404.175,68.7855,-2713.59,0,0
45664.5,67.671,-2699.02,0,0
45924.825,66.8287,-2683.4,0,0
46185.15,66.4847,-2668.28,0,0
46445.475,65.5458,-2653.19,0,0
46705.8,64.9294,-2637.79,0,0
46966.125,64.6396,-2622.86,0,0
47226.45,64.2357,-2607.75,0,0
47486.775,64.3234,-2593.42,0,0
47747.1,63.6584,-2579.21,0,0
48007.425,63.1145,-2564.86,0,0
48267.75,63.1028,-2550.23,0,0
48528.075,62.6235,-2537.32,0,0
48788.4,61.5717,-2523.01,0,0
49048.725,61.2657,-2508.8,0,0
49309.05,60.903,-2494.89,0,0
49569.375,60.9875,-2481.71,0,0
49829.7,60.6926,-2468.59,0,0
50090.025,60.1019,-2455.3,0,0
50350.35,59.5291,-2441.97,0,0
50610.675,59.3777,-2428.74,0,0
50871.0,59.117,-2415.84,0,0
51131.325,58.9786,-2402.83,0,0
51391.65,59.0143,-2390.37,0,0
51651.975,58.5901,-2378.29,0,0
51912.3,58.1832,-2365.76,0,0
52172.625,57.987,-2353.38,0,0
52432.95,57.7382,-2341.11,0,0
52693.275,57.4751,-2329.15,0,0
52953.6,57.644,-2317.08,0,0
53213.925,57.5517,-2305.41,0,0
53474.25,57.3552,-2293.73,0,0
53734.575,57.1094,-2282.19,0,0
53994.9,57.2201,-2270.88,0,0
54255.225,56.6958,-2260,0,0
54515.55,56.2101,-2248.61,0,0
54775.875,56.0543,-2237.33,0,0
55036.2,55.7156,-2226.02,0,0
55296.525,55.8513,-2214.9,0,0
55556.85,55.8336,-2204.25,0,0
55817.175,55.5145,-2193.76,0,0
56077.5,54.9651,-2182.96,0,0
56337.825,54.9123,-2172.12,0,0
56598.15,54.9037,-2161.64,0,0
56858.475,54.8461,-2151.23,0,0
57118.8,54.5326,-2140.99,0,0
57379.125,54.3852,-2130.55,0,0
57639.45,54.6119,-2120.53,0,0
57899.775,54.4207,-2110.44,0,0
58160.1,54.5167,-2100.54,0,0
58420.4,54.4472,-2090.84,0,0
58680.7,54.1878,-2080.93,0,0
58941.1,54.0163,-2071.16,0,0
59201.4,54.3192,-2061.5,0,0
59461.7,54.2997,-2052.31,0,0
59722,54.0756,-2042.93,0,0
59982.4,54.0353,-2033.51,0,0
60242.7,53.9405,-2024.34,0,0
60503,54.0827,-2014.91,0,0
60763.3,54.3898,-2006.23,0,0
61023.7,53.9901,-1997.8,0,0
61284,53.5507,-1988.68,0,0
61544.3,53.0291,-1979.54,0,0
61804.6,53.4662,-1970.52,0,0
62065,53.1152,-1962.37,0,0
62325.3,52.6542,-1953.43,0,0
62585.6,52.4856,-1944.52,0,0
62845.9,52.4299,-1935.65,0,0
63106.3,52.5031,-1927.05,0,0
63366.6,52.424,-1918.44,0,0
63626.9,52.4616,-1909.94,0,0
63887.2,52.5796,-1901.52,0,0
64147.6,52.5883,-1893.23,0,0
64407.9,52.7025,-1884.77,0,0
64668.2,52.9934,-1876.55,0,0
64928.5,53.4734,-1868.14,0,0
65188.9,54.0725,-1860.26,0,0
65449.2,54.6741,-1852.64,0,0
65709.5,55.2362,-1845.56,0,0
65969.8,55.0452,-1838.43,0,0
66230.2,54.8913,-1831.22,0,0
66490.5,54.8096,-1823.76,0,0
66750.8,54.6944,-1816.58,0,0
67011.1,54.3738,-1809.58,0,0
67271.5,53.6611,-1801.82,0,0
67531.8,54.0615,-1793.97,0,0
67792.1,54.4131,-1787.14,0,0
68052.4,54.0941,-1780.59,0,0
68312.8,53.6106,-1773.43,0,0
68573.1,53.362,-1766.19,0,0
68833.4,53.4523,-1758.98,0,0
69093.7,53.3604,-1752.36,0,0
69354.1,52.9008,-1745.43,0,0
69614.4,52.7268,-1738.82,0,0
69874.7,52.1092,-1732.19,0,0
70135,51.7479,-1725.17,0,0
70395.4,51.0881,-1718.34,0,0
70655.7,50.649,-1711.2,0,0
70916,50.6039,-1704.12,0,0
71176.3,50.3983,-1697.39,0,0
71436.7,50.3804,-1690.68,0,0
71697,49.8912,-1684.33,0,0
71957.3,49.338,-1677.51,0,0
72217.6,48.9038,-1670.63,0,0
72478,48.5543,-1663.68,0,0
72738.3,48.3792,-1656.81,0,0
72998.6,48.2531,-1649.91,0,0
73258.9,48.2992,-1643.26,0,0
73519.3,48.3039,-1636.66,0,0
73779.6,48.1442,-1630.14,0,0
74039.9,48.1253,-1623.47,0,0
74300.225,48.191,-1616.97,0,0
74560.55,48.2049,-1610.52,0,0
74820.875,48.3641,-1604.1,0,0
75081.2,48.484,-1597.89,0,0
75341.525,48.5267,-1591.55,0,0
75601.85,48.4547,-1585.25,0,0
75862.175,48.6167,-1578.86,0,0
76122.5,48.8735,-1572.63,0,0
76382.825,49.2497,-1566.56,0,0
76643.15,49.4522,-1560.71,0,0
76903.475,49.5501,-1554.68,0,0
77163.8,49.819,-1548.7,0,0
77424.125,50.0708,-1543.06,0,0
77684.45,50.0856,-1537.19,0,0
77944.775,50.2621,-1531.23,0,0
78205.1,50.6991,-1525.36,0,0
78465.425,51.2744,-1519.7,0,0
78725.75,51.8347,-1514.58,0,0
78986.075,51.9296,-1509.43,0,0
79246.4,51.8039,-1504.23,0,0
79506.725,51.8413,-1498.88,0,0
79767.05,51.5125,-1493.66,0,0
80027.375,51.399,-1488.26,0,0
80287.7,51.1033,-1483.08,0,0
80548.025,50.7279,-1477.39,0,0
80808.35,50.6784,-1471.77,0,0
81068.675,50.508,-1466.19,0,0
81329.0,50.6639,-1460.49,0,0
81589.325,50.7619,-1454.99,0,0
81849.65,50.9322,-1449.64,0,0
82109.975,50.9946,-1444.26,0,0
82370.3,51.068,-1438.95,0,0
82630.625,51.1253,-1433.62,0,0
82890.95,51.1659,-1428.12,0,0
83151.275,51.4345,-1422.65,0,0
83411.6,51.8015,-1417.42,0,0
83671.925,52.0722,-1412.17,0,0
83932.25,52.3942,-1406.87,0,0
84192.575,52.7961,-1401.74,0,0
84452.9,53.1446,-1396.73,0,0
84713.225,53.5998,-1391.61,0,0
84973.55,54.1459,-1386.67,0,0
85233.875,54.5768,-1381.87,0,0
85494.2,55.0087,-1377.3,0,0
85754.525,55.2309,-1372.66,0,0
86014.85,55.2921,-1367.91,0,0
86275.175,55.6236,-1363.2,0,0
86535.5,55.8535,-1358.44,0,0
86795.825,56.0088,-1353.82,0,0
87056.15,56.216,-1349.04,0,0
87316.475,56.7034,-1344.43,0,0
87576.8,56.8401,-1340.12,0,0
87837.125,56.5884,-1335.59,0,0
88097.45,56.4415,-1330.65,0,0
88357.775,56.5872,-1325.83,0,0
88618.1,56.8298,-1320.69,0,0
88878.425,57.1881,-1315.98,0,0
89138.75,57.5923,-1311.19,0,0
89399.075,57.7758,-1306.17,0,0
89659.4,58.2978,-1301.08,0,0
89919.725,59.1749,-1296.18,0,0
90180,60.1245,-1291.32,0,0
90440.4,60.966,-1286.99,0,0
90700.7,61.6185,-1282.51,0,0
90961,62.5708,-1277.56,0,0
91221.3,63.849,-1273.01,0,0
91481.7,65.2513,-1268.77,0,0
91742,66.8498,-1264.82,0,0
92002.3,68.0238,-1261.16,0,0
92262.6,69.137,-1257.37,0,0
92523,70.5864,-1253.56,0,0
92783.3,72.2923,-1250.11,0,0
93043.6,73.7626,-1247.14,0,0
93303.9,75.2555,-1244.39,0,0
93564.3,76.8212,-1241.69,0,0
93824.6,79.0238,-1240.59,0,0
94084.9,79.0376,-1240.98,0,0
94345.2,76.5203,-1240.27,0,0
94605.6,73.7408,-1237.03,0,0
94865.9,73.0052,-1233.35,0,0
95126.2,71.4163,-1230.49,0,0
95386.5,70.2487,-1226.66,0,0
95646.9,68.7181,-1223.06,0,0
95907.2,67.3651,-1218.64,0,0
96167.5,66.7273,-1213.98,0,0
96427.8,66.7932,-1209.81,0,0
96688.2,66.4284,-1206.28,0,0
96948.5,65.5963,-1202.43,0,0
97208.8,64.823,-1198.12,0,0
97469.1,64.4897,-1193.68,0,0
97729.5,64.4793,-1189.35,0,0
97989.8,64.5852,-1185.3,0,0
98250.1,64.6941,-1181.53,0,0
98510.4,64.4235,-1177.82,0,0
98770.8,63.9721,-1174.03,0,0
99031.1,63.6359,-1169.81,0,0
99291.4,63.5398,-1165.69,0,0
99551.7,63.4088,-1161.62,0,0
99812.1,63.3077,-1157.35,0,0
100072,63.5593,-1153.17,0,0
100333,63.7441,-1149.39,0,0
100593,63.8129,-1145.52,0,0
100853,63.7338,-1141.62,0,0
101114,63.7667,-1137.69,0,0
101374,63.7657,-1133.85,0,0
101634,63.4858,-1129.95,0,0
101895,63.0178,-1125.67,0,0
102155,62.8804,-1120.88,0,0
102415,63.2409,-1115.92,0,0
102676,64.1438,-1111.15,0,0
102936,65.2807,-1106.92,0,0
103196,66.2026,-1102.86,0,0
103457,67.0757,-1098.79,0,0
103717,67.9891,-1094.7,0,0
103977,69.1578,-1090.38,0,0
104238,70.8668,-1086.35,0,0
104498,72.5901,-1083.02,0,0
104758,73.829,-1080.08,0,0
105019,74.6934,-1076.77,0,0
105279,75.819,-1073.28,0,0
105539,76.9663,-1069.82,0,0
105800,78.4112,-1066.48,0,0
106060,80.0243,-1063.47,0,0
106320.175,81.3174,-1060.72,0,0
106580.5,82.6119,-1057.84,0,0
106840.825,83.9774,-1055.07,0,0
107101.15,85.4935,-1052.39,0,0
107361.475,86.9123,-1050.18,0,0
107621.8,87.9761,-1048.15,0,0
107882.125,88.736,-1045.97,0,0
108142.45,89.5848,-1043.54,0,0
108402.775,90.6127,-1041.19,0,0
108663.1,91.7172,-1039.09,0,0
108923.425,92.6939,-1037.21,0,0
109183.75,93.4548,-1035.51,0,0
109444.075,93.9341,-1033.88,0,0
109704.4,94.2275,-1032.2,0,0
109964.725,94.3547,-1030.49,0,0
110225.05,94.1697,-1028.53,0,0
110485.375,93.9113,-1026.21,0,0
110745.7,93.9833,-1023.96,0,0
111006.025,94.166,-1021.49,0,0
111266.35,94.2467,-1019.01,0,0
111526.675,94.7818,-1016.45,0,0
111787.0,95.4742,-1014.27,0,0
112047.325,95.921,-1012.28,0,0
112307.65,96.3153,-1010.25,0,0
112567.975,96.716,-1008.49,0,0
112828.3,96.9789,-1006.8,0,0
113088.625,97.202,-1005.12,0,0
113348.95,97.3072,-1003.55,0,0
113609.275,97.1882,-1002.17,0,0
113869.6,96.8862,-1000.75,0,0
114129.925,96.3299,-999.319,0,0
114390.25,95.4809,-997.622,0,0
114650.575,94.6979,-995.705,0,0
114910.9,93.9432,-993.903,0,0
115171.225,93.1284,-991.847,0,0
115431.55,92.2063,-989.831,0,0
115691.875,91.1639,-987.724,0,0
115952.2,89.9734,-985.413,0,0
116212.525,88.9045,-982.892,0,0
116472.85,87.9186,-980.201,0,0
116733.175,86.9598,-977.439,0,0
116993.5,86.1919,-974.799,0,0
117253.825,85.2305,-971.925,0,0
117514.15,84.3693,-968.895,0,0
117774.475,83.6783,-965.786,0,0
118034.8,83.0991,-962.635,0,0
118295.125,82.6358,-959.518,0,0
118555.45,82.2589,-956.403,0,0
118815.775,82.0065,-953.262,0,0
119076.1,81.8088,-950.179,0,0
119336.425,81.613,-947.056,0,0
119596.75,81.6888,-943.872,0,0
119857.075,81.8059,-940.95,0,0
120117.4,82.0258,-938.21,0,0
120377.725,82.1324,-935.52,0,0
120638.05,82.2094,-932.925,0,0
120898.375,82.1665,-930.549,0,0
121158.7,81.9804,-928.031,0,0
121419.025,81.7139,-925.476,0,0
121679.35,81.5293,-922.938,0,0
121939.675,81.0486,-920.381,0,0
122200.0,80.6593,-917.503,0,0
122460,80.3945,-914.773,0,0
122721,80.0099,-911.969,0,0
122981,79.6295,-909.036,0,0
123241,79.417,-906.002,0,0
123502,79.2183,-902.963,0,0
123762,79.0954,-900.012,0,0
124022,78.966,-896.962,0,0
124283,78.9864,-893.877,0,0
124543,79.0807,-890.803,0,0
124803,79.1849,-887.897,0,0
125064,79.2331,-884.985,0,0
125324,79.2944,-882.049,0,0
125584,79.4456,-878.961,0,0
125845,79.6814,-875.961,0,0
126105,79.9121,-873.058,0,0
126365,80.1943,-870.161,0,0
126626,80.4153,-867.309,0,0
126886,80.6628,-864.504,0,0
127146,80.8254,-861.609,0,0
127406,81.2009,-858.574,0,0
127667,81.4631,-855.578,0,0
127927,81.9063,-852.593,0,0
128187,82.2206,-849.588,0,0
128448,82.8727,-846.597,0,0
128708,83.4525,-843.724,0,0
128968,83.9716,-840.96,0,0
129229,84.4431,-838.086,0,0
129489,85.0423,-835.12,0,0
129749,85.8154,-832.06,0,0
130010,86.7686,-829.131,0,0
130270,87.8216,-826.428,0,0
130530,88.8493,-823.826,0,0
130791,89.987,-821.378,0,0
131051,91.0377,-819.091,0,0
131311,91.9386,-816.854,0,0
131572,92.8997,-814.736,0,0
131832,93.7199,-812.624,0,0
132092,94.4461,-810.521,0,0
132353,95.1547,-808.43,0,0
132613,95.8563,-806.355,0,0
132873,96.5458,-804.216,0,0
133134,97.2811,-802.181,0,0
133394,97.9513,-800.165,0,0
133654,98.5448,-798.225,0,0
133915,99.0534,-796.17,0,0
134175,99.6057,-794.201,0,0
134435,100.044,-792.184,0,0
134696,100.421,-790.118,0,0
134956,100.84,-787.902,0,0
135216,101.337,-785.635,0,0
135477,102.043,-783.343,0,0
135737,102.699,-781.241,0,0
135997,103.351,-779.053,0,0
136258,104.17,-776.872,0,0
136518,105.005,-774.848,0,0
136778,105.806,-772.839,0,0
137039,106.639,-770.864,0,0
137299,107.592,-768.934,0,0
137559,108.773,-767.125,0,0
137819,109.968,-765.869,0,0
138080,110.716,-764.88,0,0
138340.125,111.164,-763.845,0,0
138600.45,111.286,-762.819,0,0
138860.775,111.187,-761.537,0,0
139121.1,110.992,-759.985,0,0
139381.425,110.916,-758.194,0,0
139641.75,110.985,-756.545,0,0
139902.075,110.874,-754.957,0,0
140162.4,110.613,-753.241,0,0
140422.725,110.359,-751.183,0,0
140683.05,110.289,-749.123,0,0
140943.375,110.286,-747.044,0,0
141203.7,110.279,-744.962,0,0
141464.025,110.253,-742.867,0,0
141724.35,110.234,-740.701,0,0
141984.675,110.224,-738.373,0,0
142245.0,110.479,-735.98,0,0
142505.325,110.861,-733.795,0,0
142765.65,111.097,-731.71,0,0
143025.975,111.312,-729.507,0,0
143286.3,111.666,-727.429,0,0
143546.625,111.792,-725.335,0,0
143806.95,111.988,-722.983,0,0
144067.275,112.3,-720.703,0,0
144327.6,112.644,-718.421,0,0
144587.925,113.094,-716.129,0,0
144848.25,113.567,-713.899,0,0
145108.575,114.132,-711.691,0,0
145368.9,114.566,-709.644,0,0
145629.225,114.978,-707.478,0,0
145889.55,115.468,-705.275,0,0
146149.875,115.991,-703.034,0,0
146410.2,116.617,-700.817,0,0
146670.525,117.339,-698.666,0,0
146930.85,118.256,-696.659,0,0
147191.175,118.941,-695.08,0,0
147451.5,119.226,-693.352,0,0
147711.825,119.552,-691.223,0,0
147972.15,120.234,-689.237,0,0
148232.475,120.805,-687.495,0,0
148492.8,121.257,-685.743,0,0
148753.125,121.535,-684.043,0,0
149013.45,121.645,-682.094,0,0
149273.775,122.043,-679.977,0,0
149534.1,122.507,-678.019,0,0
149794.425,122.974,-676.243,0,0
150054.75,123.246,-674.521,0,0
150315.075,123.41,-672.795,0,0
150575.4,123.476,-671.096,0,0
150835.725,123.281,-669.248,0,0
151096.05,122.953,-667.261,0,0
151356.375,122.499,-664.943,0,0
151616.7,122.269,-662.264,0,0
151877.025,122.267,-659.638,0,0
152137.35,122.255,-656.986,0,0
152397.675,122.242,-654.313,0,0
152658.0,122.148,-651.459,0,0
152918.325,122.174,-648.219,0,0
153178.65,122.593,-644.848,0,0
153438.975,123.298,-641.683,0,0
153699.3,123.856,-638.697,0,0
153959.625,124.376,-635.446,0,0
154219.95,125.089,-632.015,0,0
154480,126.019,-628.571,0,0
154741,127.109,-625.016,0,0
155001,128.601,-621.461,0,0
155261,130.222,-618.219,0,0
155522,131.794,-614.989,0,0
155782,133.53,-611.567,0,0
156042,135.699,-608.236,0,0
156303,137.953,-605.308,0,0
156563,140.126,-602.384,0,0
156823,142.593,-599.338,0,0
157084,145.483,-596.618,0,0
157344,148.381,-594.444,0,0
157604,151.027,-592.589,0,0
157864,153.383,-590.874,0,0
158125,155.54,-589.066,0,0
158385,157.643,-587.103,0,0
158645,159.801,-585.198,0,0
158906,161.885,-583.26,0,0
159166,164.038,-581.166,0,0
159426,166.035,-578.824,0,0
159687,168.471,-576.217,0,0
159947,171.314,-573.762,0,0
160207,174.522,-571.402,0,0
160468,177.918,-569.294,0,0
160728,181.702,-567.442,0,0
160988,185.672,-566.138,0,0
161249,189.66,-565.315,0,0
161509,193.428,-565.03,0,0
161769,196.692,-565.052,0,0
162030,199.673,-564.923,0,0
162290,202.743,-564.799,0,0
162550,205.592,-564.912,0,0
162811,208.193,-564.902,0,0
163071,210.984,-564.725,0,0
163331,213.979,-564.783,0,0
163592,216.961,-565.241,0,0
163852,219.558,-565.957,0,0
164112,221.822,-566.541,0,0
164373,224.043,-566.836,0,0
164633,226.493,-567.07,0,0
164893,229.202,-567.351,0,0
165154,232.153,-567.867,0,0
165414,235.32,-568.879,0,0
165674,238.463,-570.403,0,0
165935,241.296,-572.595,0,0
166195,243.59,-575.123,0,0
166455,245.311,-577.721,0,0
166716,246.659,-580.342,0,0
166976,247.664,-582.986,0,0
167236,248.304,-585.601,0,0
167497,248.576,-588.185,0,0
167757,248.485,-590.626,0,0
168017,248.14,-592.918,0,0
168277,247.533,-594.996,0,0
168538,246.757,-596.879,0,0
168798,245.803,-598.699,0,0
169058,244.5,-600.216,0,0
169319,243.15,-601.456,0,0
169579,241.68,-602.677,0,0
169839,239.94,-603.428,0,0
170100,238.125,-603.806,0,0
170360.075,236.576,-603.957,0,0
170620.4,235.032,-603.952,0,0
170880.725,233.508,-603.668,0,0
171141.05,232.241,-603.142,0,0
171401.375,231.158,-602.661,0,0
171661.7,230.169,-602.223,0,0
171922.025,229.206,-601.864,0,0
172182.35,227.982,-601.574,0,0
172442.675,226.595,-601.005,0,0
172703.0,225.206,-600.105,0,0
172963.325,223.915,-598.952,0,0
173223.65,222.929,-597.527,0,0
173483.975,222.227,-596.08,0,0
173744.3,221.746,-594.695,0,0
174004.625,221.338,-593.325,0,0
174264.95,221.151,-591.966,0,0
174525.275,221.079,-590.695,0,0
174785.6,221.106,-589.429,0,0
175045.925,221.393,-588.378,0,0
175306.25,221.738,-587.445,0,0
175566.575,222.216,-586.871,0,0
175826.9,222.515,-586.73,0,0
176087.225,222.302,-586.821,0,0
176347.55,221.645,-586.578,0,0
176607.875,221.115,-585.965,0,0
176868.2,220.73,-585.493,0,0
177128.525,220.209,-585.187,0,0
177388.85,219.311,-584.684,0,0
177649.175,218.569,-583.797,0,0
177909.5,218.056,-582.964,0,0
178169.825,217.525,-582.255,0,0
178430.15,216.967,-581.578,0,0
178690.475,216.432,-580.867,0,0
178950.8,215.877,-580.294,0,0
179211.125,215.144,-579.793,0,0
179471.45,214.195,-579.268,0,0
179731.775,213.289,-578.572,0,0
179992.1,212.423,-578.165,0,0
180252.425,211.155,-577.941,0,0
180512.75,209.172,-577.325,0,0
180773.075,207.149,-576.029,0,0
181033.4,205.462,-574.39,0,0
181293.725,203.928,-572.735,0,0
181554.05,202.404,-570.854,0,0
181814.375,201.176,-568.923,0,0
182074.7,200.069,-567.158,0,0
182335.025,198.77,-565.486,0,0
182595.35,197.201,-563.729,0,0
182855.675,195.464,-561.587,0,0
183116.0,193.828,-559.115,0,0
183376.325,192.314,-556.337,0,0
183636.65,191.024,-553.328,0,0
183896.975,190.038,-550.185,0,0
184157.3,189.243,-546.969,0,0
184417.625,188.751,-543.746,0,0
184677.95,188.38,-540.627,0,0
184938.275,188.076,-537.554,0,0
185198.6,187.827,-534.379,0,0
185458.925,187.737,-531.102,0,0
185719.25,187.947,-527.951,0,0
185979.575,188.216,-524.952,0,0
186239.9,188.502,-521.975,0,0
186500,188.829,-519.15,0,0
186761,189.193,-516.328,0,0
187021,189.264,-513.515,0,0
187281,189.585,-510.482,0,0
187542,190.056,-507.509,0,0
187802,190.502,-504.628,0,0
188062,190.909,-501.787,0,0
188322,191.164,-498.866,0,0
188583,191.494,-495.72,0,0
188843,192.022,-492.356,0,0
189103,192.651,-489.1,0,0
189364,193.369,-485.735,0,0
189624,194.332,-482.335,0,0
189884,195.405,-478.988,0,0
190145,196.714,-475.727,0,0
190405,197.897,-472.65,0,0
190665,199.16,-469.544,0,0
190926,200.482,-466.549,0,0
191186,201.737,-463.451,0,0
191446,202.904,-460.355,0,0
191707,204.196,-457.118,0,0
191967,205.671,-453.762,0,0
192227,207.303,-450.562,0,0
192488,209.046,-447.459,0,0
192748,210.645,-444.503,0,0
193008,212.117,-441.422,0,0
193269,213.662,-438.145,0,0
193529,215.27,-434.72,0,0
193789,217.185,-431.319,0,0
194050,219.167,-427.905,0,0
194310,221.204,-424.622,0,0
194570,223.182,-421.242,0,0
194831,225.257,-417.757,0,0
195091,227.595,-414.089,0,0
195351,230.018,-410.546,0,0
195612,232.606,-407.047,0,0
195872,235.241,-403.466,0,0
196132,237.985,-399.904,0,0
196393,240.936,-396.292,0,0
196653,243.918,-392.646,0,0
196913,247.257,-388.922,0,0
197174,250.83,-385.155,0,0
197434,254.632,-381.793,0,0
197694,258.55,-378.576,0,0
197955,262.355,-375.438,0,0
198215,266.418,-372.322,0,0
198475,270.538,-369.378,0,0
198735,274.599,-366.629,0,0
198996,278.521,-363.845,0,0
199256,282.434,-360.914,0,0
199516,286.388,-357.786,0,0
199777,290.593,-354.618,0,0
200037,294.884,-351.285,0,0
200297,299.456,-347.85,0,0
200558,304.237,-344.311,0,0
200818,309.453,-340.609,0,0
201078,315.003,-336.979,0,0
201339,321.099,-333.382,0,0
201599,327.676,-329.902,0,0
201859,334.668,-326.841,0,0
202120,341.916,-324.074,0,0
202380.025,349.433,-321.605,0,0
202640.35,357.231,-319.369,0,0
202900.675,365.217,-317.512,0,0
203161.0,373.481,-315.86,0,0
203421.325,382.025,-314.553,0,0
203681.65,390.922,-313.48,0,0
203941.975,400.077,-312.759,0,0
204202.3,409.732,-312.39,0,0
204462.625,419.989,-312.701,0,0
204722.95,430.808,-314.035,0,0
204983.275,441.583,-316.495,0,0
205243.6,452.17,-320.246,0,0
205503.925,462.1,-324.672,0,0
205764.25,471.532,-329.888,0,0
206024.575,480.4,-335.675,0,0
206284.9,488.683,-341.844,0,0
206545.225,496.456,-348.304,0,0
206805.55,503.942,-355.226,0,0
207065.875,510.851,-362.843,0,0
207326.2,516.832,-370.881,0,0
207586.525,521.965,-379.043,0,0
207846.85,526.271,-387.02,0,0
208107.175,530.201,-394.702,0,0
208367.5,533.944,-402.53,0,0
208627.825,537.195,-410.766,0,0
208888.15,539.602,-419.23,0,0
209148.475,541.063,-427.561,0,0
209408.8,541.736,-435.661,0,0
209669.125,541.51,-443.188,0,0
209929.45,540.735,-450.047,0,0
210189.775,539.618,-456.235,0,0
210450.1,538.251,-461.753,0,0
210710.425,536.817,-466.671,0,0
210970.75,535.369,-471.156,0,0
211231.075,533.642,-475.198,0,0
211491.4,531.84,-478.42,0,0
211751.725,530.24,-480.902,0,0
212012.05,528.903,-482.995,0,0
212272.375,527.884,-484.22,0,0
212532.7,527.693,-484.842,0,0
212793.025,528.549,-485.338,0,0
213053.35,530.257,-486.292,0,0
213313.675,532.283,-487.892,0,0
213574.0,534.27,-489.97,0,0
213834.325,536.074,-492.284,0,0
214094.65,537.804,-494.45,0,0
214354.975,539.749,-496.479,0,0
214615.3,542.109,-498.715,0,0
214875.625,544.452,-501.551,0,0
215135.95,546.594,-504.585,0,0
215396.275,548.564,-507.725,0,0
215656.6,550.354,-510.928,0,0
215916.925,552.035,-514.171,0,0
216177.25,553.26,-517.343,0,0
216437.575,554.274,-519.941,0,0
216697.9,555.579,-521.93,0,0
216958.225,557.546,-523.649,0,0
217218.55,560.222,-525.395,0,0
217478.875,563.613,-527.576,0,0
217739.2,567.253,-530.56,0,0
217999.525,570.627,-534.195,0,0
218259.85,573.603,-538.147,0,0
218520,576.259,-541.941,0,0
218780,578.904,-545.649,0,0
219041,581.825,-549.224,0,0
219301,585.026,-552.955,0,0
219561,588.577,-556.872,0,0
219822,592.22,-561.194,0,0
220082,595.98,-565.999,0,0
220342,599.533,-571.05,0,0
220603,603.312,-576.195,0,0
220863,607.354,-581.741,0,0
221123,611.728,-588.236,0,0
221384,615.74,-595.556,0,0
221644,619.191,-603.506,0,0
221904,621.933,-611.775,0,0
222165,624.445,-620.348,0,0
222425,626.563,-629.145,0,0
222685,628.024,-638.212,0,0
222946,629.059,-647.613,0,0
223206,629.846,-656.93,0,0
223466,630.235,-666.489,0,0
223727,630.105,-676.357,0,0
223987,629.377,-686.341,0,0
224247,627.881,-696.448,0,0
224508,626.023,-706.32,0,0
224768,623.817,-716.013,0,0
225028,621.502,-725.92,0,0
225289,618.519,-735.939,0,0
225549,614.811,-746.37,0,0
225809,610.306,-756.405,0,0
226070,605.217,-766.171,0,0
226330,599.576,-775.755,0,0
226590,593.398,-784.85,0,0
226851,586.834,-793.635,0,0
227111,579.949,-802.229,0,0
227371,572.384,-810.606,0,0
227632,564.175,-818.53,0,0
227892,555.475,-825.865,0,0
228152,546.205,-832.434,0,0
228413,536.692,-838.257,0,0
228673,527.152,-843.219,0,0
228933,517.695,-847.484,0,0
229193,508.414,-851.181,0,0
229454,499.084,-854.559,0,0
229714,489.604,-857.456,0,0
229974,480.567,-859.944,0,0
230235,471.302,-861.755,0,0
230495,462.283,-863.146,0,0
230755,453.377,-863.947,0,0
231016,444.791,-864.236,0,0
231276,436.463,-864.285,0,0
231536,428.425,-863.866,0,0
231797,420.806,-863.123,0,0
232057,413.689,-862.06,0,0
232317,407.116,-860.87,0,0
232578,400.893,-859.877,0,0
232838,394.993,-858.989,0,0
233098,389.041,-858.297,0,0
233359,383.132,-857.565,0,0
233619,377.157,-856.558,0,0
233879,371.515,-855.335,0,0
234140,366.125,-854.103,0,0
234400,360.855,-853.107,0,0
234660.3,355.629,-851.774,0,0
234920.625,350.553,-850.476,0,0
235180.95,345.955,-849.366,0,0
235441.275,341.21,-848.244,0,0
235701.6,336.461,-847.12,0,0
235961.925,331.593,-846.045,0,0
236222.25,326.688,-844.725,0,0
236482.575,322.116,-843.286,0,0
236742.9,317.703,-841.711,0,0
237003.225,313.512,-840.307,0,0
237263.55,309.353,-839.063,0,0
237523.875,305.124,-837.884,0,0
237784.2,300.905,-836.696,0,0
238044.525,296.594,-835.494,0,0
238304.85,292.363,-834.247,0,0
238565.175,287.933,-833.114,0,0
238825.5,283.361,-831.679,0,0
239085.825,278.749,-830.198,0,0
239346.15,274.186,-828.449,0,0
239606.475,269.55,-826.407,0,0
239866.8,265.221,-824.183,0,0
240127.125,260.948,-821.683,0,0
240387.45,257.037,-819.183,0,0
240647.775,253.304,-816.616,0,0
240908.1,249.728,-813.967,0,0
241168.425,246.369,-811.378,0,0
241428.75,243.175,-808.988,0,0
241689.075,240.001,-806.498,0,0
241949.4,236.835,-804.06,0,0
242209.725,233.794,-801.573,0,0
242470.05,230.903,-799.057,0,0
242730.375,228.099,-796.558,0,0
242990.7,225.37,-794.052,0,0
243251.025,222.774,-791.635,0,0
243511.35,220.259,-789.186,0,0
243771.675,217.819,-786.798,0,0
244032.0,215.507,-784.571,0,0
244292.325,213.086,-782.366,0,0
244552.65,210.724,-780.279,0,0
244812.975,208.235,-778.11,0,0
245073.3,205.78,-775.939,0,0
245333.625,203.374,-773.765,0,0
245593.95,201.056,-771.511,0,0
245854.275,198.711,-769.283,0,0
246114.6,196.331,-767.126,0,0
246374.925,193.978,-764.73,0,0
246635.25,191.577,-762.365,0,0
246895.575,189.292,-759.846,0,0
247155.9,187.143,-757.302,0,0
247416.225,185.111,-754.772,0,0
247676.55,183.088,-752.264,0,0
247936.875,181.226,-749.741,0,0
248197.2,179.4,-747.179,0,0
248457.525,177.587,-744.671,0,0
248717.85,175.918,-742.151,0,0
248978.175,174.163,-739.67,0,0
249238.5,172.573,-737.197,0,0
249498.825,171.011,-734.648,0,0
249759.15,169.567,-732.167,0,0
250019.475,168.07,-729.829,0,0
250279.8,166.717,-727.394,0,0
250540,165.216,-725.013,0,0
250800,163.808,-722.619,0,0
251061,162.412,-720.186,0,0
251321,161.073,-717.751,0,0
251581,159.794,-715.37,0,0
251842,158.506,-712.924,0,0
252102,157.287,-710.487,0,0
252362,156.039,-708.051,0,0
252623,154.872,-705.575,0,0
252883,153.722,-703.08,0,0
253143,152.655,-700.592,0,0
253404,151.597,-698.113,0,0
253664,150.503,-695.555,0,0
253924,149.554,-692.976,0,0
254185,148.629,-690.32,0,0
254445,147.918,-687.646,0,0
254705,147.221,-685.034,0,0
254966,146.733,-682.265,0,0
255226,146.129,-679.732,0,0
255486,145.752,-677.246,0,0
255747,145.443,-674.826,0,0
256007,145.042,-672.416,0,0
256267,144.751,-670.075,0,0
256528,144.395,-667.747,0,0
256788,144.092,-665.374,0,0
257048,143.819,-662.996,0,0
257309,143.599,-660.593,0,0
257569,143.428,-658.191,0,0
257829,143.324,-655.772,0,0
258090,143.288,-653.351,0,0
258350,143.37,-650.94,0,0
258610,143.542,-648.572,0,0
258871,143.8,-646.22,0,0
259131,144.09,-643.891,0,0
259391,144.6,-641.574,0,0
259651,145.084,-639.49,0,0
259912,145.692,-637.344,0,0
260172,146.382,-635.306,0,0
260432,147.009,-633.313,0,0
260693,147.783,-631.404,0,0
260953,148.602,-629.608,0,0
261213,149.452,-627.787,0,0
261474,150.372,-626.175,0,0
261734,151.301,-624.621,0,0
261994,152.254,-623.149,0,0
262255,153.145,-621.775,0,0
262515,154.078,-620.444,0,0
262775,154.986,-619.087,0,0
263036,155.972,-617.785,0,0
263296,157.048,-616.542,0,0
263556,158.204,-615.383,0,0
263817,159.451,-614.359,0,0
264077,160.772,-613.384,0,0
264337,162.046,-612.63,0,0
264598,163.398,-611.971,0,0
264858,164.741,-611.509,0,0
265118,166.236,-611.13,0,0
265379,167.539,-611.135,0,0
265639,168.888,-611.147,0,0
265899,170.15,-611.383,0,0
266160,171.321,-611.841,0,0
266420,172.376,-612.444,0,0
266680.25,173.321,-613.273,0,0
266940.575,174.079,-614.255,0,0
267200.9,174.678,-615.467,0,0
267461.225,174.971,-616.831,0,0
267721.55,174.968,-618.294,0,0
267981.875,174.599,-619.788,0,0
268242.2,173.894,-621.31,0,0
268502.525,172.879,-622.675,0,0
268762.85,171.52,-623.935,0,0
269023.175,169.855,-624.945,0,0
269283.5,168.043,-625.722,0,0
269543.825,166.014,-626.17,0,0
269804.15,163.931,-626.298,0,0
270064.475,161.737,-626.203,0,0
270324.8,159.612,-625.8,0,0
270585.125,157.485,-625.17,0,0
270845.45,155.502,-624.217,0,0
271105.775,153.603,-623.128,0,0
271366.1,151.868,-621.9,0,0
271626.425,150.156,-620.481,0,0
271886.75,148.678,-618.913,0,0
272147.075,147.337,-617.295,0,0
272407.4,146.194,-615.589,0,0
272667.725,145.168,-613.858,0,0
272928.05,144.278,-612.125,0,0
273188.375,143.524,-610.377,0,0
273448.7,142.883,-608.604,0,0
273709.025,142.39,-606.87,0,0
273969.35,142.009,-605.184,0,0
274229.675,141.704,-603.569,0,0
274490.0,141.476,-601.983,0,0
274750.325,141.276,-600.454,0,0
275010.65,141.161,-598.968,0,0
275270.975,141.063,-597.348,0,0
275531.3,141.056,-595.956,0,0
275791.625,141.077,-594.547,0,0
276051.95,141.139,-593.131,0,0
276312.275,141.251,-591.7,0,0
276572.6,141.498,-590.319,0,0
276832.925,141.825,-589.005,0,0
277093.25,142.241,-587.795,0,0
277353.575,142.685,-586.675,0,0
277613.9,143.181,-585.682,0,0
277874.225,143.668,-584.794,0,0
278134.55,144.158,-584.011,0,0
278394.875,144.586,-583.265,0,0
278655.2,145.033,-582.57,0,0
278915.525,145.515,-581.994,0,0
279175.85,145.985,-581.526,0,0
279436.175,146.422,-581.149,0,0
279696.5,146.768,-580.898,0,0
279956.825,146.952,-580.707,0,0
280217.15,147.037,-580.579,0,0
280477.475,147.057,-580.465,0,0
280737.8,146.96,-580.342,0,0
280998.125,146.784,-580.153,0,0
281258.45,146.553,-579.926,0,0
281518.775,146.303,-579.728,0,0
281779.1,145.988,-579.452,0,0
282039.425,145.665,-579.142,0,0
282299.75,145.338,-578.897,0,0
282560,144.97,-578.642,0,0
282820,144.488,-578.415,0,0
283081,143.906,-578.141,0,0
283341,143.243,-577.737,0,0
283601,142.583,-577.222,0,0
283862,141.954,-576.639,0,0
284122,141.4,-576.022,0,0
284382,140.836,-575.42,0,0
284643,140.271,-574.878,0,0
284903,139.673,-574.337,0,0
285163,139.015,-573.77,0,0
285424,138.25,-573.105,0,0
285684,137.464,-572.363,0,0
285944,136.678,-571.556,0,0
286205,135.924,-570.727,0,0
286465,135.081,-569.875,0,0
286725,134.17,-568.89,0,0
286986,133.203,-567.746,0,0
287246,132.295,-566.372,0,0
287506,131.491,-564.823,0,0
287767,130.878,-563.159,0,0
288027,130.403,-561.391,0,0
288287,130.136,-559.633,0,0
288548,130.011,-557.739,0,0
288808,130.153,-555.831,0,0
289068,130.535,-554.013,0,0
289329,131.16,-552.36,0,0
289589,131.909,-550.917,0,0
289849,132.744,-549.731,0,0
290109,133.611,-548.749,0,0
290370,134.429,-547.998,0,0
290630,135.133,-547.417,0,0
290890,135.712,-547,0,0
291151,136.084,-546.66,0,0
291411,136.318,-546.353,0,0
291671,136.383,-545.999,0,0
291932,136.354,-545.589,0,0
292192,136.226,-545.127,0,0
292452,136.011,-544.585,0,0
292713,135.727,-543.943,0,0
292973,135.386,-543.212,0,0
293233,135.024,-542.297,0,0
293494,134.722,-541.245,0,0
293754,134.482,-540.115,0,0
294014,134.346,-538.887,0,0
294275,134.283,-537.557,0,0
294535,134.349,-536.218,0,0
294795,134.51,-534.871,0,0
295056,134.732,-533.497,0,0
295316,135.066,-532.069,0,0
295576,135.546,-530.627,0,0
295837,136.168,-529.199,0,0
296097,136.918,-527.848,0,0
296357,137.799,-526.608,0,0
296618,138.738,-525.493,0,0
296878,139.718,-524.513,0,0
297138,140.694,-523.606,0,0
297399,141.65,-522.774,0,0
297659,142.583,-521.968,0,0
297919,143.575,-521.173,0,0
298180,144.605,-520.439,0,0
298440,145.648,-519.769,0,0
298700.2,146.769,-519.117,0,0
298960.525,147.736,-518.6,0,0
299220.85,148.945,-518.121,0,0
299481.175,149.989,-517.68,0,0
299741.5,151.065,-517.395,0,0
300001.825,152.131,-517.111,0,0
300262.15,153.148,-516.862,0,0
300522.475,154.079,-516.545,0,0
300782.8,155.131,-516.297,0,0
301043.125,156.159,-516.033,0,0
301303.45,157.322,-515.682,0,0
301563.775,158.541,-515.548,0,0
301824.1,159.927,-515.445,0,0
302084.425,161.196,-515.461,0,0
302344.75,162.532,-515.581,0,0
302605.075,163.781,-515.914,0,0
302865.4,165.149,-516.353,0,0
303125.725,166.305,-516.841,0,0
303386.05,167.445,-517.412,0,0
303646.375,168.45,-518.019,0,0
303906.7,169.58,-518.762,0,0
304167.025,170.599,-519.52,0,0
304427.35,171.509,-520.454,0,0
304687.675,172.196,-521.417,0,0
304948.0,172.899,-522.381,0,0
305208.325,173.435,-523.174,0,0
305468.65,174.004,-523.972,0,0
305728.975,174.648,-524.746,0,0
305989.3,175.3,-525.597,0,0
306249.625,176.051,-526.455,0,0
306509.95,176.722,-527.44,0,0
306770.275,177.34,-528.656,0,0
307030.6,177.915,-529.906,0,0
307290.925,178.367,-531.256,0,0
307551.25,178.643,-532.581,0,0
307811.575,178.89,-534.015,0,0
308071.9,179.002,-535.411,0,0
308332.225,178.983,-536.944,0,0
308592.55,178.918,-538.371,0,0
308852.875,178.71,-539.844,0,0
309113.2,178.456,-541.21,0,0
309373.525,177.986,-542.626,0,0
309633.85,177.603,-543.885,0,0
309894.175,177.133,-545.081,0,0
310154.5,176.641,-546.328,0,0
310414.825,176.148,-547.741,0,0
310675.15,175.454,-549.093,0,0
310935.475,174.761,-550.436,0,0
311195.8,173.973,-551.853,0,0
311456.125,173.041,-553.059,0,0
311716.45,172.033,-554.411,0,0
311976.775,170.914,-555.675,0,0
312237.1,169.647,-556.858,0,0
312497.425,168.31,-557.9,0,0
312757.75,166.946,-558.884,0,0
313018.075,165.497,-559.735,0,0
313278.4,164.126,-560.501,0,0
313538.725,162.665,-561.208,0,0
313799.05,161.221,-561.789,0,0
314059.375,159.775,-562.42,0,0
314319.7,158.32,-562.886,0,0
314580,156.826,-563.282,0,0
314840,155.463,-563.758,0,0
315101,154.048,-564.003,0,0
315361,152.587,-564.394,0,0
315621,151.301,-564.842,0,0
315882,149.793,-565.148,0,0
316142,148.309,-565.47,0,0
316402,146.766,-565.778,0,0
316663,145.192,-566.036,0,0
316923,143.558,-566.217,0,0
317183,141.778,-566.251,0,0
317444,140.046,-566.256,0,0
317704,138.502,-566.095,0,0
317964,136.745,-565.855,0,0
318225,135.136,-565.707,0,0
318485,133.455,-565.359,0,0
318745,131.993,-564.968,0,0
319006,130.54,-564.549,0,0
319266,128.918,-564.15,0,0
319526,127.406,-563.694,0,0
319787,125.882,-563.216,0,0
320047,124.343,-562.585,0,0
320307,122.833,-562.039,0,0
320567,121.38,-561.322,0,0
320828,119.921,-560.621,0,0
321088,118.552,-559.884,0,0
321348,117.139,-559.007,0,0
321609,115.834,-558.144,0,0
321869,114.43,-557.307,0,0
322129,113.141,-556.289,0,0
322390,112.005,-555.247,0,0
322650,110.816,-554.178,0,0
322910,109.737,-553.093,0,0
323171,108.599,-551.862,0,0
323431,107.663,-550.712,0,0
323691,106.86,-549.497,0,0
323952,106.093,-548.32,0,0
324212,105.348,-547.092,0,0
324472,104.683,-545.882,0,0
324733,104.136,-544.798,0,0
324993,103.725,-543.629,0,0
325253,103.228,-542.591,0,0
325514,102.868,-541.563,0,0
325774,102.523,-540.585,0,0
326034,102.184,-539.649,0,0
326295,101.884,-538.713,0,0
326555,101.665,-537.807,0,0
326815,101.439,-537.016,0,0
327076,101.223,-536.211,0,0
327336,100.994,-535.51,0,0
327596,100.804,-534.79,0,0
327857,100.581,-534.193,0,0
328117,100.342,-533.568,0,0
328377,100.145,-533.058,0,0
328638,99.9696,-532.585,0,0
328898,99.6397,-532.037,0,0
329158,99.3895,-531.527,0,0
329419,99.1008,-531.117,0,0
329679,98.8728,-530.768,0,0
329939,98.5412,-530.341,0,0
330200,98.2033,-529.927,0,0
330460,97.8308,-529.683,0,0
330720.15,97.4804,-529.385,0,0
330980.475,97.0401,-529.061,0,0
331240.8,96.5949,-528.787,0,0
331501.125,96.0981,-528.47,0,0
331761.45,95.6362,-528.229,0,0
332021.775,95.1004,-527.931,0,0
332282.1,94.5188,-527.715,0,0
332542.425,93.8005,-527.358,0,0
332802.75,93.1624,-527.063,0,0
333063.075,92.4466,-526.752,0,0
333323.4,91.7526,-526.348,0,0
333583.725,91.0253,-525.898,0,0
333844.05,90.195,-525.529,0,0
334104.375,89.5463,-524.982,0,0
334364.7,88.7424,-524.591,0,0
334625.025,88.0158,-524.087,0,0
334885.35,87.2121,-523.53,0,0
335145.675,86.4195,-522.941,0,0
335406.0,85.68,-522.464,0,0
335666.325,84.9032,-521.795,0,0
335926.65,84.1426,-521.186,0,0
336186.975,83.4335,-520.504,0,0
336447.3,82.6661,-519.862,0,0
336707.625,81.9409,-519.145,0,0
336967.95,81.198,-518.474,0,0
337228.275,80.5253,-517.712,0,0
337488.6,79.8557,-516.891,0,0
337748.925,79.169,-516.186,0,0
338009.25,78.4728,-515.473,0,0
338269.575,77.7653,-514.718,0,0
338529.9,77.1567,-513.866,0,0
338790.225,76.5541,-513.04,0,0
339050.55,75.9055,-512.285,0,0
339310.875,75.322,-511.386,0,0
339571.2,74.7039,-510.573,0,0
339831.525,74.133,-509.728,0,0
340091.85,73.5521,-508.854,0,0
340352.175,73.0113,-508.001,0,0
340612.5,72.4909,-507.042,0,0
340872.825,72.0151,-506.179,0,0
341133.15,71.5843,-505.319,0,0
341393.475,71.088,-504.442,0,0
341653.8,70.781,-503.58,0,0
341914.125,70.2915,-502.739,0,0
342174.45,69.9097,-501.83,0,0
342434.775,69.5745,-501.113,0,0
342695.1,69.1378,-500.312,0,0
342955.425,68.7151,-499.518,0,0
343215.75,68.3487,-498.706,0,0
343476.075,67.8731,-497.957,0,0
343736.4,67.4623,-497.172,0,0
343996.725,66.9564,-496.408,0,0
344257.05,66.6091,-495.565,0,0
344517.375,66.1804,-494.76,0,0
344777.7,65.7273,-493.93,0,0
345038.025,65.3028,-493.067,0,0
345298.35,64.8655,-492.201,0,0
345558.675,64.4113,-491.335,0,0
345819.0,63.9593,-490.413,0,0
346079.325,63.6368,-489.555,0,0
346339.65,63.2693,-488.628,0,0
346599.975,62.8207,-487.696,0,0
346860,62.5281,-486.779,0,0
347121,62.1892,-485.932,0,0
347381,61.8183,-485.007,0,0
347641,61.5514,-484.097,0,0
347902,61.2687,-483.086,0,0
348162,60.9807,-482.18,0,0
348422,60.7011,-481.246,0,0
348683,60.4545,-480.272,0,0
348943,60.2454,-479.336,0,0
349203,59.9759,-478.389,0,0
349464,59.8001,-477.428,0,0
349724,59.6355,-476.547,0,0
349984,59.4769,-475.554,0,0
350245,59.3204,-474.58,0,0
350505,59.2392,-473.732,0,0
350765,59.0471,-472.822,0,0
351025,59.0318,-471.973,0,0
351286,58.943,-471.094,0,0
351546,58.852,-470.273,0,0
351806,58.7632,-469.498,0,0
352067,58.6689,-468.601,0,0
352327,58.5605,-467.826,0,0
352587,58.4748,-467.014,0,0
352848,58.3497,-466.186,0,0
353108,58.1691,-465.401,0,0
353368,58.1115,-464.576,0,0
353629,57.9763,-463.747,0,0
353889,57.8999,-462.931,0,0
354149,57.8247,-462.063,0,0
354410,57.7483,-461.241,0,0
354670,57.6533,-460.413,0,0
354930,57.5668,-459.589,0,0
355191,57.5231,-458.679,0,0
355451,57.4862,-457.833,0,0
355711,57.5112,-457.006,0,0
355972,57.4718,-456.16,0,0
356232,57.4863,-455.318,0,0
356492,57.518,-454.532,0,0
356753,57.5616,-453.721,0,0
357013,57.6044,-452.94,0,0
357273,57.6345,-452.22,0,0
357534,57.6863,-451.452,0,0
357794,57.7218,-450.68,0,0
358054,57.7336,-449.958,0,0
358315,57.7541,-449.228,0,0
358575,57.7474,-448.491,0,0
358835,57.7941,-447.758,0,0
359096,57.8197,-447.04,0,0
359356,57.793,-446.335,0,0
359616,57.8179,-445.567,0,0
359877,57.8634,-444.817,0,0
360137,57.9465,-444.064,0,0
360397,57.9631,-443.324,0,0
360658,58.1162,-442.605,0,0
360918,58.1519,-441.881,0,0
361178,58.2034,-441.182,0,0
361438,58.3226,-440.516,0,0
361699,58.3815,-439.85,0,0
361959,58.4252,-439.2,0,0
362219,58.5021,-438.556,0,0
362480,58.5519,-437.875,0,0
362740.1,58.5765,-437.198,0,0
363000.425,58.6166,-436.523,0,0
363260.75,58.6316,-435.826,0,0
363521.075,58.6684,-435.111,0,0
363781.4,58.7246,-434.446,0,0
364041.725,58.7909,-433.739,0,0
364302.05,58.8287,-432.997,0,0
364562.375,58.8919,-432.352,0,0
364822.7,58.9031,-431.609,0,0
365083.025,59.0023,-430.977,0,0
365343.35,59.059,-430.208,0,0
365603.675,59.085,-429.515,0,0
365864.0,59.1794,-428.854,0,0
366124.325,59.2489,-428.062,0,0
366384.65,59.3405,-427.379,0,0
366644.975,59.4244,-426.654,0,0
366905.3,59.4768,-425.959,0,0
367165.625,59.543,-425.199,0,0
367425.95,59.6072,-424.475,0,0
367686.275,59.6498,-423.681,0,0
367946.6,59.6929,-422.88,0,0
368206.925,59.7639,-422.01,0,0
368467.25,59.844,-421.157,0,0
368727.575,60.0405,-420.242,0,0
368987.9,60.2613,-419.262,0,0
369248.225,60.5439,-418.323,0,0
369508.55,60.8715,-417.363,0,0
369768.875,61.2061,-416.459,0,0
370029.2,61.6609,-415.551,0,0
370289.525,62.1682,-414.636,0,0
370549.85,62.7101,-413.795,0,0
370810.175,63.2497,-413.02,0,0
371070.5,63.9056,-412.267,0,0
371330.825,64.5399,-411.607,0,0
371591.15,65.1319,-410.946,0,0
371851.475,65.8139,-410.316,0,0
372111.8,66.4663,-409.734,0,0
372372.125,67.1433,-409.19,0,0
372632.45,67.8339,-408.722,0,0
372892.775,68.5383,-408.337,0,0
373153.1,69.1762,-407.892,0,0
373413.425,69.9018,-407.557,0,0
373673.75,70.54,-407.293,0,0
373934.075,71.1822,-406.998,0,0
374194.4,71.8455,-406.813,0,0
374454.725,72.4522,-406.603,0,0
374715.05,73.0137,-406.48,0,0
374975.375,73.5671,-406.365,0,0
375235.7,74.0596,-406.271,0,0
375496.025,74.5244,-406.189,0,0
375756.35,74.9513,-406.13,0,0
376016.675,75.3328,-406.066,0,0
376277.0,75.746,-405.988,0,0
376537.325,76.1481,-405.876,0,0
376797.65,76.503,-405.768,0,0
377057.975,76.8848,-405.658,0,0
377318.3,77.2308,-405.548,0,0
377578.625,77.6395,-405.494,0,0
377838.95,78.0133,-405.419,0,0
378099.275,78.415,-405.414,0,0
378359.6,78.7517,-405.414,0,0
378619.925,79.107,-405.364,0,0
378880,79.4335,-405.444,0,0
379141,79.7429,-405.481,0,0
379401,80.0236,-405.504,0,0
379661,80.281,-405.473,0,0
379922,80.5414,-405.494,0,0
380182,80.8279,-405.523,0,0
380442,81.1267,-405.583,0,0
380703,81.4693,-405.541,0,0
380963,81.8268,-405.629,0,0
381223,82.1634,-405.786,0,0
381483,82.5427,-405.961,0,0
381744,82.8349,-406.195,0,0
382004,83.1571,-406.539,0,0
382264,83.4001,-406.916,0,0
382525,83.558,-407.331,0,0
382785,83.6391,-407.763,0,0
383045,83.6894,-408.234,0,0
383306,83.6436,-408.705,0,0
383566,83.5023,-409.164,0,0
383826,83.3563,-409.623,0,0
384087,83.0758,-410.099,0,0
384347,82.7216,-410.444,0,0
384607,82.2994,-410.789,0,0
384868,81.8923,-411.067,0,0
385128,81.4705,-411.318,0,0
385388,81.0215,-411.506,0,0
385649,80.4817,-411.689,0,0
385909,79.9711,-411.829,0,0
386169,79.4445,-411.964,0,0
386430,78.8875,-412.034,0,0
386690,78.2822,-412.103,0,0
386950,77.6708,-412.07,0,0
387211,76.9613,-411.987,0,0
387471,76.3189,-411.823,0,0
387731,75.7043,-411.606,0,0
387992,75.099,-411.293,0,0
388252,74.4892,-411.025,0,0
388512,73.9809,-410.589,0,0
388773,73.5091,-410.223,0,0
389033,73.0492,-409.787,0,0
389293,72.6376,-409.406,0,0
389554,72.2896,-408.899,0,0
389814,71.942,-408.485,0,0
390074,71.6418,-408.126,0,0
390335,71.366,-407.698,0,0
390595,71.1562,-407.355,0,0
390855,70.9491,-407.009,0,0
391116,70.6609,-406.769,0,0
391376,70.431,-406.447,0,0
391636,70.1418,-406.216,0,0
391896,69.8637,-405.972,0,0
392157,69.5704,-405.705,0,0
392417,69.2058,-405.456,0,0
392677,68.8606,-405.255,0,0
392938,68.4475,-405.005,0,0
393198,68.0102,-404.795,0,0
393458,67.5375,-404.53,0,0
393719,67.0349,-404.163,0,0
393979,66.5227,-403.799,0,0
394239,66.0385,-403.416,0,0
394500,65.5177,-403.019,0,0
394760.05,64.997,-402.535,0,0
395020.375,64.4903,-402.004,0,0
395280.7,64.0093,-401.481,0,0
395541.025,63.5432,-400.949,0,0
395801.35,63.0658,-400.345,0,0
396061.675,62.677,-399.748,0,0
396322.0,62.2497,-399.126,0,0
396582.325,61.8573,-398.449,0,0
396842.65,61.4977,-397.804,0,0
397102.975,61.1393,-397.149,0,0
397363.3,60.7992,-396.445,0,0
397623.625,60.4957,-395.775,0,0
397883.95,60.223,-395.067,0,0
398144.275,59.9453,-394.359,0,0
398404.6,59.6826,-393.642,0,0
398664.925,59.413,-392.932,0,0
398925.25,59.2088,-392.242,0,0
399185.575,59.0183,-391.491,0,0
399445.9,58.866,-390.801,0,0
399706.225,58.6796,-390.049,0,0
399966.55,58.4881,-389.351,0,0
400006.6,58.4817,-389.215,0,0