File: Accelerated corrosion test data/2025-10-04_18-00-03/sample_4.csv
Frequency (Hz),Impedance (ohms),Phase (Radians),Temperature (C),Humidity (%)
10000.0,263.763,-11848.4,0,0
10260.325,260.333,-11550.2,0,0
10520.65,250.347,-11267.9,0,0
10780.975,244.961,-10997.6,0,0
11041.3,240.086,-10739.8,0,0
11301.625,234.239,-10497.3,0,0
11561.95,228.972,-10261.7,0,0
11822.275,224.093,-10037,0,0
12082.6,219.649,-9822.46,0,0
12342.925,215.373,-9616.48,0,0
12603.25,213.064,-9417.3,0,0
12863.575,208.696,-9231,0,0
13123.9,208.436,-9051.59,0,0
13384.225,199.934,-8874.76,0,0
13644.55,196.034,-8704.12,0,0
13904.875,193.643,-8538.67,0,0
14165.2,194.777,-8375.53,0,0
14425.525,199.829,-8225.47,0,0
14685.8,203.311,-8115.16,0,0
14946.175,182.521,-7959.75,0,0
15206.5,181.83,-7816.26,0,0
15466.825,188.339,-7672.16,0,0
15727.15,189.255,-7575.84,0,0
15987.5,187.924,-7454.72,0,0
16247.8,170.912,-7329.72,0,0
16508.125,186.747,-7199.47,0,0
16768.45,179.174,-7103.45,0,0
17028.775,171.483,-7013.68,0,0
17289.1,160.709,-6901,0,0
17549.425,159.439,-6796.9,0,0
17809.75,156.11,-6695.31,0,0
18070.075,152.444,-6597.33,0,0
18330.4,153.035,-6501.53,0,0
18590.725,153.695,-6412.87,0,0
18851.05,150.491,-6329.69,0,0
19111.375,145.392,-6240.2,0,0
19371.7,143.204,-6154.9,0,0
19632.025,141.956,-6071.1,0,0
19892.35,144.063,-5990.17,0,0
20152.675,143.831,-5913.48,0,0
20413.0,141.592,-5841.25,0,0
20673.3,140.881,-5765.7,0,0
20933.65,137.613,-5693.13,0,0
21193.975,140.154,-5617.92,0,0
21454.3,152.256,-5552.48,0,0
21714.625,145.897,-5495.41,0,0
21974.9,149.115,-5425.41,0,0
22235.275,148.508,-5379.4,0,0
22495.6,136.123,-5323.58,0,0
22755.925,128.819,-5258.59,0,0
23016.25,125.627,-5196.89,0,0
23276.6,123.318,-5136.81,0,0
23536.9,121.385,-5079.24,0,0
23797.225,119.397,-5022.78,0,0
24057.55,117.685,-4967.21,0,0
24317.875,116.688,-4912.57,0,0
24578.2,114.7,-4859.68,0,0
24838.525,114.885,-4807.91,0,0
25098.85,114.658,-4756.92,0,0
25359.175,113.286,-4709.31,0,0
25619.5,112.078,-4660.53,0,0
25879.8,111.43,-4616.12,0,0
26140.1,108.637,-4567.93,0,0
26400.5,107.696,-4520.96,0,0
26660.8,106.813,-4475.24,0,0
26921.1,106.976,-4431.13,0,0
27181.4,106.093,-4386.37,0,0
27441.8,106.168,-4341.78,0,0
27702.1,109.429,-4298.08,0,0
27962.4,117.537,-4257.18,0,0
28222.7,119.663,-4226.02,0,0
28483.1,115.476,-4194.47,0,0
28743.4,110.683,-4154.33,0,0
29003.7,111.281,-4112.67,0,0
29264,117.418,-4079.42,0,0
29524.4,112.668,-4049.76,0,0
29784.7,109.429,-4017.42,0,0
30045,107.622,-3982.41,0,0
30305.3,102.119,-3948.35,0,0
30565.7,100.316,-3912.53,0,0
30826,99.6874,-3877.58,0,0
31086.3,98.7903,-3844.46,0,0
31346.6,99.3016,-3810.99,0,0
31607,98.6819,-3780.57,0,0
31867.3,97.5631,-3749.77,0,0
32127.6,99.2818,-3718,0,0
32387.9,98.6771,-3691.88,0,0
32648.3,97.3173,-3661.7,0,0
32908.6,95.4163,-3635.28,0,0
33168.9,92.7446,-3606.14,0,0
33429.2,90.2968,-3577.5,0,0
33689.6,88.8944,-3548.69,0,0
33949.9,87.7307,-3520.23,0,0
34210.2,87.971,-3492.36,0,0
34470.5,86.5818,-3466.6,0,0
34730.9,85.4498,-3439.79,0,0
34991.2,84.9726,-3413.12,0,0
35251.5,84.1328,-3387.29,0,0
35511.8,83.6527,-3361.86,0,0
35772.2,83.217,-3336.73,0,0
36032.5,82.0331,-3312.29,0,0
36292.8,81.2358,-3287.44,0,0
36553.1,81.1576,-3263,0,0
36813.5,80.7477,-3239.35,0,0
37073.8,81.3149,-3216.15,0,0
37334.1,80.155,-3194.02,0,0
37594.4,79.2846,-3170.69,0,0
37854.8,79.3728,-3148.43,0,0
38115.1,78.5766,-3126.54,0,0
38375.4,77.7406,-3104.47,0,0
38635.7,77.3167,-3082.21,0,0
38896.1,77.6688,-3060.43,0,0
39156.4,77.4172,-3039.97,0,0
39416.7,76.7762,-3018.96,0,0
39677,76.5382,-2997.65,0,0
39937.4,76.9865,-2976.88,0,0
40197.7,78.6212,-2956.08,0,0
40458,80.8419,-2937.56,0,0
40718.3,79.9258,-2920.73,0,0
40978.7,79.2387,-2900.91,0,0
41239,79.5418,-2882.01,0,0
41499.3,82.7432,-2864.84,0,0
41759.6,80.0148,-2849.81,0,0
42020,78.0938,-2831.58,0,0
42280.275,76.9303,-2812.37,0,0
42540.6,78.9823,-2794.6,0,0
42800.925,78.0197,-2780.26,0,0
43061.25,75.6407,-2762.16,0,0
43321.575,76.0863,-2745.14,0,0
43581.9,74.7424,-2728.81,0,0
43842.225,74.1565,-2711.07,0,0
44102.55,74.2678,-2695.79,0,0
44362.875,72.4493,-2678.86,0,0
44623.2,72.4876,-2661.91,0,0
44883.525,72.4159,-2646.29,0,0
45143.85,71.6191,-2630.42,0,0
45404.175,70.8745,-2614.25,0,0
45664.5,71.5795,-2597.24,0,0
45924.825,72.7269,-2582.73,0,0
46185.15,72.7167,-2569.73,0,0
46445.475,70.6525,-2553.73,0,0
46705.8,71.5389,-2538.63,0,0
46966.125,71.7064,-2524.46,0,0
47226.45,71.8064,-2510.25,0,0
47486.775,71.5433,-2497.72,0,0
47747.1,70.3731,-2483.79,0,0
48007.425,69.6717,-2469.7,0,0
48267.75,68.6913,-2456.39,0,0
48528.075,68.1353,-2442.26,0,0
48788.4,67.3506,-2428.51,0,0
49048.725,66.4596,-2414.89,0,0
49309.05,66.1927,-2400.62,0,0
49569.375,65.8377,-2387.79,0,0
49829.7,65.2688,-2373.89,0,0
50090.025,65.3302,-2360.73,0,0
50350.35,64.5352,-2347.7,0,0
50610.675,64.6961,-2334.57,0,0
50871.0,64.3638,-2321.56,0,0
51131.325,64.0541,-2308.74,0,0
51391.65,63.8574,-2295.7,0,0
51651.975,64.0754,-2282.72,0,0
51912.3,64.2669,-2270.29,0,0
52172.625,64.5997,-2257.59,0,0
52432.95,64.6689,-2245.46,0,0
52693.275,64.7731,-2232.67,0,0
52953.6,65.946,-2220.07,0,0
53213.925,66.8687,-2208.63,0,0
53474.25,67.9583,-2196.63,0,0
53734.575,69.2675,-2184.78,0,0
53994.9,71.7902,-2173.51,0,0
54255.225,73.7972,-2164.09,0,0
54515.55,76.0308,-2155.11,0,0
54775.875,76.5142,-2147.99,0,0
55036.2,74.3787,-2139.78,0,0
55296.525,73.4509,-2129.68,0,0
55556.85,72.1168,-2120.61,0,0
55817.175,70.54,-2110.41,0,0
56077.5,69.0132,-2100.53,0,0
56337.825,67.4643,-2089.71,0,0
56598.15,66.2486,-2078.47,0,0
56858.475,65.9358,-2067.35,0,0
57118.8,65.846,-2056.31,0,0
57379.125,66.2592,-2045.55,0,0
57639.45,66.4018,-2035.36,0,0
57899.775,66.6912,-2025.34,0,0
58160.1,66.8443,-2015.06,0,0
58420.4,67.578,-2004.66,0,0
58680.7,68.2539,-1995.61,0,0
58941.1,67.7454,-1985.28,0,0
59201.4,68.9516,-1974.54,0,0
59461.7,71.0789,-1964.41,0,0
59722,73.6899,-1955.64,0,0
59982.4,76.1428,-1947.94,0,0
60242.7,77.2692,-1941.15,0,0
60503,78.2127,-1933.49,0,0
60763.3,80.3691,-1926.77,0,0
61023.7,80.882,-1922.94,0,0
61284,78.6845,-1918.03,0,0
61544.3,74.8616,-1911.91,0,0
61804.6,71.5887,-1902.59,0,0
62065,69.8803,-1893.63,0,0
62325.3,68.8431,-1885.07,0,0
62585.6,66.472,-1876.82,0,0
62845.9,65.1142,-1866.38,0,0
63106.3,64.7169,-1857.41,0,0
63366.6,64.7025,-1848.01,0,0
63626.9,64.8279,-1839.25,0,0
63887.2,64.8502,-1831.28,0,0
64147.6,63.6298,-1822.88,0,0
64407.9,63.7216,-1813.43,0,0
64668.2,64.5479,-1804.57,0,0
64928.5,65.2441,-1796.74,0,0
65188.9,65.2334,-1788.88,0,0
65449.2,65.7005,-1780.82,0,0
65709.5,65.8165,-1773.01,0,0
65969.8,66.5144,-1764.49,0,0
66230.2,67.6303,-1757.15,0,0
66490.5,68.2901,-1749.9,0,0
66750.8,68.9936,-1742.68,0,0
67011.1,69.5891,-1735.47,0,0
67271.5,70.538,-1728.41,0,0
67531.8,71.6836,-1721.87,0,0
67792.1,72.5645,-1715.8,0,0
68052.4,73.3906,-1710.17,0,0
68312.8,73.7185,-1704.52,0,0
68573.1,73.9358,-1699.51,0,0
68833.4,73.3229,-1694.69,0,0
69093.7,71.62,-1689.77,0,0
69354.1,69.6315,-1683.64,0,0
69614.4,67.6363,-1676.99,0,0
69874.7,66.4258,-1669.44,0,0
70135,65.8749,-1662.59,0,0
70395.4,64.7003,-1655.62,0,0
70655.7,64.1554,-1647.62,0,0
70916,65.398,-1640.83,0,0
71176.3,65.4351,-1635.52,0,0
71436.7,64.3485,-1629.56,0,0
71697,63.8352,-1623.55,0,0
71957.3,62.7038,-1617.81,0,0
72217.6,60.788,-1611.51,0,0
72478,59.3529,-1604.24,0,0
72738.3,58.4334,-1596.89,0,0
72998.6,57.7358,-1589.68,0,0
73258.9,57.1169,-1581.93,0,0
73519.3,57.5018,-1574.48,0,0
73779.6,57.7592,-1567.61,0,0
74039.9,58.231,-1560.67,0,0
74300.225,58.6972,-1554.26,0,0
74560.55,58.994,-1547.74,0,0
74820.875,59.5021,-1541.42,0,0
75081.2,59.8749,-1534.98,0,0
75341.525,60.7442,-1528.94,0,0
75601.85,61.2191,-1523.27,0,0
75862.175,61.5138,-1517.48,0,0
76122.5,61.8753,-1511.67,0,0
76382.825,62.411,-1506.14,0,0
76643.15,62.4015,-1500.85,0,0
76903.475,62.2079,-1494.83,0,0
77163.8,62.8833,-1488.45,0,0
77424.125,64.3215,-1483.07,0,0
77684.45,65.1535,-1478.45,0,0
77944.775,65.6483,-1473.98,0,0
78205.1,65.628,-1469.66,0,0
78465.425,65.3857,-1465.21,0,0
78725.75,64.8828,-1460.69,0,0
78986.075,64.0903,-1455.97,0,0
79246.4,63.2299,-1451,0,0
79506.725,62.389,-1445.66,0,0
79767.05,61.7778,-1440.17,0,0
80027.375,61.3847,-1434.71,0,0
80287.7,61.0436,-1429.24,0,0
80548.025,60.8259,-1423.82,0,0
80808.35,60.7238,-1418.49,0,0
81068.675,60.6608,-1413.25,0,0
81329.0,60.6013,-1408.24,0,0
81589.325,60.4744,-1403.26,0,0
81849.65,60.2666,-1398.33,0,0
82109.975,59.9622,-1393.32,0,0
82370.3,59.6717,-1388.29,0,0
82630.625,59.4241,-1383.28,0,0
82890.95,59.1813,-1378.26,0,0
83151.275,58.9437,-1373.34,0,0
83411.6,58.6369,-1368.38,0,0
83671.925,58.4305,-1363.37,0,0
83932.25,58.1913,-1358.37,0,0
84192.575,58.0099,-1353.5,0,0
84452.9,57.8591,-1348.58,0,0
84713.225,57.6122,-1343.69,0,0
84973.55,57.4303,-1338.74,0,0
85233.875,57.3602,-1333.95,0,0
85494.2,57.243,-1329.18,0,0
85754.525,57.0669,-1324.47,0,0
86014.85,56.8171,-1319.72,0,0
86275.175,56.7187,-1314.89,0,0
86535.5,56.6533,-1310.24,0,0
86795.825,56.5607,-1305.66,0,0
87056.15,56.333,-1301.09,0,0
87316.475,56.1539,-1296.47,0,0
87576.8,55.9912,-1291.96,0,0
87837.125,55.6937,-1287.61,0,0
88097.45,55.2061,-1283.19,0,0
88357.775,54.5131,-1278.45,0,0
88618.1,54.0228,-1273.47,0,0
88878.425,53.8915,-1268.51,0,0
89138.75,53.7536,-1263.66,0,0
89399.075,53.7131,-1258.78,0,0
89659.4,53.7065,-1254.16,0,0
89919.725,53.7563,-1249.45,0,0
90180,53.6961,-1244.97,0,0
90440.4,53.6852,-1240.36,0,0
90700.7,53.6516,-1235.81,0,0
90961,53.5869,-1231.22,0,0
91221.3,53.5595,-1226.62,0,0
91481.7,53.5681,-1222.05,0,0
91742,53.6663,-1217.39,0,0
92002.3,53.896,-1212.83,0,0
92262.6,54.2415,-1208.36,0,0
92523,54.5485,-1204.06,0,0
92783.3,54.8894,-1199.91,0,0
93043.6,55.149,-1195.96,0,0
93303.9,55.2422,-1192.13,0,0
93564.3,55.1274,-1188.18,0,0
93824.6,54.9767,-1184.2,0,0
94084.9,54.6223,-1180.28,0,0
94345.2,54.1934,-1176.07,0,0
94605.6,53.8178,-1171.76,0,0
94865.9,53.5027,-1167.35,0,0
95126.2,53.2975,-1162.82,0,0
95386.5,53.1579,-1158.39,0,0
95646.9,53.1468,-1153.88,0,0
95907.2,53.1919,-1149.35,0,0
96167.5,53.3593,-1144.94,0,0
96427.8,53.5479,-1140.6,0,0
96688.2,53.7514,-1136.32,0,0
96948.5,53.9092,-1132.08,0,0
97208.8,54.0485,-1127.78,0,0
97469.1,54.2988,-1123.49,0,0
97729.5,54.4704,-1119.33,0,0
97989.8,54.6133,-1115.03,0,0
98250.1,54.9623,-1110.73,0,0
98510.4,55.2819,-1106.5,0,0
98770.8,55.6106,-1102.24,0,0
99031.1,56.028,-1097.9,0,0
99291.4,56.6385,-1093.7,0,0
99551.7,57.3723,-1089.68,0,0
99812.1,57.8553,-1085.78,0,0
100072,58.3069,-1081.72,0,0
100333,59.0721,-1077.53,0,0
100593,60.1268,-1073.68,0,0
100853,61.2853,-1070.31,0,0
101114,62.0131,-1067.24,0,0
101374,62.5556,-1064.13,0,0
101634,63.0892,-1061.37,0,0
101895,63.0698,-1058.91,0,0
102155,62.2208,-1056.21,0,0
102415,61.08,-1052.75,0,0
102676,60.1795,-1048.81,0,0
102936,59.2999,-1044.7,0,0
103196,58.5829,-1040.12,0,0
103457,58.1681,-1035.32,0,0
103717,58.129,-1030.32,0,0
103977,58.4828,-1025.35,0,0
104238,59.149,-1020.58,0,0
104498,59.8146,-1015.95,0,0
104758,60.6324,-1011.33,0,0
105019,61.749,-1006.73,0,0
105279,63.0605,-1002.46,0,0
105539,64.2751,-998.349,0,0
105800,65.4972,-994.3,0,0
106060,66.7817,-990.343,0,0
106320.175,68.1623,-986.51,0,0
106580.5,69.4539,-982.733,0,0
106840.825,70.8959,-979.076,0,0
107101.15,72.1936,-975.633,0,0
107361.475,73.4108,-972.094,0,0
107621.8,74.6735,-968.541,0,0
107882.125,76.0084,-964.921,0,0
108142.45,77.4773,-961.344,0,0
108402.775,79.1425,-957.869,0,0
108663.1,80.9015,-954.612,0,0
108923.425,82.6836,-951.561,0,0
109183.75,84.4408,-948.683,0,0
109444.075,86.1586,-945.952,0,0
109704.4,87.8269,-943.446,0,0
109964.725,89.2908,-940.989,0,0
110225.05,90.6662,-938.6,0,0
110485.375,92.0254,-936.211,0,0
110745.7,93.455,-933.949,0,0
111006.025,94.5678,-931.639,0,0
111266.35,95.8185,-929.344,0,0
111526.675,97.0452,-927.284,0,0
111787.0,98.1228,-925.041,0,0
112047.325,99.2953,-922.897,0,0
112307.65,100.46,-920.802,0,0
112567.975,101.59,-918.895,0,0
112828.3,102.524,-917.006,0,0
113088.625,103.488,-915.149,0,0
113348.95,104.333,-913.412,0,0
113609.275,105.167,-911.71,0,0
113869.6,105.893,-910.009,0,0
114129.925,106.502,-908.301,0,0
114390.25,107.093,-906.67,0,0
114650.575,107.613,-905.017,0,0
114910.9,108.095,-903.338,0,0
115171.225,108.512,-901.754,0,0
115431.55,108.827,-900.359,0,0
115691.875,108.977,-898.826,0,0
115952.2,108.959,-897.274,0,0
116212.525,108.94,-895.595,0,0
116472.85,108.853,-893.975,0,0
116733.175,108.596,-892.378,0,0
116993.5,108.196,-890.626,0,0
117253.825,107.794,-888.613,0,0
117514.15,107.383,-886.54,0,0
117774.475,106.931,-884.419,0,0
118034.8,106.482,-882.011,0,0
118295.125,106.143,-879.411,0,0
118555.45,105.995,-876.674,0,0
118815.775,106.225,-873.793,0,0
119076.1,106.749,-870.978,0,0
119336.425,107.592,-868.283,0,0
119596.75,108.939,-865.917,0,0
119857.075,110.491,-864.337,0,0
120117.4,111.808,-863.458,0,0
120377.725,112.558,-863.284,0,0
120638.05,112.491,-863.212,0,0
120898.375,111.575,-863.111,0,0
121158.7,110.081,-862.313,0,0
121419.025,108.5,-860.93,0,0
121679.35,106.955,-859.194,0,0
121939.675,105.55,-857.129,0,0
122200.0,104.279,-854.916,0,0
122460,103.081,-852.545,0,0
122721,102.014,-850.003,0,0
122981,101.195,-847.346,0,0
123241,100.496,-844.846,0,0
123502,99.7783,-842.33,0,0
123762,99.1516,-839.82,0,0
124022,98.5174,-837.307,0,0
124283,97.9746,-834.821,0,0
124543,97.3897,-832.355,0,0
124803,96.7715,-829.857,0,0
125064,96.2581,-827.245,0,0
125324,95.8684,-824.768,0,0
125584,95.3992,-822.328,0,0
125845,94.9931,-819.901,0,0
126105,94.643,-817.499,0,0
126365,94.2792,-815.36,0,0
126626,93.6897,-813.384,0,0
126886,92.8113,-811.318,0,0
127146,91.9366,-808.943,0,0
127406,90.9847,-806.535,0,0
127667,90.0852,-804.063,0,0
127927,89.3042,-801.668,0,0
128187,88.317,-799.385,0,0
128448,87.0854,-796.932,0,0
128708,85.8052,-794.306,0,0
128968,84.606,-791.525,0,0
129229,83.2783,-788.687,0,0
129489,81.9218,-785.608,0,0
129749,80.6474,-782.341,0,0
130010,79.5441,-778.929,0,0
130270,78.4774,-775.441,0,0
130530,77.6,-771.875,0,0
130791,76.7804,-768.316,0,0
131051,76.0007,-764.739,0,0
131311,75.2397,-761.035,0,0
131572,74.6788,-757.258,0,0
131832,74.2549,-753.52,0,0
132092,73.8576,-749.866,0,0
132353,73.443,-746.133,0,0
132613,73.1341,-742.333,0,0
132873,72.9371,-738.539,0,0
133134,72.8009,-734.792,0,0
133394,72.7004,-731.054,0,0
133654,72.602,-727.3,0,0
133915,72.5988,-723.515,0,0
134175,72.6543,-719.677,0,0
134435,72.8323,-715.877,0,0
134696,73.0092,-712.147,0,0
134956,73.2591,-708.369,0,0
135216,73.5537,-704.624,0,0
135477,73.9468,-700.896,0,0
135737,74.4731,-697.168,0,0
135997,74.9434,-693.584,0,0
136258,75.4462,-690.096,0,0
136518,75.9068,-686.487,0,0
136778,76.4467,-682.89,0,0
137039,77.0894,-679.333,0,0
137299,77.7525,-676.001,0,0
137559,78.2451,-672.73,0,0
137819,78.6386,-669.396,0,0
138080,78.975,-665.991,0,0
138340.125,79.2646,-662.469,0,0
138600.45,79.6323,-658.809,0,0
138860.775,80.0741,-655.12,0,0
139121.1,80.5676,-651.374,0,0
139381.425,81.1257,-647.581,0,0
139641.75,81.8357,-643.789,0,0
139902.075,82.5502,-640.025,0,0
140162.4,83.3214,-636.233,0,0
140422.725,84.1414,-632.389,0,0
140683.05,85.0746,-628.566,0,0
140943.375,86.0687,-624.716,0,0
141203.7,87.1922,-620.939,0,0
141464.025,88.3784,-617.226,0,0
141724.35,89.5494,-613.58,0,0
141984.675,90.728,-609.988,0,0
142245.0,91.8728,-606.353,0,0
142505.325,93.0869,-602.72,0,0
142765.65,94.3282,-599.099,0,0
143025.975,95.5588,-595.475,0,0
143286.3,96.8316,-591.805,0,0
143546.625,98.1504,-588.168,0,0
143806.95,99.4679,-584.494,0,0
144067.275,100.883,-580.801,0,0
144327.6,102.312,-577.122,0,0
144587.925,103.813,-573.409,0,0
144848.25,105.373,-569.697,0,0
145108.575,106.978,-565.976,0,0
145368.9,108.638,-562.294,0,0
145629.225,110.363,-558.558,0,0
145889.55,112.179,-554.844,0,0
146149.875,114.028,-551.158,0,0
146410.2,115.937,-547.45,0,0
146670.525,117.888,-543.712,0,0
146930.85,120.009,-540.03,0,0
147191.175,122.142,-536.446,0,0
147451.5,124.295,-532.826,0,0
147711.825,126.537,-529.212,0,0
147972.15,128.833,-525.678,0,0
148232.475,131.061,-522.117,0,0
148492.8,133.38,-518.438,0,0
148753.125,135.865,-514.734,0,0
149013.45,138.485,-511.061,0,0
149273.775,141.249,-507.464,0,0
149534.1,143.999,-503.89,0,0
149794.425,146.87,-500.261,0,0
150054.75,149.936,-496.688,0,0
150315.075,153.091,-493.184,0,0
150575.4,156.367,-489.735,0,0
150835.725,159.784,-486.313,0,0
151096.05,163.324,-482.942,0,0
151356.375,167.105,-479.639,0,0
151616.7,171.081,-476.566,0,0
151877.025,175.109,-473.716,0,0
152137.35,179.136,-470.994,0,0
152397.675,183.281,-468.28,0,0
152658.0,187.696,-465.711,0,0
152918.325,192.284,-463.51,0,0
153178.65,196.88,-461.675,0,0
153438.975,201.429,-460.115,0,0
153699.3,205.906,-458.845,0,0
153959.625,210.261,-457.874,0,0
154219.95,214.353,-457.151,0,0
154480,218.206,-456.472,0,0
154741,221.815,-455.961,0,0
155001,225.174,-455.47,0,0
155261,228.25,-454.536,0,0
155522,231.669,-453.481,0,0
155782,235.292,-452.643,0,0
156042,238.777,-452.142,0,0
156303,242.134,-451.727,0,0
156563,245.347,-451.438,0,0
156823,248.193,-451.245,0,0
157084,250.646,-450.725,0,0
157344,253.308,-449.784,0,0
157604,256.105,-448.874,0,0
157864,258.853,-447.903,0,0
158125,261.642,-446.501,0,0
158385,265.083,-444.955,0,0
158645,268.878,-443.817,0,0
158906,272.807,-442.717,0,0
159166,277.219,-441.995,0,0
159426,281.76,-441.91,0,0
159687,286.037,-442.19,0,0
159947,290.431,-442.807,0,0
160207,294.616,-444.232,0,0
160468,298.045,-445.859,0,0
160728,301.246,-447.577,0,0
160988,304.02,-449.438,0,0
161249,306.307,-451.46,0,0
161509,308.001,-453.553,0,0
161769,308.883,-455.158,0,0
162030,309.501,-456.09,0,0
162290,310.359,-456.553,0,0
162550,311.049,-456.755,0,0
162811,312.002,-456.617,0,0
163071,313.009,-456.292,0,0
163331,314.024,-455.751,0,0
163592,315.227,-455.108,0,0
163852,316.264,-454.152,0,0
164112,317.675,-452.765,0,0
164373,319.395,-451.071,0,0
164633,321.844,-449.351,0,0
164893,324.724,-447.817,0,0
165154,327.829,-446.644,0,0
165414,331.01,-445.712,0,0
165674,334.192,-444.847,0,0
165935,337.413,-443.874,0,0
166195,340.934,-442.752,0,0
166455,344.915,-441.562,0,0
166716,349.481,-440.524,0,0
166976,354.86,-439.954,0,0
167236,360.59,-440.144,0,0
167497,366.419,-440.919,0,0
167757,372.527,-442.462,0,0
168017,378.776,-444.859,0,0
168277,384.872,-448.317,0,0
168538,390.492,-452.753,0,0
168798,395.112,-457.701,0,0
169058,399.228,-462.831,0,0
169319,403.076,-468.277,0,0
169579,406.455,-474.338,0,0
169839,409.07,-480.769,0,0
170100,411.043,-487.397,0,0
170360.075,412.537,-494.245,0,0
170620.4,413.441,-501.759,0,0
170880.725,413.102,-509.872,0,0
171141.05,411.141,-517.842,0,0
171401.375,407.834,-525.151,0,0
171661.7,403.76,-531.425,0,0
171922.025,399.332,-537.019,0,0
172182.35,394.415,-542.077,0,0
172442.675,389.053,-546.546,0,0
172703.0,383.166,-550.474,0,0
172963.325,376.674,-553.683,0,0
173223.65,369.692,-555.773,0,0
173483.975,362.862,-556.725,0,0
173744.3,356.191,-556.914,0,0
174004.625,349.703,-556.294,0,0
174264.95,343.578,-555.106,0,0
174525.275,337.605,-553.395,0,0
174785.6,331.938,-550.905,0,0
175045.925,326.912,-547.915,0,0
175306.25,322.269,-544.843,0,0
175566.575,317.731,-541.398,0,0
175826.9,313.517,-537.409,0,0
176087.225,309.93,-533.015,0,0
176347.55,306.911,-528.49,0,0
176607.875,304.304,-523.893,0,0
176868.2,302.156,-519.186,0,0
177128.525,300.399,-514.478,0,0
177388.85,299.028,-509.747,0,0
177649.175,298.024,-505.017,0,0
177909.5,297.424,-500.377,0,0
178169.825,297.211,-495.981,0,0
178430.15,297.114,-491.894,0,0
178690.475,297.034,-487.883,0,0
178950.8,297.034,-483.849,0,0
179211.125,297.194,-479.875,0,0
179471.45,297.55,-475.957,0,0
179731.775,298.021,-472.063,0,0
179992.1,298.635,-468.213,0,0
180252.425,299.428,-464.61,0,0
180512.75,300.217,-461.126,0,0
180773.075,300.987,-457.751,0,0
181033.4,301.738,-454.399,0,0
181293.725,302.512,-451.021,0,0
181554.05,303.329,-447.724,0,0
181814.375,304.12,-444.443,0,0
182074.7,304.868,-441.185,0,0
182335.025,305.507,-437.893,0,0
182595.35,306.11,-434.452,0,0
182855.675,306.741,-430.911,0,0
183116.0,307.35,-427.288,0,0
183376.325,307.964,-423.455,0,0
183636.65,308.681,-419.422,0,0
183896.975,309.523,-415.231,0,0
184157.3,310.551,-410.9,0,0
184417.625,311.725,-406.472,0,0
184677.95,313.069,-401.946,0,0
184938.275,314.555,-397.379,0,0
185198.6,316.173,-392.686,0,0
185458.925,317.905,-387.889,0,0
185719.25,319.867,-382.959,0,0
185979.575,322.073,-377.919,0,0
186239.9,324.527,-372.831,0,0
186500,327.208,-367.777,0,0
186761,330.01,-362.613,0,0
187021,333.061,-357.515,0,0
187281,336.23,-352.357,0,0
187542,339.676,-347.024,0,0
187802,343.398,-341.733,0,0
188062,347.358,-336.303,0,0
188322,351.537,-330.826,0,0
188583,356.126,-325.484,0,0
188843,360.867,-320.041,0,0
189103,366.061,-314.578,0,0
189364,371.523,-309.223,0,0
189624,377.266,-303.964,0,0
189884,383.22,-298.683,0,0
190145,389.591,-293.318,0,0
190405,396.501,-288.129,0,0
190665,403.765,-283.193,0,0
190926,411.391,-278.405,0,0
191186,419.393,-273.878,0,0
191446,427.614,-269.578,0,0
191707,436.197,-265.472,0,0
191967,445.095,-261.606,0,0
192227,454.472,-258.096,0,0
192488,463.944,-254.956,0,0
192748,473.695,-252.138,0,0
193008,483.781,-249.687,0,0
193269,494.071,-247.569,0,0
193529,504.518,-245.806,0,0
193789,515.062,-244.592,0,0
194050,525.744,-243.611,0,0
194310,536.549,-242.837,0,0
194570,547.547,-242.424,0,0
194831,558.795,-242.355,0,0
195091,570.218,-242.714,0,0
195351,581.698,-243.518,0,0
195612,593.183,-244.579,0,0
195872,604.858,-245.902,0,0
196132,616.755,-247.525,0,0
196393,628.923,-249.529,0,0
196653,641.327,-251.909,0,0
196913,654.04,-254.692,0,0
197174,667.065,-257.951,0,0
197434,680.517,-261.86,0,0
197694,694.298,-266.534,0,0
197955,708.304,-272.168,0,0
198215,722.335,-278.788,0,0
198475,736.265,-286.277,0,0
198735,750.073,-294.617,0,0
198996,763.889,-303.84,0,0
199256,777.519,-314.188,0,0
199516,790.861,-325.732,0,0
199777,803.541,-338.614,0,0
200037,815.336,-352.377,0,0
200297,826.082,-366.978,0,0
200558,835.908,-382.187,0,0
200818,844.936,-398.027,0,0
201078,852.869,-414.377,0,0
201339,859.784,-431.388,0,0
201599,865.367,-448.674,0,0
201859,869.838,-466.063,0,0
202120,873.118,-483.527,0,0
202380.025,875.346,-500.827,0,0
202640.35,876.313,-518.002,0,0
202900.675,876.059,-534.624,0,0
203161.0,874.797,-550.423,0,0
203421.325,873.549,-565.108,0,0
203681.65,872.491,-579.82,0,0
203941.975,870.874,-594.726,0,0
204202.3,868.553,-609.417,0,0
204462.625,865.619,-624.168,0,0
204722.95,861.891,-638.407,0,0
204983.275,857.765,-651.738,0,0
205243.6,853.822,-665.21,0,0
205503.925,849.312,-678.739,0,0
205764.25,844.01,-691.968,0,0
206024.575,838.074,-704.539,0,0
206284.9,831.998,-716.7,0,0
206545.225,825.637,-728.342,0,0
206805.55,819.302,-739.719,0,0
207065.875,812.826,-751.132,0,0
207326.2,805.889,-762.836,0,0
207586.525,798.316,-774.516,0,0
207846.85,789.893,-786.052,0,0
208107.175,780.334,-797.318,0,0
208367.5,769.829,-807.757,0,0
208627.825,758.56,-817.159,0,0
208888.15,746.778,-825.421,0,0
209148.475,734.904,-832.416,0,0
209408.8,722.928,-838.452,0,0
209669.125,711.105,-843.305,0,0
209929.45,699.767,-847.402,0,0
210189.775,688.678,-850.551,0,0
210450.1,678.133,-853.203,0,0
210710.425,668.031,-855.325,0,0
210970.75,658.244,-857.289,0,0
211231.075,648.697,-858.718,0,0
211491.4,639.408,-859.696,0,0
211751.725,630.463,-860.234,0,0
212012.05,621.806,-860.326,0,0
212272.375,613.683,-859.954,0,0
212532.7,606.142,-859.333,0,0
212793.025,599.083,-858.549,0,0
213053.35,592.328,-857.641,0,0
213313.675,586.029,-856.774,0,0
213574.0,580.087,-855.645,0,0
213834.325,574.697,-854.077,0,0
214094.65,569.964,-852.655,0,0
214354.975,566.001,-851.325,0,0
214615.3,562.497,-850.357,0,0
214875.625,559.475,-849.798,0,0
215135.95,556.721,-850.007,0,0
215396.275,553.852,-850.563,0,0
215656.6,550.965,-851.534,0,0
215916.925,547.969,-852.918,0,0
216177.25,544.58,-854.415,0,0
216437.575,541.108,-856.106,0,0
216697.9,537.328,-857.941,0,0
216958.225,533.3,-859.627,0,0
217218.55,529.143,-861.174,0,0
217478.875,524.97,-862.701,0,0
217739.2,520.704,-864.148,0,0
217999.525,516.29,-865.662,0,0
218259.85,511.847,-866.814,0,0
218520,507.35,-868.003,0,0
218780,502.816,-868.978,0,0
219041,498.418,-869.721,0,0
219301,494.308,-870.37,0,0
219561,490.327,-871.272,0,0
219822,486.436,-872.43,0,0
220082,482.419,-873.607,0,0
220342,478.105,-874.827,0,0
220603,473.698,-876.176,0,0
220863,469.139,-877.392,0,0
221123,464.496,-878.397,0,0
221384,459.785,-879.306,0,0
221644,455.038,-880.171,0,0
221904,450.088,-880.976,0,0
222165,445.141,-881.574,0,0
222425,440.103,-881.909,0,0
222685,435.291,-881.91,0,0
222946,430.742,-881.909,0,0
223206,426.38,-882.092,0,0
223466,421.898,-882.253,0,0
223727,417.471,-882.484,0,0
223987,412.926,-882.765,0,0
224247,408.46,-882.983,0,0
224508,403.829,-883.166,0,0
224768,399.186,-883.526,0,0
225028,394.537,-883.84,0,0
225289,389.69,-884.135,0,0
225549,384.655,-884.424,0,0
225809,379.383,-884.684,0,0
226070,373.788,-884.7,0,0
226330,368.059,-884.448,0,0
226590,362.317,-883.863,0,0
226851,356.512,-882.902,0,0
227111,350.902,-881.725,0,0
227371,345.348,-880.411,0,0
227632,339.81,-878.997,0,0
227892,334.181,-877.448,0,0
228152,328.575,-875.734,0,0
228413,322.893,-873.621,0,0
228673,317.379,-871.18,0,0
228933,311.975,-868.418,0,0
229193,306.75,-865.46,0,0
229454,301.751,-862.252,0,0
229714,297.015,-858.802,0,0
229974,292.568,-855.253,0,0
230235,288.38,-851.592,0,0
230495,284.626,-847.86,0,0
230755,280.942,-844.067,0,0
231016,277.605,-840.362,0,0
231276,274.472,-836.665,0,0
231536,271.53,-833.059,0,0
231797,268.7,-829.569,0,0
232057,265.891,-826.106,0,0
232317,263.221,-822.604,0,0
232578,260.669,-819.076,0,0
232838,258.278,-815.544,0,0
233098,255.976,-812.012,0,0
233359,253.876,-808.442,0,0
233619,252.015,-804.968,0,0
233879,250.285,-801.621,0,0
234140,248.6,-798.372,0,0
234400,247.031,-795.201,0,0
234660.3,245.499,-792.021,0,0
234920.625,243.942,-788.845,0,0
235180.95,242.668,-785.813,0,0
235441.275,241.491,-782.756,0,0
235701.6,240.339,-779.878,0,0
235961.925,239.188,-777.185,0,0
236222.25,237.968,-774.466,0,0
236482.575,236.797,-771.756,0,0
236742.9,235.619,-768.983,0,0
237003.225,234.521,-766.185,0,0
237263.55,233.513,-763.321,0,0
237523.875,232.651,-760.522,0,0
237784.2,231.915,-757.72,0,0
238044.525,231.36,-754.914,0,0
238304.85,230.971,-752.269,0,0
238565.175,230.667,-749.727,0,0
238825.5,230.506,-747.461,0,0
239085.825,230.29,-745.37,0,0
239346.15,230.092,-743.288,0,0
239606.475,229.805,-741.336,0,0
239866.8,229.539,-739.478,0,0
240127.125,229.324,-737.842,0,0
240387.45,229.205,-736.12,0,0
240647.775,228.868,-734.628,0,0
240908.1,228.537,-733.171,0,0
241168.425,228.157,-731.843,0,0
241428.75,227.66,-730.504,0,0
241689.075,227.145,-729.245,0,0
241949.4,226.482,-728.008,0,0
242209.725,225.957,-726.798,0,0
242470.05,225.332,-725.567,0,0
242730.375,224.577,-724.467,0,0
242990.7,223.695,-723.376,0,0
243251.025,222.771,-722.204,0,0
243511.35,221.784,-720.996,0,0
243771.675,220.867,-719.873,0,0
244032.0,219.827,-718.732,0,0
244292.325,218.639,-717.574,0,0
244552.65,217.387,-716.401,0,0
244812.975,216,-715.084,0,0
245073.3,214.617,-713.644,0,0
245333.625,213.289,-712.025,0,0
245593.95,211.867,-710.38,0,0
245854.275,210.506,-708.616,0,0
246114.6,209.222,-706.713,0,0
246374.925,208.009,-704.668,0,0
246635.25,206.943,-702.606,0,0
246895.575,205.96,-700.519,0,0
247155.9,205.046,-698.393,0,0
247416.225,204.289,-696.224,0,0
247676.55,203.717,-694.093,0,0
247936.875,203.274,-692.06,0,0
248197.2,202.839,-690.209,0,0
248457.525,202.392,-688.395,0,0
248717.85,202.058,-686.749,0,0
248978.175,201.562,-685.019,0,0
249238.5,201.078,-683.495,0,0
249498.825,200.459,-681.91,0,0
249759.15,199.905,-680.267,0,0
250019.475,199.254,-678.74,0,0
250279.8,198.62,-677.092,0,0
250540,198,-675.32,0,0
250800,197.491,-673.73,0,0
251061,196.944,-672.201,0,0
251321,196.297,-670.766,0,0
251581,195.587,-669.341,0,0
251842,194.683,-667.98,0,0
252102,193.685,-666.508,0,0
252362,192.548,-664.953,0,0
252623,191.265,-663.266,0,0
252883,189.859,-661.391,0,0
253143,188.419,-659.213,0,0
253404,187.04,-656.761,0,0
253664,185.853,-654.043,0,0
253924,184.893,-651.232,0,0
254185,184.104,-648.414,0,0
254445,183.422,-645.561,0,0
254705,182.773,-642.625,0,0
254966,182.192,-639.681,0,0
255226,181.673,-636.562,0,0
255486,181.296,-633.313,0,0
255747,180.995,-629.957,0,0
256007,180.919,-626.465,0,0
256267,181.056,-622.859,0,0
256528,181.502,-619.181,0,0
256788,182.155,-615.543,0,0
257048,183.043,-611.936,0,0
257309,184.122,-608.426,0,0
257569,185.295,-604.903,0,0
257829,186.656,-601.355,0,0
258090,188.291,-597.85,0,0
258350,190.077,-594.405,0,0
258610,192.121,-591.003,0,0
258871,194.336,-587.592,0,0
259131,196.844,-584.237,0,0
259391,199.682,-580.984,0,0
259651,202.887,-577.919,0,0
259912,206.352,-575.18,0,0
260172,209.948,-572.759,0,0
260432,213.713,-570.611,0,0
260693,217.581,-568.692,0,0
260953,221.611,-567.074,0,0
261213,225.759,-565.761,0,0
261474,229.931,-564.796,0,0
261734,234.093,-564.167,0,0
261994,238.153,-563.84,0,0
262255,242.151,-563.652,0,0
262515,246.157,-563.653,0,0
262775,250.214,-563.831,0,0
263036,254.377,-564.24,0,0
263296,258.549,-564.993,0,0
263556,262.723,-566.117,0,0
263817,266.777,-567.51,0,0
264077,270.873,-569.706,0,0
264337,274.361,-571.761,0,0
264598,277.763,-573.91,0,0
264858,281.116,-576.272,0,0
265118,284.416,-578.811,0,0
265379,287.567,-581.704,0,0
265639,290.534,-584.874,0,0
265899,293.305,-588.193,0,0
266160,295.891,-591.845,0,0
266420,298.347,-595.906,0,0
266680.25,300.305,-600.271,0,0
266940.575,301.757,-604.887,0,0
267200.9,302.642,-609.598,0,0
267461.225,302.79,-614.28,0,0
267721.55,302.74,-618.536,0,0
267981.875,302.474,-622.697,0,0
268242.2,302.097,-626.795,0,0
268502.525,301.383,-630.944,0,0
268762.85,300.478,-635.036,0,0
269023.175,299.352,-639.193,0,0
269283.5,297.733,-643.42,0,0
269543.825,295.547,-647.551,0,0
269804.15,292.689,-651.388,0,0
270064.475,289.353,-654.548,0,0
270324.8,285.865,-656.873,0,0
270585.125,282.571,-658.599,0,0
270845.45,279.622,-659.81,0,0
271105.775,276.999,-660.789,0,0
271366.1,274.733,-661.609,0,0
271626.425,272.918,-662.406,0,0
271886.75,271.374,-663.417,0,0
272147.075,269.915,-664.765,0,0
272407.4,268.408,-666.323,0,0
272667.725,266.762,-668.079,0,0
272928.05,264.825,-669.995,0,0
273188.375,262.577,-671.781,0,0
273448.7,260.203,-673.469,0,0
273709.025,257.855,-675.044,0,0
273969.35,255.41,-676.697,0,0
274229.675,252.757,-678.338,0,0
274490.0,249.955,-680.032,0,0
274750.325,246.826,-681.623,0,0
275010.65,243.479,-683.128,0,0
275270.975,239.738,-684.482,0,0
275531.3,235.828,-685.402,0,0
275791.625,231.679,-686.069,0,0
276051.95,227.468,-686.34,0,0
276312.275,223.203,-686.204,0,0
276572.6,218.922,-685.727,0,0
276832.925,214.671,-684.826,0,0
277093.25,210.587,-683.545,0,0
277353.575,206.679,-681.991,0,0
277613.9,202.91,-680.155,0,0
277874.225,199.31,-677.989,0,0
278134.55,195.904,-675.463,0,0
278394.875,192.913,-672.686,0,0
278655.2,190.333,-669.72,0,0
278915.525,188.119,-666.621,0,0
279175.85,186.277,-663.478,0,0
279436.175,184.908,-660.262,0,0
279696.5,183.941,-657.256,0,0
279956.825,183.389,-654.377,0,0
280217.15,183.07,-651.857,0,0
280477.475,182.931,-649.666,0,0
280737.8,182.889,-647.762,0,0
280998.125,182.786,-646.148,0,0
281258.45,182.644,-644.708,0,0
281518.775,182.41,-643.453,0,0
281779.1,181.988,-642.289,0,0
282039.425,181.366,-641.074,0,0
282299.75,180.707,-639.723,0,0
282560,180.057,-638.18,0,0
282820,179.587,-636.46,0,0
283081,179.489,-634.7,0,0
283341,179.699,-633.12,0,0
283601,180.101,-631.863,0,0
283862,180.554,-631.025,0,0
284122,180.827,-630.479,0,0
284382,180.814,-630.181,0,0
284643,180.525,-629.869,0,0
284903,180.017,-629.517,0,0
285163,179.529,-628.977,0,0
285424,178.982,-628.486,0,0
285684,178.43,-628.009,0,0
285944,177.79,-627.612,0,0
286205,176.998,-627.239,0,0
286465,175.957,-626.85,0,0
286725,174.659,-626.295,0,0
286986,173.274,-625.425,0,0
287246,171.865,-624.345,0,0
287506,170.444,-623.03,0,0
287767,169.032,-621.424,0,0
288027,167.777,-619.546,0,0
288287,166.714,-617.428,0,0
288548,165.824,-615.106,0,0
288808,165.238,-612.584,0,0
289068,164.967,-609.861,0,0
289329,165.092,-607.047,0,0
289589,165.666,-604.247,0,0
289849,166.71,-601.546,0,0
290109,168.137,-599.071,0,0
290370,169.896,-596.852,0,0
290630,171.923,-594.978,0,0
290890,174.177,-593.463,0,0
291151,176.572,-592.337,0,0
291411,179.055,-591.596,0,0
291671,181.591,-591.28,0,0
291932,184.023,-591.33,0,0
292192,186.379,-591.719,0,0
292452,188.602,-592.405,0,0
292713,190.714,-593.348,0,0
292973,192.72,-594.54,0,0
293233,194.602,-596.072,0,0
293494,196.314,-597.966,0,0
293754,197.707,-600.198,0,0
294014,198.695,-602.678,0,0
294275,199.278,-605.248,0,0
294535,199.483,-607.921,0,0
294795,199.276,-610.612,0,0
295056,198.675,-613.321,0,0
295316,197.659,-615.919,0,0
295576,196.297,-618.343,0,0
295837,194.604,-620.547,0,0
296097,192.652,-622.477,0,0
296357,190.532,-624.108,0,0
296618,188.275,-625.482,0,0
296878,185.936,-626.534,0,0
297138,183.569,-627.364,0,0
297399,181.21,-627.891,0,0
297659,178.91,-628.208,0,0
297919,176.696,-628.345,0,0
298180,174.568,-628.318,0,0
298440,172.532,-628.171,0,0
298700.2,170.633,-627.924,0,0
298960.525,168.834,-627.658,0,0
299220.85,167.081,-627.384,0,0
299481.175,165.355,-627.06,0,0
299741.5,163.71,-626.725,0,0
300001.825,162.071,-626.333,0,0
300262.15,160.46,-625.977,0,0
300522.475,158.848,-625.596,0,0
300782.8,157.203,-625.181,0,0
301043.125,155.534,-624.754,0,0
301303.45,153.854,-624.227,0,0
301563.775,152.143,-623.626,0,0
301824.1,150.456,-622.933,0,0
302084.425,148.793,-622.143,0,0
302344.75,147.223,-621.262,0,0
302605.075,145.709,-620.316,0,0
302865.4,144.306,-619.357,0,0
303125.725,142.949,-618.418,0,0
303386.05,141.608,-617.466,0,0
303646.375,140.255,-616.492,0,0
303906.7,138.913,-615.455,0,0
304167.025,137.636,-614.319,0,0
304427.35,136.418,-613.176,0,0
304687.675,135.282,-611.988,0,0
304948.0,134.219,-610.781,0,0
305208.325,133.221,-609.59,0,0
305468.65,132.261,-608.355,0,0
305728.975,131.38,-607.102,0,0
305989.3,130.583,-605.864,0,0
306249.625,129.836,-604.651,0,0
306509.95,129.158,-603.437,0,0
306770.275,128.555,-602.259,0,0
307030.6,128.019,-601.125,0,0
307290.925,127.537,-600.052,0,0
307551.25,127.075,-599.027,0,0
307811.575,126.64,-598.065,0,0
308071.9,126.23,-597.158,0,0
308332.225,125.812,-596.324,0,0
308592.55,125.357,-595.543,0,0
308852.875,124.896,-594.78,0,0
309113.2,124.397,-594.023,0,0
309373.525,123.881,-593.303,0,0
309633.85,123.364,-592.597,0,0
309894.175,122.822,-591.895,0,0
310154.5,122.25,-591.187,0,0
310414.825,121.688,-590.503,0,0
310675.15,121.084,-589.825,0,0
310935.475,120.471,-589.187,0,0
311195.8,119.787,-588.496,0,0
311456.125,119.079,-587.776,0,0
311716.45,118.37,-587.035,0,0
311976.775,117.654,-586.205,0,0
312237.1,116.965,-585.353,0,0
312497.425,116.316,-584.465,0,0
312757.75,115.687,-583.551,0,0
313018.075,115.104,-582.618,0,0
313278.4,114.549,-581.671,0,0
313538.725,114.053,-580.745,0,0
313799.05,113.568,-579.804,0,0
314059.375,113.137,-578.893,0,0
314319.7,112.752,-577.982,0,0
314580,112.349,-577.073,0,0
314840,112.007,-576.204,0,0
315101,111.658,-575.308,0,0
315361,111.491,-574.484,0,0
315621,111.178,-573.722,0,0
315882,111.051,-572.936,0,0
316142,110.849,-572.25,0,0
316402,110.634,-571.598,0,0
316663,110.392,-571.053,0,0
316923,110.134,-570.399,0,0
317183,110.017,-569.873,0,0
317444,109.764,-569.462,0,0
317704,109.557,-568.957,0,0
317964,109.193,-568.637,0,0
318225,108.981,-568.311,0,0
318485,108.656,-568.057,0,0
318745,108.187,-567.679,0,0
319006,107.74,-567.46,0,0
319266,107.286,-567.272,0,0
319526,106.827,-566.941,0,0
319787,106.204,-566.795,0,0
320047,105.487,-566.6,0,0
320307,104.75,-566.399,0,0
320567,104.057,-566.256,0,0
320828,103.167,-566.099,0,0
321088,102.268,-565.971,0,0
321348,101.21,-565.717,0,0
321609,100.047,-565.538,0,0
321869,98.8712,-565.109,0,0
322129,97.4619,-564.723,0,0
322390,96.1662,-564.183,0,0
322650,94.7615,-563.513,0,0
322910,93.2285,-562.658,0,0
323171,91.7836,-561.657,0,0
323431,90.4271,-560.502,0,0
323691,89.1137,-559.181,0,0
323952,88.0206,-557.801,0,0
324212,86.9519,-556.341,0,0
324472,86.0321,-554.938,0,0
324733,85.2571,-553.424,0,0
324993,84.5826,-552.042,0,0
325253,83.9063,-550.571,0,0
325514,83.3215,-549.257,0,0
325774,82.6973,-547.961,0,0
326034,82.1966,-546.599,0,0
326295,81.6558,-545.333,0,0
326555,81.1539,-543.991,0,0
326815,80.6739,-542.66,0,0
327076,80.0968,-541.417,0,0
327336,79.6564,-539.99,0,0
327596,79.143,-538.63,0,0
327857,78.7706,-537.285,0,0
328117,78.4035,-535.908,0,0
328377,78.0833,-534.466,0,0
328638,77.7089,-533.113,0,0
328898,77.4856,-531.616,0,0
329158,77.3019,-530.163,0,0
329419,77.2195,-528.699,0,0
329679,77.22,-527.31,0,0
329939,77.2758,-525.829,0,0
330200,77.3223,-524.511,0,0
330460,77.5839,-523.285,0,0
330720.15,77.7818,-521.964,0,0
330980.475,78.041,-520.834,0,0
331240.8,78.3007,-519.77,0,0
331501.125,78.6108,-518.793,0,0
331761.45,78.8793,-517.897,0,0
332021.775,79.1478,-517.019,0,0
332282.1,79.4224,-516.201,0,0
332542.425,79.6176,-515.528,0,0
332802.75,79.8034,-514.779,0,0
333063.075,79.9732,-514.237,0,0
333323.4,80.0729,-513.59,0,0
333583.725,80.1329,-513.013,0,0
333844.05,80.0862,-512.441,0,0
334104.375,79.9197,-511.939,0,0
334364.7,79.7415,-511.321,0,0
334625.025,79.5292,-510.826,0,0
334885.35,79.265,-510.106,0,0
335145.675,78.9565,-509.424,0,0
335406.0,78.6492,-508.737,0,0
335666.325,78.3547,-508.032,0,0
335926.65,77.9941,-507.221,0,0
336186.975,77.5565,-506.369,0,0
336447.3,77.2545,-505.536,0,0
336707.625,76.8276,-504.642,0,0
336967.95,76.4792,-503.646,0,0
337228.275,76.1157,-502.59,0,0
337488.6,75.7985,-501.45,0,0
337748.925,75.4976,-500.331,0,0
338009.25,75.3132,-499.14,0,0
338269.575,75.0981,-497.906,0,0
338529.9,75.0223,-496.63,0,0
338790.225,74.9039,-495.435,0,0
339050.55,74.8966,-494.096,0,0
339310.875,74.9729,-492.73,0,0
339571.2,75.1282,-491.508,0,0
339831.525,75.3189,-490.278,0,0
340091.85,75.5759,-488.962,0,0
340352.175,75.8865,-487.753,0,0
340612.5,76.2259,-486.506,0,0
340872.825,76.6594,-485.281,0,0
341133.15,77.2139,-484.079,0,0
341393.475,77.757,-482.866,0,0
341653.8,78.4399,-481.775,0,0
341914.125,79.2078,-480.707,0,0
342174.45,79.9691,-479.728,0,0
342434.775,80.8885,-478.943,0,0
342695.1,81.7599,-478.163,0,0
342955.425,82.7245,-477.564,0,0
343215.75,83.594,-477.079,0,0
343476.075,84.5504,-476.753,0,0
343736.4,85.4034,-476.519,0,0
343996.725,86.1662,-476.369,0,0
344257.05,86.8676,-476.335,0,0
344517.375,87.4209,-476.351,0,0
344777.7,87.962,-476.406,0,0
345038.025,88.4146,-476.47,0,0
345298.35,88.7487,-476.662,0,0
345558.675,89.0469,-476.785,0,0
345819.0,89.1708,-476.835,0,0
346079.325,89.2383,-476.921,0,0
346339.65,89.2819,-477.05,0,0
346599.975,89.2658,-477.183,0,0
346860,89.2324,-477.197,0,0
347121,89.1236,-477.215,0,0
347381,88.9729,-477.243,0,0
347641,88.768,-477.221,0,0
347902,88.5638,-477.167,0,0
348162,88.2266,-477.082,0,0
348422,87.9667,-476.981,0,0
348683,87.5581,-476.84,0,0
348943,87.2062,-476.631,0,0
349203,86.8597,-476.387,0,0
349464,86.3983,-476.149,0,0
349724,85.9897,-475.816,0,0
349984,85.5002,-475.48,0,0
350245,85.129,-475.084,0,0
350505,84.7129,-474.662,0,0
350765,84.2901,-474.176,0,0
351025,83.8257,-473.652,0,0
351286,83.4621,-473.151,0,0
351546,83.0084,-472.552,0,0
351806,82.6144,-471.941,0,0
352067,82.2461,-471.312,0,0
352327,81.866,-470.599,0,0
352587,81.5347,-469.872,0,0
352848,81.2714,-469.133,0,0
353108,81.0273,-468.339,0,0
353368,80.8158,-467.456,0,0
353629,80.6483,-466.677,0,0
353889,80.6449,-465.837,0,0
354149,80.6434,-465.025,0,0
354410,80.6881,-464.342,0,0
354670,80.8237,-463.597,0,0
354930,80.976,-463.018,0,0
355191,81.1221,-462.419,0,0
355451,81.1864,-461.888,0,0
355711,81.2265,-461.482,0,0
355972,81.2174,-460.984,0,0
356232,81.1732,-460.562,0,0
356492,81.2108,-460.085,0,0
356753,81.1882,-459.664,0,0
357013,81.0952,-459.289,0,0
357273,81.0549,-458.879,0,0
357534,80.8957,-458.531,0,0
357794,80.6734,-458.16,0,0
358054,80.4324,-457.732,0,0
358315,80.1373,-457.32,0,0
358575,79.7991,-456.798,0,0
358835,79.3883,-456.22,0,0
359096,78.9699,-455.602,0,0
359356,78.6754,-454.864,0,0
359616,78.3323,-453.994,0,0
359877,78.1616,-453.174,0,0
360137,77.9721,-452.275,0,0
360397,77.8666,-451.394,0,0
360658,77.7326,-450.543,0,0
360918,77.7256,-449.697,0,0
361178,77.7713,-448.843,0,0
361438,77.8035,-448.076,0,0
361699,77.9135,-447.18,0,0
361959,78.0411,-446.323,0,0
362219,78.1332,-445.552,0,0
362480,78.3131,-444.762,0,0
362740.1,78.479,-444.017,0,0
363000.425,78.701,-443.298,0,0
363260.75,78.9277,-442.599,0,0
363521.075,79.2011,-441.971,0,0
363781.4,79.3854,-441.427,0,0
364041.725,79.6279,-440.856,0,0
364302.05,79.6794,-440.351,0,0
364562.375,79.7489,-439.885,0,0
364822.7,79.7779,-439.355,0,0
365083.025,79.7567,-438.793,0,0
365343.35,79.718,-438.201,0,0
365603.675,79.6413,-437.492,0,0
365864.0,79.5498,-436.772,0,0
366124.325,79.5705,-435.927,0,0
366384.65,79.5559,-435.081,0,0
366644.975,79.6615,-434.191,0,0
366905.3,79.7673,-433.258,0,0
367165.625,79.9418,-432.313,0,0
367425.95,80.1825,-431.335,0,0
367686.275,80.4888,-430.336,0,0
367946.6,80.85,-429.368,0,0
368206.925,81.3145,-428.366,0,0
368467.25,81.8743,-427.367,0,0
368727.575,82.5113,-426.471,0,0
368987.9,83.1844,-425.548,0,0
369248.225,83.9285,-424.729,0,0
369508.55,84.7283,-423.957,0,0
369768.875,85.5872,-423.232,0,0
370029.2,86.4539,-422.559,0,0
370289.525,87.4035,-421.974,0,0
370549.85,88.3945,-421.456,0,0
370810.175,89.4502,-420.98,0,0
371070.5,90.518,-420.604,0,0
371330.825,91.6289,-420.322,0,0
371591.15,92.788,-420.172,0,0
371851.475,93.9581,-420.215,0,0
372111.8,95.0509,-420.256,0,0
372372.125,96.179,-420.532,0,0
372632.45,97.2023,-420.949,0,0
372892.775,98.0987,-421.458,0,0
373153.1,98.9265,-422.057,0,0
373413.425,99.6247,-422.771,0,0
373673.75,100.159,-423.564,0,0
373934.075,100.496,-424.332,0,0
374194.4,100.708,-425.036,0,0
374454.725,100.81,-425.777,0,0
374715.05,100.802,-426.421,0,0
374975.375,100.739,-426.965,0,0
375235.7,100.605,-427.409,0,0
375496.025,100.474,-427.824,0,0
375756.35,100.262,-428.2,0,0
376016.675,100.125,-428.482,0,0
376277.0,99.9579,-428.78,0,0
376537.325,99.7528,-429.036,0,0
376797.65,99.5649,-429.286,0,0
377057.975,99.3527,-429.521,0,0
377318.3,99.1378,-429.776,0,0
377578.625,98.8697,-429.91,0,0
377838.95,98.6067,-430.085,0,0
378099.275,98.3572,-430.195,0,0
378359.6,98.0951,-430.346,0,0
378619.925,97.8235,-430.36,0,0
378880,97.6085,-430.423,0,0
379141,97.3942,-430.497,0,0
379401,97.0949,-430.534,0,0
379661,96.8426,-430.634,0,0
379922,96.583,-430.678,0,0
380182,96.3002,-430.738,0,0
380442,95.9826,-430.768,0,0
380703,95.7054,-430.767,0,0
380963,95.3666,-430.816,0,0
381223,94.99,-430.698,0,0
381483,94.6698,-430.623,0,0
381744,94.3619,-430.375,0,0
382004,94.1108,-430.212,0,0
382264,93.9835,-430.029,0,0
382525,93.9427,-429.785,0,0
382785,93.9952,-429.679,0,0
383045,94.0546,-429.684,0,0
383306,94.164,-429.802,0,0
383566,94.2692,-430.038,0,0
383826,94.3452,-430.455,0,0
384087,94.1707,-430.957,0,0
384347,93.8947,-431.572,0,0
384607,93.4805,-432.123,0,0
384868,92.841,-432.659,0,0
385128,92.1369,-433.139,0,0
385388,91.2484,-433.489,0,0
385649,90.385,-433.787,0,0
385909,89.4062,-434.029,0,0
386169,88.3404,-434.111,0,0
386430,87.2659,-434.048,0,0
386690,86.1604,-433.946,0,0
386950,85.0399,-433.669,0,0
387211,83.9479,-433.289,0,0
387471,82.8024,-432.765,0,0
387731,81.7762,-432.174,0,0
387992,80.8129,-431.43,0,0
388252,79.9411,-430.559,0,0
388512,79.2483,-429.585,0,0
388773,78.679,-428.669,0,0
389033,78.2266,-427.67,0,0
389293,77.939,-426.687,0,0
389554,77.7561,-425.813,0,0
389814,77.6352,-424.983,0,0
390074,77.6387,-424.214,0,0
390335,77.7955,-423.509,0,0
390595,77.8886,-423.027,0,0
390855,78.0823,-422.593,0,0
391116,78.2392,-422.292,0,0
391376,78.3675,-422.183,0,0
391636,78.4405,-422.153,0,0
391896,78.3484,-422.236,0,0
392157,78.1743,-422.38,0,0
392417,77.8506,-422.527,0,0
392677,77.398,-422.713,0,0
392938,76.7804,-422.817,0,0
393198,76.0921,-422.983,0,0
393458,75.3249,-422.915,0,0
393719,74.451,-422.822,0,0
393979,73.4927,-422.618,0,0
394239,72.52,-422.306,0,0
394500,71.5656,-421.882,0,0
394760.05,70.6574,-421.316,0,0
395020.375,69.7605,-420.712,0,0
395280.7,68.8297,-419.99,0,0
395541.025,68.0768,-419.274,0,0
395801.35,67.3008,-418.449,0,0
396061.675,66.5809,-417.657,0,0
396322.0,65.8877,-416.736,0,0
396582.325,65.278,-415.859,0,0
396842.65,64.6941,-414.915,0,0
397102.975,64.1766,-414.005,0,0
397363.3,63.7249,-413.043,0,0
397623.625,63.2361,-412.085,0,0
397883.95,62.8255,-411.143,0,0
398144.275,62.4078,-410.166,0,0
398404.6,62.0879,-409.239,0,0
398664.925,61.7726,-408.283,0,0
398925.25,61.4205,-407.338,0,0
399185.575,61.0999,-406.36,0,0
399445.9,60.8883,-405.392,0,0
399706.225,60.6263,-404.382,0,0
399966.55,60.4244,-403.429,0,0
400006.6,60.356,-403.268,0,0