File: Accelerated corrosion test data/2025-10-04_18-00-03/sample_8.csv
Frequency (Hz),Impedance (ohms),Phase (Radians),Temperature (C),Humidity (%)
10000.0,311.248,-10940.3,0,0
10260.325,303.318,-10665.9,0,0
10520.65,295.855,-10404.8,0,0
10780.975,288.902,-10157.3,0,0
11041.3,282.425,-9920.49,0,0
11301.625,275.758,-9695.48,0,0
11561.95,269.871,-9478.92,0,0
11822.275,264.055,-9273.06,0,0
12082.6,261.444,-9073.31,0,0
12342.925,259.16,-8887.24,0,0
12603.25,253.51,-8706.73,0,0
12863.575,250.132,-8535.68,0,0
13123.9,242.108,-8372.33,0,0
13384.225,236.218,-8209.84,0,0
13644.55,232.821,-8054.18,0,0
13904.875,225.715,-7907.26,0,0
14165.2,220.549,-7762.54,0,0
14425.525,216.655,-7623.58,0,0
14685.8,212.727,-7490.34,0,0
14946.175,208.644,-7361.32,0,0
15206.5,205.477,-7235.63,0,0
15466.825,202.215,-7115.92,0,0
15727.15,198.882,-6999.34,0,0
15987.5,195.742,-6886.47,0,0
16247.8,192.695,-6776.73,0,0
16508.125,189.469,-6670.85,0,0
16768.45,186.516,-6568.46,0,0
17028.775,183.589,-6468.92,0,0
17289.1,181.239,-6372.31,0,0
17549.425,178.387,-6277.67,0,0
17809.75,175.608,-6186.57,0,0
18070.075,174.777,-6098.39,0,0
18330.4,171.386,-6011.58,0,0
18590.725,169.31,-5927.21,0,0
18851.05,169.09,-5843.79,0,0
19111.375,167.261,-5765.29,0,0
19371.7,170.231,-5687.99,0,0
19632.025,166.232,-5616.68,0,0
19892.35,163.763,-5546.42,0,0
20152.675,160.568,-5473.67,0,0
20413.0,159.772,-5403.88,0,0
20673.3,159.093,-5336.73,0,0
20933.65,157.776,-5272.94,0,0
21193.975,155.005,-5209.86,0,0
21454.3,152.346,-5145.83,0,0
21714.625,150.981,-5083.87,0,0
21974.9,150.831,-5024.15,0,0
22235.275,150.499,-4966.28,0,0
22495.6,148.704,-4909.65,0,0
22755.925,147.25,-4856.14,0,0
23016.25,144.28,-4801.89,0,0
23276.6,141.768,-4749.48,0,0
23536.9,139.441,-4696.74,0,0
23797.225,137.99,-4644.72,0,0
24057.55,135.745,-4595.27,0,0
24317.875,134.308,-4545.65,0,0
24578.2,132.375,-4497.36,0,0
24838.525,130.67,-4449.53,0,0
25098.85,129.808,-4403.69,0,0
25359.175,128.618,-4358.4,0,0
25619.5,127.305,-4313.89,0,0
25879.8,125.694,-4269.68,0,0
26140.1,124.873,-4227.67,0,0
26400.5,124.037,-4186.04,0,0
26660.8,122.634,-4144.82,0,0
26921.1,122.068,-4103.96,0,0
27181.4,122.421,-4064.26,0,0
27441.8,120.599,-4025.79,0,0
27702.1,120.407,-3988.55,0,0
27962.4,118.894,-3951.8,0,0
28222.7,118.599,-3913.25,0,0
28483.1,118.138,-3878,0,0
28743.4,117.616,-3842.39,0,0
29003.7,117.024,-3808.19,0,0
29264,116.946,-3773.67,0,0
29524.4,116.168,-3740.75,0,0
29784.7,116.11,-3707.5,0,0
30045,116.577,-3676.22,0,0
30305.3,116.198,-3644.91,0,0
30565.7,114.879,-3614.41,0,0
30826,114.168,-3583.88,0,0
31086.3,113.653,-3553.98,0,0
31346.6,112.974,-3524.37,0,0
31607,112.384,-3495.14,0,0
31867.3,112.161,-3466.16,0,0
32127.6,111.874,-3438.45,0,0
32387.9,111.455,-3410.35,0,0
32648.3,111.24,-3382.57,0,0
32908.6,111.752,-3355.22,0,0
33168.9,111.846,-3329.76,0,0
33429.2,113.025,-3303.58,0,0
33689.6,114.062,-3279.23,0,0
33949.9,113.874,-3256.26,0,0
34210.2,113.026,-3232.66,0,0
34470.5,112.056,-3209.19,0,0
34730.9,111.415,-3185.68,0,0
34991.2,111.433,-3162.75,0,0
35251.5,110.715,-3140.87,0,0
35511.8,109.421,-3118.99,0,0
35772.2,107.9,-3097.67,0,0
36032.5,106.586,-3076,0,0
36292.8,105.171,-3054.49,0,0
36553.1,103.456,-3033.11,0,0
36813.5,102.021,-3011.99,0,0
37073.8,100.502,-2990.9,0,0
37334.1,99.3729,-2970.29,0,0
37594.4,98.0721,-2950,0,0
37854.8,96.2687,-2929.47,0,0
38115.1,95.1393,-2909.33,0,0
38375.4,93.7719,-2889.49,0,0
38635.7,92.4842,-2869.57,0,0
38896.1,91.3907,-2850.01,0,0
39156.4,90.0723,-2830.48,0,0
39416.7,88.8811,-2811.32,0,0
39677,88.0163,-2792.19,0,0
39937.4,86.8744,-2773.62,0,0
40197.7,86.1762,-2754.36,0,0
40458,86.0779,-2735.8,0,0
40718.3,85.9764,-2717.98,0,0
40978.7,85.2711,-2700.51,0,0
41239,84.5908,-2682.76,0,0
41499.3,84.1661,-2665.42,0,0
41759.6,83.6319,-2648.42,0,0
42020,83.2169,-2631.74,0,0
42280.275,82.6042,-2615.02,0,0
42540.6,82.0902,-2598.21,0,0
42800.925,81.9395,-2581.84,0,0
43061.25,81.8929,-2565.47,0,0
43321.575,82.0476,-2549.77,0,0
43581.9,82.0674,-2534.73,0,0
43842.225,81.6488,-2520.03,0,0
44102.55,80.934,-2505.08,0,0
44362.875,80.1672,-2490.2,0,0
44623.2,79.6063,-2475.52,0,0
44883.525,78.9572,-2460.8,0,0
45143.85,78.2531,-2446.1,0,0
45404.175,77.7296,-2431.6,0,0
45664.5,77.2598,-2417.28,0,0
45924.825,76.9496,-2403.34,0,0
46185.15,76.4308,-2389.18,0,0
46445.475,75.7881,-2375.23,0,0
46705.8,75.5245,-2361.65,0,0
46966.125,75.0267,-2348.12,0,0
47226.45,74.969,-2334.54,0,0
47486.775,74.6277,-2321.25,0,0
47747.1,74.5204,-2308.08,0,0
48007.425,74.1339,-2295.4,0,0
48267.75,73.7853,-2282.71,0,0
48528.075,73.3065,-2270.04,0,0
48788.4,73.1867,-2257.78,0,0
49048.725,72.5262,-2245.55,0,0
49309.05,71.8522,-2232.94,0,0
49569.375,71.6775,-2220.68,0,0
49829.7,71.2974,-2208.62,0,0
50090.025,70.8438,-2196.56,0,0
50350.35,70.6414,-2184.69,0,0
50610.675,70.3609,-2172.92,0,0
50871.0,70.1311,-2161.15,0,0
51131.325,69.9064,-2149.54,0,0
51391.65,69.7183,-2138.09,0,0
51651.975,69.6973,-2126.63,0,0
51912.3,69.6313,-2115.7,0,0
52172.625,69.554,-2104.7,0,0
52432.95,69.5581,-2093.94,0,0
52693.275,69.288,-2083.01,0,0
52953.6,69.4242,-2072.49,0,0
53213.925,69.3605,-2062.21,0,0
53474.25,69.2339,-2051.9,0,0
53734.575,69.3545,-2042.1,0,0
53994.9,68.7248,-2032.58,0,0
54255.225,68.0185,-2022.59,0,0
54515.55,67.381,-2012.54,0,0
54775.875,66.8651,-2002.41,0,0
55036.2,66.4054,-1992.94,0,0
55296.525,65.713,-1983.05,0,0
55556.85,65.0675,-1973.21,0,0
55817.175,64.5501,-1963.17,0,0
56077.5,63.9821,-1953.45,0,0
56337.825,63.5223,-1943.6,0,0
56598.15,63.1628,-1933.85,0,0
56858.475,62.9225,-1924.15,0,0
57118.8,62.6957,-1914.68,0,0
57379.125,62.5144,-1905.23,0,0
57639.45,62.3995,-1895.96,0,0
57899.775,62.3019,-1886.7,0,0
58160.1,62.0621,-1877.51,0,0
58420.4,62.0398,-1868.43,0,0
58680.7,62.0662,-1859.6,0,0
58941.1,62.0967,-1850.71,0,0
59201.4,62.2003,-1842.16,0,0
59461.7,61.9783,-1833.99,0,0
59722,61.5765,-1825.47,0,0
59982.4,61.2099,-1816.84,0,0
60242.7,60.8391,-1808.28,0,0
60503,60.6194,-1799.79,0,0
60763.3,60.3601,-1791.16,0,0
61023.7,60.3396,-1782.77,0,0
61284,60.4603,-1774.41,0,0
61544.3,60.5017,-1766.23,0,0
61804.6,60.5482,-1758.29,0,0
62065,60.3235,-1750.33,0,0
62325.3,60.1651,-1742.18,0,0
62585.6,60.2916,-1734.17,0,0
62845.9,60.3541,-1726.23,0,0
63106.3,60.6143,-1718.39,0,0
63366.6,60.8022,-1710.63,0,0
63626.9,61.1759,-1703.02,0,0
63887.2,61.3484,-1695.69,0,0
64147.6,61.6679,-1688.31,0,0
64407.9,62.0915,-1681.22,0,0
64668.2,62.312,-1674.59,0,0
64928.5,62.0466,-1667.83,0,0
65188.9,61.8733,-1660.91,0,0
65449.2,61.7755,-1654.09,0,0
65709.5,61.3159,-1647.4,0,0
65969.8,61.1694,-1640.46,0,0
66230.2,60.8089,-1633.63,0,0
66490.5,60.1858,-1626.97,0,0
66750.8,59.7288,-1620.08,0,0
67011.1,59.3205,-1612.86,0,0
67271.5,59.1605,-1605.87,0,0
67531.8,58.9126,-1599.04,0,0
67792.1,58.594,-1592.36,0,0
68052.4,58.3384,-1585.39,0,0
68312.8,58.1889,-1578.56,0,0
68573.1,58.0866,-1571.83,0,0
68833.4,57.943,-1565.12,0,0
69093.7,57.7245,-1558.46,0,0
69354.1,57.8008,-1551.79,0,0
69614.4,57.8567,-1545.13,0,0
69874.7,57.9803,-1538.67,0,0
70135,58.0553,-1532.18,0,0
70395.4,58.1339,-1525.89,0,0
70655.7,58.234,-1519.67,0,0
70916,58.3581,-1513.56,0,0
71176.3,58.345,-1507.4,0,0
71436.7,58.4442,-1501.36,0,0
71697,58.6174,-1495.32,0,0
71957.3,58.6843,-1489.49,0,0
72217.6,58.5689,-1483.58,0,0
72478,58.6588,-1477.81,0,0
72738.3,58.5161,-1472.22,0,0
72998.6,58.1398,-1466.55,0,0
73258.9,57.8021,-1460.65,0,0
73519.3,57.5942,-1454.62,0,0
73779.6,57.4991,-1448.75,0,0
74039.9,57.5283,-1442.87,0,0
74300.225,57.5826,-1437.23,0,0
74560.55,57.3713,-1431.7,0,0
74820.875,57.1622,-1425.95,0,0
75081.2,57.1702,-1420.17,0,0
75341.525,57.1126,-1414.55,0,0
75601.85,56.9763,-1408.86,0,0
75862.175,57.0915,-1403.17,0,0
76122.5,57.2108,-1397.67,0,0
76382.825,57.2549,-1392.27,0,0
76643.15,57.2672,-1386.84,0,0
76903.475,57.255,-1381.56,0,0
77163.8,57.2146,-1376.24,0,0
77424.125,57.1385,-1370.97,0,0
77684.45,57.0811,-1365.62,0,0
77944.775,57.0916,-1360.38,0,0
78205.1,56.9678,-1355.15,0,0
78465.425,56.8391,-1349.97,0,0
78725.75,56.6461,-1344.67,0,0
78986.075,56.562,-1339.33,0,0
79246.4,56.611,-1334.03,0,0
79506.725,56.5626,-1328.87,0,0
79767.05,56.6202,-1323.57,0,0
80027.375,56.6425,-1318.35,0,0
80287.7,56.7448,-1313.19,0,0
80548.025,56.8568,-1308.06,0,0
80808.35,56.9477,-1303.1,0,0
81068.675,56.9114,-1298.04,0,0
81329.0,56.9434,-1292.83,0,0
81589.325,57.1514,-1287.76,0,0
81849.65,57.335,-1282.65,0,0
82109.975,57.5958,-1277.56,0,0
82370.3,57.9804,-1272.6,0,0
82630.625,58.3136,-1267.77,0,0
82890.95,58.6871,-1262.95,0,0
83151.275,59.0106,-1258.25,0,0
83411.6,59.3355,-1253.55,0,0
83671.925,59.551,-1248.76,0,0
83932.25,60.0741,-1244.02,0,0
84192.575,60.5578,-1239.56,0,0
84452.9,60.9507,-1235.21,0,0
84713.225,61.2812,-1230.85,0,0
84973.55,61.6568,-1226.64,0,0
85233.875,61.711,-1222.81,0,0
85494.2,61.3757,-1218.55,0,0
85754.525,61.2117,-1214.05,0,0
86014.85,61.0898,-1209.4,0,0
86275.175,61.1454,-1204.8,0,0
86535.5,61.1598,-1200.26,0,0
86795.825,61.275,-1195.54,0,0
87056.15,61.6588,-1190.89,0,0
87316.475,62.0246,-1186.43,0,0
87576.8,62.2623,-1182.1,0,0
87837.125,62.4877,-1177.6,0,0
88097.45,62.9409,-1173.11,0,0
88357.775,63.4358,-1168.75,0,0
88618.1,63.7323,-1164.49,0,0
88878.425,64.2058,-1160.16,0,0
89138.75,64.6019,-1155.93,0,0
89399.075,64.9525,-1151.55,0,0
89659.4,65.4591,-1147.32,0,0
89919.725,66.0575,-1143,0,0
90180,66.6099,-1138.77,0,0
90440.4,67.2971,-1134.61,0,0
90700.7,68.09,-1130.46,0,0
90961,69.0027,-1126.34,0,0
91221.3,69.9005,-1122.45,0,0
91481.7,71.0622,-1118.67,0,0
91742,72.1192,-1115.33,0,0
92002.3,73.0206,-1111.99,0,0
92262.6,73.78,-1108.89,0,0
92523,74.4502,-1105.91,0,0
92783.3,74.9297,-1103.08,0,0
93043.6,75.0342,-1100.24,0,0
93303.9,74.7955,-1097.49,0,0
93564.3,74.1841,-1094,0,0
93824.6,74.0602,-1090.16,0,0
94084.9,74.2942,-1086.45,0,0
94345.2,74.5402,-1082.97,0,0
94605.6,74.6096,-1079.54,0,0
94865.9,74.6425,-1075.84,0,0
95126.2,75.0833,-1072.28,0,0
95386.5,75.1916,-1068.76,0,0
95646.9,75.6804,-1065.07,0,0
95907.2,76.1217,-1061.9,0,0
96167.5,76.1906,-1058.58,0,0
96427.8,76.3736,-1054.93,0,0
96688.2,76.892,-1051.39,0,0
96948.5,77.4544,-1048.06,0,0
97208.8,77.8527,-1044.87,0,0
97469.1,78.2752,-1041.58,0,0
97729.5,78.9268,-1038.33,0,0
97989.8,79.4836,-1035.39,0,0
98250.1,80.015,-1032.58,0,0
98510.4,80.294,-1029.77,0,0
98770.8,80.5964,-1026.98,0,0
99031.1,80.7998,-1024.37,0,0
99291.4,80.6913,-1021.73,0,0
99551.7,80.4418,-1018.78,0,0
99812.1,80.3047,-1015.64,0,0
100072,80.4569,-1012.53,0,0
100333,80.6617,-1009.53,0,0
100593,80.8431,-1006.65,0,0
100853,80.9546,-1003.89,0,0
101114,80.8925,-1001.24,0,0
101374,80.685,-998.37,0,0
101634,80.6152,-995.424,0,0
101895,80.5186,-992.657,0,0
102155,80.2314,-989.858,0,0
102415,79.9451,-986.881,0,0
102676,79.6373,-983.919,0,0
102936,79.3588,-980.805,0,0
103196,79.0496,-977.67,0,0
103457,78.8567,-974.369,0,0
103717,78.8453,-971.084,0,0
103977,78.9151,-967.907,0,0
104238,79.0608,-964.852,0,0
104498,79.1032,-961.923,0,0
104758,78.9071,-958.97,0,0
105019,78.7806,-955.863,0,0
105279,78.5423,-952.623,0,0
105539,78.6449,-949.236,0,0
105800,78.872,-946.014,0,0
106060,79.2226,-942.876,0,0
106320.175,79.4728,-939.859,0,0
106580.5,79.791,-936.826,0,0
106840.825,80.2381,-933.885,0,0
107101.15,80.6376,-931.177,0,0
107361.475,80.9117,-928.618,0,0
107621.8,80.9914,-926.054,0,0
107882.125,80.9632,-923.451,0,0
108142.45,80.8635,-920.711,0,0
108402.775,80.714,-917.889,0,0
108663.1,80.6614,-914.928,0,0
108923.425,80.8021,-911.994,0,0
109183.75,80.898,-909.116,0,0
109444.075,81.1143,-906.266,0,0
109704.4,81.2987,-903.472,0,0
109964.725,81.5305,-900.833,0,0
110225.05,81.7577,-898.159,0,0
110485.375,81.7878,-895.623,0,0
110745.7,81.9229,-893.026,0,0
111006.025,81.918,-890.451,0,0
111266.35,81.966,-887.904,0,0
111526.675,81.7481,-885.266,0,0
111787.0,81.7378,-882.547,0,0
112047.325,81.7514,-879.845,0,0
112307.65,81.8219,-877.266,0,0
112567.975,81.8111,-874.563,0,0
112828.3,81.7797,-871.978,0,0
113088.625,81.8213,-869.342,0,0
113348.95,81.7715,-866.788,0,0
113609.275,81.717,-864.187,0,0
113869.6,81.6724,-861.595,0,0
114129.925,81.5476,-859.025,0,0
114390.25,81.3934,-856.342,0,0
114650.575,81.2569,-853.703,0,0
114910.9,81.1662,-850.948,0,0
115171.225,81.1911,-848.25,0,0
115431.55,81.1957,-845.674,0,0
115691.875,81.1059,-843.121,0,0
115952.2,80.9501,-840.49,0,0
116212.525,80.7736,-837.842,0,0
116472.85,80.7189,-835.175,0,0
116733.175,80.5473,-832.515,0,0
116993.5,80.3414,-829.773,0,0
117253.825,80.1839,-826.982,0,0
117514.15,80.1176,-824.098,0,0
117774.475,80.1336,-821.268,0,0
118034.8,80.2658,-818.5,0,0
118295.125,80.2762,-815.723,0,0
118555.45,80.4178,-812.956,0,0
118815.775,80.673,-810.288,0,0
119076.1,80.8322,-807.811,0,0
119336.425,80.8728,-805.374,0,0
119596.75,80.7065,-802.911,0,0
119857.075,80.5724,-800.296,0,0
120117.4,80.4112,-797.545,0,0
120377.725,80.4314,-794.852,0,0
120638.05,80.3687,-792.186,0,0
120898.375,80.3076,-789.497,0,0
121158.7,80.2682,-786.703,0,0
121419.025,80.338,-783.96,0,0
121679.35,80.3547,-781.299,0,0
121939.675,80.3787,-778.55,0,0
122200.0,80.5142,-775.765,0,0
122460,80.6114,-773.093,0,0
122721,80.796,-770.473,0,0
122981,80.8768,-767.939,0,0
123241,80.7953,-765.418,0,0
123502,80.642,-762.709,0,0
123762,80.6096,-759.857,0,0
124022,80.6413,-756.994,0,0
124283,80.7594,-754.171,0,0
124543,80.8849,-751.349,0,0
124803,81.1004,-748.514,0,0
125064,81.3582,-745.689,0,0
125324,81.6953,-742.895,0,0
125584,82.0698,-740.198,0,0
125845,82.439,-737.615,0,0
126105,82.7771,-735.051,0,0
126365,83.0171,-732.519,0,0
126626,83.3094,-730,0,0
126886,83.5696,-727.519,0,0
127146,83.7896,-724.955,0,0
127406,83.9995,-722.489,0,0
127667,84.2043,-720.009,0,0
127927,84.3694,-717.528,0,0
128187,84.5197,-714.985,0,0
128448,84.689,-712.499,0,0
128708,84.879,-709.998,0,0
128968,84.9514,-707.607,0,0
129229,84.9292,-705.081,0,0
129489,84.9046,-702.494,0,0
129749,84.9105,-699.87,0,0
130010,84.874,-697.089,0,0
130270,84.9779,-694.185,0,0
130530,85.1823,-691.287,0,0
130791,85.6644,-688.391,0,0
131051,86.1591,-685.767,0,0
131311,86.5607,-683.291,0,0
131572,86.9191,-680.805,0,0
131832,87.2466,-678.437,0,0
132092,87.2873,-676.114,0,0
132353,87.1532,-673.559,0,0
132613,87.1396,-670.803,0,0
132873,87.214,-667.88,0,0
133134,87.5063,-664.966,0,0
133394,87.9642,-662.136,0,0
133654,88.3881,-659.484,0,0
133915,88.7192,-656.877,0,0
134175,88.9261,-654.204,0,0
134435,89.1833,-651.43,0,0
134696,89.4957,-648.594,0,0
134956,89.9125,-645.719,0,0
135216,90.3709,-642.808,0,0
135477,91.0625,-639.97,0,0
135737,91.8685,-637.22,0,0
135997,92.7362,-634.709,0,0
136258,93.5581,-632.418,0,0
136518,94.1481,-630.364,0,0
136778,94.5555,-628.262,0,0
137039,94.8527,-626.193,0,0
137299,94.8885,-624.122,0,0
137559,94.7269,-621.923,0,0
137819,94.4377,-619.477,0,0
138080,94.1108,-616.853,0,0
138340.125,93.7951,-614.021,0,0
138600.45,93.5886,-610.926,0,0
138860.775,93.6522,-607.698,0,0
139121.1,93.8598,-604.553,0,0
139381.425,94.1685,-601.413,0,0
139641.75,94.5353,-598.404,0,0
139902.075,94.8138,-595.407,0,0
140162.4,95.0986,-592.285,0,0
140422.725,95.4726,-589.238,0,0
140683.05,95.8181,-586.213,0,0
140943.375,96.0301,-583.088,0,0
141203.7,96.3178,-579.795,0,0
141464.025,96.747,-576.408,0,0
141724.35,97.3055,-573.05,0,0
141984.675,97.9015,-569.79,0,0
142245.0,98.3925,-566.533,0,0
142505.325,98.8893,-563.104,0,0
142765.65,99.5141,-559.559,0,0
143025.975,100.331,-556.043,0,0
143286.3,101.096,-552.556,0,0
143546.625,101.968,-549.012,0,0
143806.95,102.863,-545.488,0,0
144067.275,103.772,-541.947,0,0
144327.6,104.677,-538.289,0,0
144587.925,105.734,-534.518,0,0
144848.25,106.865,-530.636,0,0
145108.575,108.278,-526.612,0,0
145368.9,110.012,-522.648,0,0
145629.225,111.968,-518.799,0,0
145889.55,114.191,-515.168,0,0
146149.875,116.403,-511.916,0,0
146410.2,118.463,-508.784,0,0
146670.525,120.443,-505.651,0,0
146930.85,122.537,-502.45,0,0
147191.175,124.739,-499.458,0,0
147451.5,126.905,-496.655,0,0
147711.825,128.975,-494.071,0,0
147972.15,130.637,-491.683,0,0
148232.475,131.796,-488.87,0,0
148492.8,132.974,-485.438,0,0
148753.125,134.627,-481.603,0,0
149013.45,136.698,-477.818,0,0
149273.775,138.84,-473.994,0,0
149534.1,141.501,-469.998,0,0
149794.425,144.417,-466.162,0,0
150054.75,147.519,-462.511,0,0
150315.075,150.875,-458.865,0,0
150575.4,154.706,-455.197,0,0
150835.725,158.982,-451.772,0,0
151096.05,163.782,-448.871,0,0
151356.375,168.813,-446.528,0,0
151616.7,174.276,-445.027,0,0
151877.025,179.395,-444.614,0,0
152137.35,183.737,-444.863,0,0
152397.675,187.511,-445.373,0,0
152658.0,190.566,-446.173,0,0
152918.325,192.677,-446.895,0,0
153178.65,194.302,-446.936,0,0
153438.975,195.997,-446.722,0,0
153699.3,197.535,-446.267,0,0
153959.625,199.099,-445.504,0,0
154219.95,200.595,-444.745,0,0
154480,202.039,-443.748,0,0
154741,203.397,-442.383,0,0
155001,205.183,-440.544,0,0
155261,207.585,-438.735,0,0
155522,210.505,-437.327,0,0
155782,213.641,-436.397,0,0
156042,216.86,-436.007,0,0
156303,220.31,-436.494,0,0
156563,223.071,-438.441,0,0
156823,223.738,-440.952,0,0
157084,222.674,-442.375,0,0
157344,220.887,-442.31,0,0
157604,218.94,-440.409,0,0
157864,218.215,-437.277,0,0
158125,218.635,-433.684,0,0
158385,220.195,-430.394,0,0
158645,222.152,-427.634,0,0
158906,224.024,-424.903,0,0
159166,226.89,-421.674,0,0
159426,230.836,-419.849,0,0
159687,234.519,-419.511,0,0
159947,237.377,-420.139,0,0
160207,238.741,-420.894,0,0
160468,239.271,-421.062,0,0
160728,239.395,-420.558,0,0
160988,238.954,-419.333,0,0
161249,238.905,-416.684,0,0
161509,239.924,-413.382,0,0
161769,241.874,-410.249,0,0
162030,244.519,-407.538,0,0
162290,247.403,-405.009,0,0
162550,250.83,-402.862,0,0
162811,254.694,-401.347,0,0
163071,258.427,-400.61,0,0
163331,262.022,-400.303,0,0
163592,265.547,-400.482,0,0
163852,268.685,-401.375,0,0
164112,271.194,-402.502,0,0
164373,273.125,-403.886,0,0
164633,274.263,-404.826,0,0
164893,275.681,-405.34,0,0
165154,277.099,-406.108,0,0
165414,278.405,-407.079,0,0
165674,279.599,-408.52,0,0
165935,279.999,-410.569,0,0
166195,279.02,-412.423,0,0
166455,277.486,-413.351,0,0
166716,275.645,-413.77,0,0
166976,273.525,-413.539,0,0
167236,271.248,-412.592,0,0
167497,269.187,-410.924,0,0
167757,267.457,-408.923,0,0
168017,265.744,-406.718,0,0
168277,264.01,-404.117,0,0
168538,262.473,-400.908,0,0
168798,261.283,-397.317,0,0
169058,260.451,-393.442,0,0
169319,260.127,-389.284,0,0
169579,260.01,-385.275,0,0
169839,260.419,-381.005,0,0
170100,261.124,-377.103,0,0
170360.075,261.52,-373.315,0,0
170620.4,261.878,-369.088,0,0
170880.725,262.661,-364.525,0,0
171141.05,263.736,-359.977,0,0
171401.375,265.049,-355.354,0,0
171661.7,266.402,-350.618,0,0
171922.025,268.108,-345.457,0,0
172182.35,270.534,-340.076,0,0
172442.675,273.551,-334.915,0,0
172703.0,277.13,-330.247,0,0
172963.325,280.808,-325.899,0,0
173223.65,284.494,-321.957,0,0
173483.975,288.093,-318.165,0,0
173744.3,291.794,-314.204,0,0
174004.625,295.978,-310.433,0,0
174264.95,300.273,-307.104,0,0
174525.275,304.396,-304.03,0,0
174785.6,308.478,-301.213,0,0
175045.925,312.304,-298.569,0,0
175306.25,315.948,-295.76,0,0
175566.575,319.514,-293.085,0,0
175826.9,322.53,-290.171,0,0
176087.225,325.772,-286.546,0,0
176347.55,329.317,-282.407,0,0
176607.875,333.58,-278.183,0,0
176868.2,338.42,-274.268,0,0
177128.525,343.446,-270.516,0,0
177388.85,348.861,-266.951,0,0
177649.175,354.323,-263.767,0,0
177909.5,359.514,-260.68,0,0
178169.825,364.924,-257.155,0,0
178430.15,371.012,-253.631,0,0
178690.475,377.667,-250.389,0,0
178950.8,384.701,-247.558,0,0
179211.125,391.914,-245.035,0,0
179471.45,399.188,-243.174,0,0
179731.775,406.617,-241.942,0,0
179992.1,413.715,-240.987,0,0
180252.425,420.875,-240.11,0,0
180512.75,428.177,-240.143,0,0
180773.075,434.717,-240.347,0,0
181033.4,441.003,-240.256,0,0
181293.725,447.248,-240.198,0,0
181554.05,453.297,-240.163,0,0
181814.375,459.486,-239.989,0,0
182074.7,465.824,-239.955,0,0
182335.025,472.169,-240.37,0,0
182595.35,478.185,-240.439,0,0
182855.675,484.801,-240.41,0,0
183116.0,492.005,-241.237,0,0
183376.325,498.518,-243.072,0,0
183636.65,503.559,-244.863,0,0
183896.975,508.304,-245.783,0,0
184157.3,513.112,-245.904,0,0
184417.625,518.27,-245.871,0,0
184677.95,523.584,-245.096,0,0
184938.275,529.833,-244.666,0,0
185198.6,536.008,-244.66,0,0
185458.925,541.989,-244.22,0,0
185719.25,548.491,-243.34,0,0
185979.575,555.796,-242.537,0,0
186239.9,563.554,-241.89,0,0
186500,572.138,-241.395,0,0
186761,581.547,-241.91,0,0
187021,591.043,-243.483,0,0
187281,599.81,-245.848,0,0
187542,608.008,-247.973,0,0
187802,616.385,-249.656,0,0
188062,625.544,-251.579,0,0
188322,635.206,-254.02,0,0
188583,645.298,-257.327,0,0
188843,655.32,-261.771,0,0
189103,664.755,-267.125,0,0
189364,673.504,-273.216,0,0
189624,681.021,-279.738,0,0
189884,687.484,-285.657,0,0
190145,693.831,-290.675,0,0
190405,700.364,-295.654,0,0
190665,706.633,-300.392,0,0
190926,712.743,-304.237,0,0
191186,719.896,-307.234,0,0
191446,728.508,-310.389,0,0
191707,737.904,-314.557,0,0
191967,747.904,-319.801,0,0
192227,757.763,-326.295,0,0
192488,766.946,-333.579,0,0
192748,774.976,-341.492,0,0
193008,782.324,-347.827,0,0
193269,791.009,-352.647,0,0
193529,802.302,-357.919,0,0
193789,814.912,-365.184,0,0
194050,828.056,-374.418,0,0
194310,841.359,-385.697,0,0
194570,853.991,-399.083,0,0
194831,865.931,-414.392,0,0
195091,876.167,-431.58,0,0
195351,884.068,-449.447,0,0
195612,890.697,-466.766,0,0
195872,896.744,-484.161,0,0
196132,903.142,-502.171,0,0
196393,908.848,-521.944,0,0
196653,912.584,-543.227,0,0
196913,913.824,-565.4,0,0
197174,912.694,-586.984,0,0
197434,910.053,-607.971,0,0
197694,906.25,-628.313,0,0
197955,901.279,-648.646,0,0
198215,894.701,-668.463,0,0
198475,886.414,-687.472,0,0
198735,876.777,-705.003,0,0
198996,866.895,-721.326,0,0
199256,856.405,-736.658,0,0
199516,845.787,-751.691,0,0
199777,834.191,-766.609,0,0
200037,821.279,-780.411,0,0
200297,807.252,-793.115,0,0
200558,792.54,-804.322,0,0
200818,777.482,-814.054,0,0
201078,762.057,-822.173,0,0
201339,747.26,-828.607,0,0
201599,733.37,-833.995,0,0
201859,720.124,-839.238,0,0
202120,706.734,-844.317,0,0
202380.025,693.258,-848.829,0,0
202640.35,679.243,-852.995,0,0
202900.675,664.467,-855.669,0,0
203161.0,650.091,-856.853,0,0
203421.325,636.585,-856.593,0,0
203681.65,623.879,-855.716,0,0
203941.975,611.809,-854.386,0,0
204202.3,600.44,-852.459,0,0
204462.625,589.681,-849.97,0,0
204722.95,579.574,-847.003,0,0
204983.275,570.297,-843.825,0,0
205243.6,561.57,-840.824,0,0
205503.925,553.354,-837.372,0,0
205764.25,545.49,-834.177,0,0
206024.575,537.656,-830.589,0,0
206284.9,529.961,-826.665,0,0
206545.225,522.825,-821.972,0,0
206805.55,516.589,-816.606,0,0
207065.875,511.426,-811.04,0,0
207326.2,507.393,-805.64,0,0
207586.525,504.043,-800.758,0,0
207846.85,501.404,-796.185,0,0
208107.175,499.149,-792.186,0,0
208367.5,497.114,-788.841,0,0
208627.825,495.091,-785.795,0,0
208888.15,492.979,-782.953,0,0
209148.475,490.837,-780.101,0,0
209408.8,489.025,-776.932,0,0
209669.125,487.621,-773.718,0,0
209929.45,486.66,-770.635,0,0
210189.775,486.448,-767.902,0,0
210450.1,486.52,-765.646,0,0
210710.425,486.761,-763.878,0,0
210970.75,487.204,-762.536,0,0
211231.075,487.638,-761.737,0,0
211491.4,487.926,-761.395,0,0
211751.725,487.988,-761.169,0,0
212012.05,488.28,-761.027,0,0
212272.375,488.683,-761.445,0,0
212532.7,488.907,-762.045,0,0
212793.025,489.078,-763.088,0,0
213053.35,489.135,-764.49,0,0
213313.675,488.863,-766.331,0,0
213574.0,488.105,-768.321,0,0
213834.325,486.932,-770.368,0,0
214094.65,485.37,-772.44,0,0
214354.975,483.648,-774.479,0,0
214615.3,481.542,-776.558,0,0
214875.625,479.009,-778.433,0,0
215135.95,476.345,-780.011,0,0
215396.275,473.387,-781.386,0,0
215656.6,470.309,-782.476,0,0
215916.925,467.133,-783.403,0,0
216177.25,463.821,-783.872,0,0
216437.575,460.487,-783.88,0,0
216697.9,457.331,-783.485,0,0
216958.225,454.318,-782.751,0,0
217218.55,451.868,-781.464,0,0
217478.875,450.101,-780.03,0,0
217739.2,448.925,-778.828,0,0
217999.525,448.016,-777.771,0,0
218259.85,447.517,-777.055,0,0
218520,447.272,-776.661,0,0
218780,447.221,-776.566,0,0
219041,447.32,-776.925,0,0
219301,447.381,-777.694,0,0
219561,447.168,-778.802,0,0
219822,446.865,-780.027,0,0
220082,446.497,-781.302,0,0
220342,446.092,-782.825,0,0
220603,445.53,-784.577,0,0
220863,444.876,-786.317,0,0
221123,444.145,-788.262,0,0
221384,443.447,-790.323,0,0
221644,442.402,-792.549,0,0
221904,441.44,-794.798,0,0
222165,440.539,-797.427,0,0
222425,439.276,-800.51,0,0
222685,437.548,-803.697,0,0
222946,435.251,-806.94,0,0
223206,432.477,-809.976,0,0
223466,429.431,-812.673,0,0
223727,426.234,-814.932,0,0
223987,423.303,-816.936,0,0
224247,420.508,-819.011,0,0
224508,417.871,-821.085,0,0
224768,415.115,-823.383,0,0
225028,412.265,-825.964,0,0
225289,409.1,-828.575,0,0
225549,405.825,-831.395,0,0
225809,402.15,-834.34,0,0
226070,397.674,-837.069,0,0
226330,393.016,-839.419,0,0
226590,388.177,-841.571,0,0
226851,383.119,-843.343,0,0
227111,377.915,-844.703,0,0
227371,372.8,-845.797,0,0
227632,367.671,-846.791,0,0
227892,362.269,-847.514,0,0
228152,356.615,-847.703,0,0
228413,351.187,-847.258,0,0
228673,346.378,-846.327,0,0
228933,341.959,-845.447,0,0
229193,337.961,-844.636,0,0
229454,334.25,-844.029,0,0
229714,330.644,-843.702,0,0
229974,326.938,-843.674,0,0
230235,323.062,-843.948,0,0
230495,318.673,-844.257,0,0
230755,314.065,-844.398,0,0
231016,308.973,-844.379,0,0
231276,303.737,-843.771,0,0
231536,298.607,-842.711,0,0
231797,293.726,-841.386,0,0
232057,289.009,-839.923,0,0
232317,284.354,-838.338,0,0
232578,279.781,-836.774,0,0
232838,275.104,-834.944,0,0
233098,270.513,-832.876,0,0
233359,266.151,-830.596,0,0
233619,261.947,-828.228,0,0
233879,257.954,-825.838,0,0
234140,253.792,-823.309,0,0
234400,249.769,-820.663,0,0
234660.3,245.954,-817.768,0,0
234920.625,242.346,-814.764,0,0
235180.95,238.771,-811.54,0,0
235441.275,235.457,-808.298,0,0
235701.6,232.485,-804.944,0,0
235961.925,229.698,-801.449,0,0
236222.25,227.162,-798.098,0,0
236482.575,224.782,-794.704,0,0
236742.9,222.641,-791.326,0,0
237003.225,220.692,-788.017,0,0
237263.55,219.008,-784.839,0,0
237523.875,217.44,-781.728,0,0
237784.2,216.019,-778.765,0,0
238044.525,214.611,-775.905,0,0
238304.85,213.223,-773.091,0,0
238565.175,211.95,-770.379,0,0
238825.5,210.843,-767.578,0,0
239085.825,209.937,-764.793,0,0
239346.15,209.331,-762.218,0,0
239606.475,209.008,-759.911,0,0
239866.8,208.683,-758.052,0,0
240127.125,208.193,-756.796,0,0
240387.45,207.388,-755.541,0,0
240647.775,206.273,-754.468,0,0
240908.1,204.999,-753.315,0,0
241168.425,203.535,-752.209,0,0
241428.75,201.902,-751.051,0,0
241689.075,200.067,-749.898,0,0
241949.4,198.108,-748.539,0,0
242209.725,196.022,-747.111,0,0
242470.05,193.825,-745.56,0,0
242730.375,191.528,-743.755,0,0
242990.7,189.233,-741.711,0,0
243251.025,187.024,-739.402,0,0
243511.35,184.959,-737.007,0,0
243771.675,182.973,-734.506,0,0
244032.0,181.166,-731.896,0,0
244292.325,179.337,-729.207,0,0
244552.65,177.782,-726.34,0,0
244812.975,176.334,-723.528,0,0
245073.3,175.073,-720.636,0,0
245333.625,173.99,-717.888,0,0
245593.95,172.798,-715.06,0,0
245854.275,171.744,-712.153,0,0
246114.6,170.872,-709.155,0,0
246374.925,170.215,-706.119,0,0
246635.25,169.886,-703.106,0,0
246895.575,169.683,-700.433,0,0
247155.9,169.701,-697.953,0,0
247416.225,169.63,-695.824,0,0
247676.55,169.353,-693.85,0,0
247936.875,168.903,-691.901,0,0
248197.2,168.338,-689.97,0,0
248457.525,167.609,-687.947,0,0
248717.85,166.849,-685.821,0,0
248978.175,165.991,-683.41,0,0
249238.5,165.235,-680.937,0,0
249498.825,164.632,-678.295,0,0
249759.15,164.096,-675.622,0,0
250019.475,163.776,-672.739,0,0
250279.8,163.657,-669.898,0,0
250540,163.697,-667.012,0,0
250800,163.93,-664.243,0,0
251061,164.161,-661.486,0,0
251321,164.654,-658.717,0,0
251581,165.255,-656.031,0,0
251842,166.045,-653.371,0,0
252102,167.045,-650.781,0,0
252362,168.311,-648.365,0,0
252623,169.724,-646.182,0,0
252883,171.275,-644.336,0,0
253143,172.868,-642.841,0,0
253404,174.324,-641.711,0,0
253664,175.504,-640.877,0,0
253924,176.394,-640.087,0,0
254185,177.072,-639.263,0,0
254445,177.59,-638.405,0,0
254705,177.922,-637.511,0,0
254966,178.248,-636.49,0,0
255226,178.45,-635.307,0,0
255486,178.722,-634.013,0,0
255747,179.097,-632.705,0,0
256007,179.477,-631.288,0,0
256267,179.965,-629.852,0,0
256528,180.578,-628.377,0,0
256788,181.309,-627.012,0,0
257048,182.025,-625.698,0,0
257309,182.72,-624.357,0,0
257569,183.481,-623,0,0
257829,184.37,-621.589,0,0
258090,185.372,-620.214,0,0
258350,186.564,-618.927,0,0
258610,187.83,-617.754,0,0
258871,189.154,-616.755,0,0
259131,190.574,-615.907,0,0
259391,191.943,-615.214,0,0
259651,193.374,-614.608,0,0
259912,194.774,-614.174,0,0
260172,196.083,-613.835,0,0
260432,197.262,-613.765,0,0
260693,198.212,-613.618,0,0
260953,199.172,-613.389,0,0
261213,200.101,-613.168,0,0
261474,201.086,-613.019,0,0
261734,202.11,-612.945,0,0
261994,203.048,-612.918,0,0
262255,203.973,-612.989,0,0
262515,204.826,-613.136,0,0
262775,205.586,-613.386,0,0
263036,206.108,-613.627,0,0
263296,206.514,-613.664,0,0
263556,206.978,-613.603,0,0
263817,207.536,-613.601,0,0
264077,208.01,-613.564,0,0
264337,208.427,-613.551,0,0
264598,208.766,-613.564,0,0
264858,209.022,-613.305,0,0
265118,209.327,-612.781,0,0
265379,209.817,-612.157,0,0
265639,210.593,-611.444,0,0
265899,211.667,-610.684,0,0
266160,212.872,-609.989,0,0
266420,214.307,-609.347,0,0
266680.25,216.001,-608.855,0,0
266940.575,217.91,-608.466,0,0
267200.9,220.116,-608.317,0,0
267461.225,222.511,-608.429,0,0
267721.55,225.054,-608.944,0,0
267981.875,227.629,-609.829,0,0
268242.2,230.24,-610.988,0,0
268502.525,232.858,-612.568,0,0
268762.85,235.466,-614.522,0,0
269023.175,237.994,-616.967,0,0
269283.5,240.251,-619.9,0,0
269543.825,242.213,-623.038,0,0
269804.15,243.681,-626.575,0,0
270064.475,244.848,-630.146,0,0
270324.8,245.673,-633.857,0,0
270585.125,246.423,-637.769,0,0
270845.45,246.684,-641.922,0,0
271105.775,246.595,-646.263,0,0
271366.1,246.01,-650.756,0,0
271626.425,245.027,-655.2,0,0
271886.75,243.501,-659.618,0,0
272147.075,241.567,-663.93,0,0
272407.4,239.316,-668.163,0,0
272667.725,236.586,-672.278,0,0
272928.05,233.415,-676.177,0,0
273188.375,229.792,-679.805,0,0
273448.7,225.803,-683.006,0,0
273709.025,221.513,-685.846,0,0
273969.35,217.026,-688.312,0,0
274229.675,212.352,-690.322,0,0
274490.0,207.6,-691.908,0,0
274750.325,202.726,-693.07,0,0
275010.65,197.786,-693.794,0,0
275270.975,193.044,-694.086,0,0
275531.3,188.244,-693.871,0,0
275791.625,183.672,-693.325,0,0
276051.95,179.355,-692.41,0,0
276312.275,175.337,-691.304,0,0
276572.6,171.524,-690.006,0,0
276832.925,167.957,-688.642,0,0
277093.25,164.541,-687.167,0,0
277353.575,161.248,-685.767,0,0
277613.9,158.109,-684.064,0,0
277874.225,155.132,-682.275,0,0
278134.55,152.331,-680.457,0,0
278394.875,149.673,-678.588,0,0
278655.2,147.099,-676.629,0,0
278915.525,144.642,-674.649,0,0
279175.85,142.316,-672.57,0,0
279436.175,140.16,-670.386,0,0
279696.5,138.087,-668.108,0,0
279956.825,136.262,-665.772,0,0
280217.15,134.643,-663.36,0,0
280477.475,133.225,-661.034,0,0
280737.8,132.01,-658.659,0,0
280998.125,131.014,-656.4,0,0
281258.45,130.221,-654.217,0,0
281518.775,129.529,-652.185,0,0
281779.1,128.932,-650.276,0,0
282039.425,128.408,-648.493,0,0
282299.75,127.954,-646.813,0,0
282560,127.549,-645.243,0,0
282820,127.161,-643.771,0,0
283081,126.797,-642.447,0,0
283341,126.39,-641.213,0,0
283601,125.892,-640.038,0,0
283862,125.332,-638.851,0,0
284122,124.764,-637.602,0,0
284382,124.23,-636.277,0,0
284643,123.778,-634.943,0,0
284903,123.376,-633.644,0,0
285163,123.006,-632.306,0,0
285424,122.78,-630.924,0,0
285684,122.709,-629.536,0,0
285944,122.804,-628.244,0,0
286205,123.095,-627.018,0,0
286465,123.641,-625.975,0,0
286725,124.321,-625.227,0,0
286986,125.055,-624.816,0,0
287246,125.806,-624.779,0,0
287506,126.402,-625.134,0,0
287767,126.703,-625.838,0,0
288027,126.63,-626.754,0,0
288287,126.14,-627.729,0,0
288548,125.282,-628.675,0,0
288808,124.128,-629.445,0,0
289068,122.747,-630.071,0,0
289329,121.189,-630.541,0,0
289589,119.534,-630.83,0,0
289849,117.79,-630.927,0,0
290109,115.964,-630.855,0,0
290370,114.084,-630.546,0,0
290630,112.274,-630.025,0,0
290890,110.564,-629.418,0,0
291151,108.97,-628.708,0,0
291411,107.474,-628.036,0,0
291671,105.985,-627.393,0,0
291932,104.454,-626.764,0,0
292192,102.831,-626.116,0,0
292452,101.128,-625.39,0,0
292713,99.4083,-624.535,0,0
292973,97.689,-623.524,0,0
293233,96.0068,-622.431,0,0
293494,94.4215,-621.226,0,0
293754,92.8761,-619.957,0,0
294014,91.3979,-618.632,0,0
294275,89.993,-617.305,0,0
294535,88.6306,-615.906,0,0
294795,87.3217,-614.489,0,0
295056,86.073,-613.007,0,0
295316,84.8621,-611.53,0,0
295576,83.7201,-610.058,0,0
295837,82.5676,-608.55,0,0
296097,81.4877,-606.975,0,0
296357,80.4707,-605.4,0,0
296618,79.5297,-603.785,0,0
296878,78.6769,-602.205,0,0
297138,77.8323,-600.607,0,0
297399,77.0432,-599.025,0,0
297659,76.2864,-597.445,0,0
297919,75.5845,-595.86,0,0
298180,74.9035,-594.3,0,0
298440,74.2563,-592.716,0,0
298700.2,73.6443,-591.124,0,0
298960.525,73.0788,-589.548,0,0
299220.85,72.5637,-587.966,0,0
299481.175,72.073,-586.391,0,0
299741.5,71.6187,-584.823,0,0
300001.825,71.2031,-583.249,0,0
300262.15,70.8375,-581.646,0,0
300522.475,70.5029,-580.065,0,0
300782.8,70.2244,-578.49,0,0
301043.125,69.9992,-576.904,0,0
301303.45,69.8432,-575.35,0,0
301563.775,69.7507,-573.778,0,0
301824.1,69.7233,-572.267,0,0
302084.425,69.7649,-570.804,0,0
302344.75,69.8557,-569.406,0,0
302605.075,69.9879,-568.07,0,0
302865.4,70.1403,-566.825,0,0
303125.725,70.2863,-565.634,0,0
303386.05,70.4412,-564.491,0,0
303646.375,70.5558,-563.399,0,0
303906.7,70.7061,-562.334,0,0
304167.025,70.8147,-561.311,0,0
304427.35,70.9176,-560.289,0,0
304687.675,71.0349,-559.317,0,0
304948.0,71.1605,-558.317,0,0
305208.325,71.2817,-557.345,0,0
305468.65,71.4289,-556.403,0,0
305728.975,71.6116,-555.484,0,0
305989.3,71.8218,-554.596,0,0
306249.625,72.0589,-553.795,0,0
306509.95,72.2686,-553.057,0,0
306770.275,72.4681,-552.387,0,0
307030.6,72.6287,-551.742,0,0
307290.925,72.7514,-551.131,0,0
307551.25,72.8555,-550.564,0,0
307811.575,72.9414,-549.984,0,0
308071.9,73.0044,-549.431,0,0
308332.225,73.1023,-548.915,0,0
308592.55,73.1719,-548.459,0,0
308852.875,73.2072,-548.082,0,0
309113.2,73.1675,-547.746,0,0
309373.525,73.0283,-547.442,0,0
309633.85,72.7974,-547.122,0,0
309894.175,72.4768,-546.761,0,0
310154.5,72.1597,-546.332,0,0
310414.825,71.7906,-545.853,0,0
310675.15,71.4409,-545.343,0,0
310935.475,71.1006,-544.794,0,0
311195.8,70.7672,-544.249,0,0
311456.125,70.4353,-543.705,0,0
311716.45,70.1183,-543.137,0,0
311976.775,69.7856,-542.572,0,0
312237.1,69.4513,-542.02,0,0
312497.425,69.1198,-541.476,0,0
312757.75,68.7542,-540.927,0,0
313018.075,68.3713,-540.391,0,0
313278.4,67.9882,-539.828,0,0
313538.725,67.5675,-539.263,0,0
313799.05,67.1279,-538.684,0,0
314059.375,66.6576,-538.105,0,0
314319.7,66.1621,-537.478,0,0
314580,65.6112,-536.818,0,0
314840,65.0907,-536.088,0,0
315101,64.6216,-535.375,0,0
315361,64.1127,-534.546,0,0
315621,63.6849,-533.721,0,0
315882,63.2544,-532.822,0,0
316142,62.9048,-532.022,0,0
316402,62.5545,-531.105,0,0
316663,62.2624,-530.165,0,0
316923,61.9684,-529.315,0,0
317183,61.6438,-528.476,0,0
317444,61.5091,-527.599,0,0
317704,61.3146,-526.73,0,0
317964,61.1052,-525.897,0,0
318225,60.9988,-525.107,0,0
318485,60.8809,-524.289,0,0
318745,60.7173,-523.512,0,0
319006,60.6247,-522.815,0,0
319266,60.5445,-522.078,0,0
319526,60.4232,-521.34,0,0
319787,60.4152,-520.657,0,0
320047,60.291,-520.039,0,0
320307,60.262,-519.415,0,0
320567,60.1921,-518.816,0,0
320828,60.1323,-518.302,0,0
321088,60.0311,-517.822,0,0
321348,59.8517,-517.369,0,0
321609,59.6216,-516.835,0,0
321869,59.452,-516.379,0,0
322129,59.1809,-515.937,0,0
322390,58.9076,-515.473,0,0
322650,58.6391,-514.894,0,0
322910,58.339,-514.414,0,0
323171,58.0616,-513.9,0,0
323431,57.6872,-513.365,0,0
323691,57.3962,-512.916,0,0
323952,56.9943,-512.426,0,0
324212,56.6913,-511.975,0,0
324472,56.2934,-511.458,0,0
324733,55.782,-510.904,0,0
324993,55.2717,-510.286,0,0
325253,54.8343,-509.766,0,0
325514,54.3479,-509.13,0,0
325774,53.8471,-508.508,0,0
326034,53.3713,-507.766,0,0
326295,52.89,-507.029,0,0
326555,52.4602,-506.333,0,0
326815,52.0101,-505.539,0,0
327076,51.625,-504.794,0,0
327336,51.2202,-504.05,0,0
327596,50.7734,-503.269,0,0
327857,50.4136,-502.449,0,0
328117,50.0735,-501.649,0,0
328377,49.6776,-500.823,0,0
328638,49.3114,-500.073,0,0
328898,48.9882,-499.266,0,0
329158,48.6687,-498.437,0,0
329419,48.3572,-497.582,0,0
329679,48.0839,-496.787,0,0
329939,47.7536,-495.95,0,0
330200,47.4623,-495.152,0,0
330460,47.1296,-494.291,0,0
330720.15,46.8697,-493.491,0,0
330980.475,46.5989,-492.611,0,0
331240.8,46.3372,-491.776,0,0
331501.125,46.0716,-490.895,0,0
331761.45,45.8051,-490.033,0,0
332021.775,45.5743,-489.14,0,0
332282.1,45.4124,-488.339,0,0
332542.425,45.218,-487.401,0,0
332802.75,45.0305,-486.54,0,0
333063.075,44.8251,-485.664,0,0
333323.4,44.6998,-484.815,0,0
333583.725,44.5142,-483.895,0,0
333844.05,44.39,-483.039,0,0
334104.375,44.2751,-482.158,0,0
334364.7,44.1587,-481.29,0,0
334625.025,44.1268,-480.472,0,0
334885.35,44.0555,-479.61,0,0
335145.675,44.1124,-478.714,0,0
335406.0,44.0546,-477.935,0,0
335666.325,44.0838,-477.176,0,0
335926.65,44.0581,-476.397,0,0
336186.975,44.0812,-475.668,0,0
336447.3,44.1614,-474.921,0,0
336707.625,44.1175,-474.246,0,0
336967.95,44.1582,-473.566,0,0
337228.275,44.1721,-472.834,0,0
337488.6,44.1531,-472.176,0,0
337748.925,44.0689,-471.573,0,0
338009.25,44.0381,-470.902,0,0
338269.575,44.08,-470.308,0,0
338529.9,44.0483,-469.658,0,0
338790.225,43.9676,-469.076,0,0
339050.55,43.9058,-468.468,0,0
339310.875,43.879,-467.884,0,0
339571.2,43.6796,-467.308,0,0
339831.525,43.6634,-466.695,0,0
340091.85,43.5227,-466.101,0,0
340352.175,43.4182,-465.464,0,0
340612.5,43.2702,-464.9,0,0
340872.825,43.1841,-464.319,0,0
341133.15,43.0247,-463.668,0,0
341393.475,42.7893,-463.057,0,0
341653.8,42.5808,-462.421,0,0
341914.125,42.4235,-461.754,0,0
342174.45,42.299,-461.11,0,0
342434.775,42.1113,-460.393,0,0
342695.1,41.9493,-459.72,0,0
342955.425,41.7984,-458.948,0,0
343215.75,41.6319,-458.295,0,0
343476.075,41.4582,-457.545,0,0
343736.4,41.3654,-456.873,0,0
343996.725,41.2401,-456.107,0,0
344257.05,41.1184,-455.363,0,0
344517.375,41.0189,-454.576,0,0
344777.7,40.9722,-453.869,0,0
345038.025,40.849,-453.128,0,0
345298.35,40.8228,-452.363,0,0
345558.675,40.6858,-451.631,0,0
345819.0,40.6884,-450.898,0,0
346079.325,40.6357,-450.179,0,0
346339.65,40.5648,-449.385,0,0
346599.975,40.5369,-448.676,0,0
346860,40.4852,-447.961,0,0
347121,40.4735,-447.203,0,0
347381,40.4848,-446.471,0,0
347641,40.4867,-445.697,0,0
347902,40.5409,-444.993,0,0
348162,40.5432,-444.264,0,0
348422,40.5552,-443.532,0,0
348683,40.632,-442.847,0,0
348943,40.6961,-442.155,0,0
349203,40.7038,-441.415,0,0
349464,40.7582,-440.732,0,0
349724,40.8331,-440.078,0,0
349984,40.9096,-439.472,0,0
350245,40.9477,-438.737,0,0
350505,41.0577,-438.076,0,0
350765,41.1835,-437.386,0,0
351025,41.2472,-436.738,0,0
351286,41.3495,-436.166,0,0
351546,41.4495,-435.548,0,0
351806,41.5288,-434.893,0,0
352067,41.6835,-434.31,0,0
352327,41.7235,-433.765,0,0
352587,41.7893,-433.176,0,0
352848,41.8972,-432.608,0,0
353108,41.9671,-432.049,0,0
353368,42.0329,-431.489,0,0
353629,42.113,-430.869,0,0
353889,42.1449,-430.301,0,0
354149,42.2971,-429.77,0,0
354410,42.311,-429.203,0,0
354670,42.4073,-428.677,0,0
354930,42.5185,-428.098,0,0
355191,42.6288,-427.616,0,0
355451,42.7053,-427.041,0,0
355711,42.8172,-426.584,0,0
355972,42.9035,-426.077,0,0
356232,42.9416,-425.61,0,0
356492,42.9526,-425.174,0,0
356753,43.0378,-424.69,0,0
357013,43.0406,-424.242,0,0
357273,43.0516,-423.8,0,0
357534,42.9892,-423.288,0,0
357794,43.0024,-422.817,0,0
358054,42.9389,-422.337,0,0
358315,42.9091,-421.837,0,0
358575,42.8893,-421.343,0,0
358835,42.8315,-420.823,0,0
359096,42.7546,-420.275,0,0
359356,42.7538,-419.74,0,0
359616,42.675,-419.234,0,0
359877,42.6679,-418.632,0,0
360137,42.6494,-418.099,0,0
360397,42.6269,-417.461,0,0
360658,42.605,-416.897,0,0
360918,42.5598,-416.331,0,0
361178,42.5383,-415.769,0,0
361438,42.5445,-415.165,0,0
361699,42.5888,-414.563,0,0
361959,42.5714,-413.987,0,0
362219,42.6021,-413.388,0,0
362480,42.6002,-412.789,0,0
362740.1,42.6246,-412.171,0,0
363000.425,42.6802,-411.575,0,0
363260.75,42.6882,-410.983,0,0
363521.075,42.756,-410.332,0,0
363781.4,42.8483,-409.741,0,0
364041.725,42.8858,-409.172,0,0
364302.05,42.9726,-408.522,0,0
364562.375,43.1115,-407.949,0,0
364822.7,43.2192,-407.317,0,0
365083.025,43.3365,-406.761,0,0
365343.35,43.4578,-406.16,0,0
365603.675,43.6115,-405.605,0,0
365864.0,43.8027,-405.006,0,0
366124.325,43.9663,-404.46,0,0
366384.65,44.1158,-403.984,0,0
366644.975,44.2999,-403.516,0,0
366905.3,44.4726,-403.042,0,0
367165.625,44.5756,-402.544,0,0
367425.95,44.678,-402.054,0,0
367686.275,44.8158,-401.633,0,0
367946.6,44.8915,-401.134,0,0
368206.925,44.9936,-400.656,0,0
368467.25,45.0782,-400.135,0,0
368727.575,45.164,-399.587,0,0
368987.9,45.2876,-399.045,0,0
369248.225,45.4497,-398.538,0,0
369508.55,45.5976,-397.927,0,0
369768.875,45.7784,-397.388,0,0
370029.2,45.9936,-396.845,0,0
370289.525,46.2933,-396.302,0,0
370549.85,46.5794,-395.866,0,0
370810.175,46.8771,-395.43,0,0
371070.5,47.2049,-395.048,0,0
371330.825,47.4527,-394.731,0,0
371591.15,47.6944,-394.414,0,0
371851.475,47.9198,-394.142,0,0
372111.8,48.1298,-393.852,0,0
372372.125,48.3303,-393.579,0,0
372632.45,48.4533,-393.33,0,0
372892.775,48.6281,-393.071,0,0
373153.1,48.7783,-392.824,0,0
373413.425,48.838,-392.578,0,0
373673.75,48.9105,-392.353,0,0
373934.075,48.9711,-392.078,0,0
374194.4,49.006,-391.836,0,0
374454.725,49.043,-391.557,0,0
374715.05,49.0184,-391.256,0,0
374975.375,49.0214,-390.956,0,0
375235.7,49.0469,-390.666,0,0
375496.025,49.0293,-390.325,0,0
375756.35,49.0516,-389.947,0,0
376016.675,49.0962,-389.629,0,0
376277.0,49.1348,-389.23,0,0
376537.325,49.1983,-388.881,0,0
376797.65,49.2822,-388.574,0,0
377057.975,49.3551,-388.224,0,0
377318.3,49.4107,-387.955,0,0
377578.625,49.5141,-387.683,0,0
377838.95,49.5769,-387.428,0,0
378099.275,49.6217,-387.184,0,0
378359.6,49.5648,-386.951,0,0
378619.925,49.5226,-386.76,0,0
378880,49.4009,-386.472,0,0
379141,49.3101,-386.197,0,0
379401,49.1868,-385.855,0,0
379661,49.0924,-385.441,0,0
379922,48.9754,-384.997,0,0
380182,48.9435,-384.491,0,0
380442,48.99,-384.044,0,0
380703,49.1259,-383.563,0,0
380963,49.3267,-383.159,0,0
381223,49.5299,-382.844,0,0
381483,49.8004,-382.644,0,0
381744,49.9522,-382.503,0,0
382004,50.0013,-382.435,0,0
382264,50.0342,-382.447,0,0
382525,49.9755,-382.417,0,0
382785,49.7905,-382.377,0,0
383045,49.6008,-382.267,0,0
383306,49.297,-382.143,0,0
383566,48.9742,-381.922,0,0
383826,48.7175,-381.705,0,0
384087,48.408,-381.418,0,0
384347,48.0361,-381.096,0,0
384607,47.7547,-380.74,0,0
384868,47.4338,-380.384,0,0
385128,47.0954,-379.927,0,0
385388,46.822,-379.479,0,0
385649,46.5271,-379.024,0,0
385909,46.2421,-378.481,0,0
386169,45.999,-377.945,0,0
386430,45.8352,-377.414,0,0
386690,45.567,-376.827,0,0
386950,45.3584,-376.269,0,0
387211,45.1831,-375.704,0,0
387471,45.036,-375.106,0,0
387731,44.9314,-374.515,0,0
387992,44.7915,-373.902,0,0
388252,44.714,-373.31,0,0
388512,44.639,-372.703,0,0
388773,44.5834,-372.098,0,0
389033,44.5226,-371.51,0,0
389293,44.5035,-370.874,0,0
389554,44.5368,-370.335,0,0
389814,44.5274,-369.801,0,0
390074,44.5984,-369.222,0,0
390335,44.6199,-368.708,0,0
390595,44.6596,-368.187,0,0
390855,44.6304,-367.728,0,0
391116,44.6783,-367.204,0,0
391376,44.6726,-366.708,0,0
391636,44.6598,-366.253,0,0
391896,44.6608,-365.725,0,0
392157,44.6161,-365.22,0,0
392417,44.6077,-364.749,0,0
392677,44.5979,-364.257,0,0
392938,44.5805,-363.742,0,0
393198,44.5801,-363.229,0,0
393458,44.5398,-362.688,0,0
393719,44.5877,-362.182,0,0
393979,44.5678,-361.641,0,0
394239,44.5873,-361.12,0,0
394500,44.6221,-360.584,0,0
394760.05,44.6097,-360.082,0,0
395020.375,44.6715,-359.529,0,0
395280.7,44.6892,-359.032,0,0
395541.025,44.7268,-358.473,0,0
395801.35,44.7846,-357.955,0,0
396061.675,44.8495,-357.436,0,0
396322.0,44.9148,-356.925,0,0
396582.325,45.002,-356.417,0,0
396842.65,45.0804,-355.908,0,0
397102.975,45.1562,-355.447,0,0
397363.3,45.2295,-354.937,0,0
397623.625,45.319,-354.512,0,0
397883.95,45.3922,-354.031,0,0
398144.275,45.4707,-353.585,0,0
398404.6,45.5278,-353.117,0,0
398664.925,45.5659,-352.734,0,0
398925.25,45.5859,-352.271,0,0
399185.575,45.6334,-351.808,0,0
399445.9,45.628,-351.376,0,0
399706.225,45.6605,-350.892,0,0
399966.55,45.6374,-350.449,0,0
400006.6,45.6462,-350.352,0,0