File: Accelerated corrosion test data/2025-10-04_18-00-03/sample_2.csv
Frequency (Hz),Impedance (ohms),Phase (Radians),Temperature (C),Humidity (%)
10000.0,227.165,-11389.7,0,0
10260.325,221.413,-11103,0,0
10520.65,216.358,-10830.9,0,0
10780.975,211.578,-10570.8,0,0
11041.3,206.243,-10324.2,0,0
11301.625,202.207,-10087.7,0,0
11561.95,198.655,-9861.09,0,0
11822.275,195.432,-9650.13,0,0
12082.6,193.01,-9443.81,0,0
12342.925,185.834,-9246.52,0,0
12603.25,182.131,-9056.18,0,0
12863.575,178.542,-8873.13,0,0
13123.9,176.831,-8701.18,0,0
13384.225,171.155,-8530.15,0,0
13644.55,169.49,-8366.11,0,0
13904.875,183.614,-8210.56,0,0
14165.2,164.984,-8067.57,0,0
14425.525,161.638,-7919.91,0,0
14685.8,163.018,-7773.97,0,0
14946.175,160.141,-7646.86,0,0
15206.5,166.176,-7521.08,0,0
15466.825,160.967,-7389.18,0,0
15727.15,150.499,-7278.3,0,0
15987.5,146.606,-7156.56,0,0
16247.8,146.537,-7041.83,0,0
16508.125,142.311,-6933.35,0,0
16768.45,139.769,-6825.19,0,0
17028.775,138.601,-6721.6,0,0
17289.1,137.079,-6621.21,0,0
17549.425,133.79,-6522.17,0,0
17809.75,131.776,-6427.37,0,0
18070.075,129.772,-6334.61,0,0
18330.4,128.247,-6244.24,0,0
18590.725,127.401,-6155.86,0,0
18851.05,126.104,-6070.53,0,0
19111.375,128.049,-5988.83,0,0
19371.7,127.593,-5911.15,0,0
19632.025,122.198,-5834.11,0,0
19892.35,119.752,-5756.6,0,0
20152.675,118.122,-5681.09,0,0
20413.0,117.474,-5607.1,0,0
20673.3,116.539,-5534.8,0,0
20933.65,117.266,-5463.59,0,0
21193.975,122.436,-5396.35,0,0
21454.3,128.568,-5332.45,0,0
21714.625,128.116,-5277.33,0,0
21974.9,120.537,-5214.63,0,0
22235.275,118.781,-5161.11,0,0
22495.6,114.281,-5100.43,0,0
22755.925,110.68,-5039.62,0,0
23016.25,110.903,-4984.1,0,0
23276.6,112.538,-4927.97,0,0
23536.9,108.066,-4874.73,0,0
23797.225,105.841,-4821.06,0,0
24057.55,106.017,-4769.36,0,0
24317.875,102.28,-4719.74,0,0
24578.2,100.123,-4668.46,0,0
24838.525,99.4122,-4619.17,0,0
25098.85,98.9393,-4570.07,0,0
25359.175,97.9892,-4522.61,0,0
25619.5,96.8109,-4476.64,0,0
25879.8,95.5431,-4430.24,0,0
26140.1,95.6074,-4385.59,0,0
26400.5,95.3316,-4342.44,0,0
26660.8,95.5205,-4301.27,0,0
26921.1,94.3582,-4259.57,0,0
27181.4,93.3504,-4219.25,0,0
27441.8,91.7254,-4179.29,0,0
27702.1,89.9022,-4139.45,0,0
27962.4,89.3387,-4098.85,0,0
28222.7,89.5538,-4060.04,0,0
28483.1,89.621,-4022.82,0,0
28743.4,88.5507,-3985.52,0,0
29003.7,89.7305,-3947.63,0,0
29264,90.8952,-3913.54,0,0
29524.4,92.5739,-3876.66,0,0
29784.7,96.9056,-3847.85,0,0
30045,92.1623,-3816.44,0,0
30305.3,93.4309,-3783.82,0,0
30565.7,90.415,-3756.6,0,0
30826,87.5505,-3723.55,0,0
31086.3,86.4546,-3691.49,0,0
31346.6,84.2432,-3660.93,0,0
31607,84.2629,-3629.3,0,0
31867.3,83.0269,-3601,0,0
32127.6,81.6262,-3570.4,0,0
32387.9,81.75,-3540.03,0,0
32648.3,82.992,-3512.06,0,0
32908.6,83.0879,-3486.25,0,0
33168.9,81.0273,-3459.48,0,0
33429.2,79.5198,-3432.14,0,0
33689.6,79.3636,-3405.46,0,0
33949.9,78.295,-3379.3,0,0
34210.2,76.7776,-3353.51,0,0
34470.5,75.8515,-3327.55,0,0
34730.9,75.2697,-3301.75,0,0
34991.2,74.6982,-3276.89,0,0
35251.5,74.4494,-3252.35,0,0
35511.8,73.8714,-3228.19,0,0
35772.2,73.3299,-3204.25,0,0
36032.5,72.6887,-3180.79,0,0
36292.8,71.9347,-3157.64,0,0
36553.1,71.7919,-3134.83,0,0
36813.5,71.3778,-3112.17,0,0
37073.8,70.812,-3090.08,0,0
37334.1,70.545,-3067.94,0,0
37594.4,70.3367,-3046.41,0,0
37854.8,69.9336,-3025.19,0,0
38115.1,69.7548,-3004.41,0,0
38375.4,68.7803,-2983.71,0,0
38635.7,68.4309,-2963.2,0,0
38896.1,68.038,-2942.82,0,0
39156.4,67.9507,-2923.07,0,0
39416.7,67.3317,-2903.2,0,0
39677,67.0662,-2883.78,0,0
39937.4,66.7466,-2864.62,0,0
40197.7,66.3428,-2845.69,0,0
40458,65.8477,-2826.78,0,0
40718.3,65.68,-2808.27,0,0
40978.7,65.6998,-2790,0,0
41239,65.2475,-2772.1,0,0
41499.3,65.3318,-2754.34,0,0
41759.6,64.8804,-2736.84,0,0
42020,64.6544,-2719.33,0,0
42280.275,64.6558,-2702.28,0,0
42540.6,64.0827,-2685.84,0,0
42800.925,63.6047,-2669.13,0,0
43061.25,63.4741,-2652.6,0,0
43321.575,63.2571,-2636.26,0,0
43581.9,63.1104,-2620.08,0,0
43842.225,62.8176,-2604.02,0,0
44102.55,62.5374,-2588.36,0,0
44362.875,62.5742,-2573.06,0,0
44623.2,61.974,-2557.52,0,0
44883.525,61.8041,-2542.17,0,0
45143.85,61.4394,-2526.77,0,0
45404.175,61.322,-2511.84,0,0
45664.5,61.2909,-2497.48,0,0
45924.825,61.0302,-2482.45,0,0
46185.15,61.4413,-2468.29,0,0
46445.475,60.9597,-2454.61,0,0
46705.8,60.5316,-2440.34,0,0
46966.125,60.4185,-2426.02,0,0
47226.45,60.3475,-2412.31,0,0
47486.775,60.7886,-2398.49,0,0
47747.1,60.2943,-2385.46,0,0
48007.425,60.2001,-2371.96,0,0
48267.75,60.4698,-2358.31,0,0
48528.075,61.5188,-2346.26,0,0
48788.4,60.6462,-2334.07,0,0
49048.725,60.0712,-2321.65,0,0
49309.05,59.8931,-2309.27,0,0
49569.375,58.9542,-2296.96,0,0
49829.7,58.4519,-2284.45,0,0
50090.025,57.9868,-2271.96,0,0
50350.35,57.7561,-2259.94,0,0
50610.675,57.3755,-2247.53,0,0
50871.0,57.4459,-2235.62,0,0
51131.325,57.2447,-2223.96,0,0
51391.65,56.9653,-2212.59,0,0
51651.975,56.2908,-2200.99,0,0
51912.3,56.0538,-2189.37,0,0
52172.625,55.5907,-2177.96,0,0
52432.95,55.2282,-2166.38,0,0
52693.275,55.075,-2155.16,0,0
52953.6,54.8775,-2143.94,0,0
53213.925,54.6381,-2132.87,0,0
53474.25,54.4854,-2121.9,0,0
53734.575,54.3153,-2110.91,0,0
53994.9,54.0973,-2100.19,0,0
54255.225,54.0245,-2089.41,0,0
54515.55,53.9847,-2078.76,0,0
54775.875,53.9243,-2068.47,0,0
55036.2,53.7514,-2058.08,0,0
55296.525,53.7293,-2047.74,0,0
55556.85,53.5852,-2037.49,0,0
55817.175,53.614,-2027.52,0,0
56077.5,53.6053,-2017.58,0,0
56337.825,53.5053,-2007.61,0,0
56598.15,53.4668,-1997.77,0,0
56858.475,53.5334,-1987.91,0,0
57118.8,53.662,-1978.35,0,0
57379.125,53.7071,-1968.92,0,0
57639.45,53.6349,-1959.36,0,0
57899.775,53.8547,-1949.9,0,0
58160.1,53.8532,-1940.88,0,0
58420.4,53.6767,-1931.67,0,0
58680.7,53.7797,-1922.24,0,0
58941.1,53.9457,-1913.2,0,0
59201.4,54.0828,-1904.17,0,0
59461.7,54.2055,-1895.16,0,0
59722,54.5791,-1886.15,0,0
59982.4,55.1608,-1877.3,0,0
60242.7,55.8953,-1869.05,0,0
60503,56.1877,-1861.11,0,0
60763.3,55.9872,-1852.87,0,0
61023.7,56.0446,-1844.32,0,0
61284,56.8698,-1835.73,0,0
61544.3,57.8611,-1828.15,0,0
61804.6,58.5466,-1821,0,0
62065,58.6666,-1814.34,0,0
62325.3,57.8188,-1807.57,0,0
62585.6,57.0332,-1799.74,0,0
62845.9,57.0042,-1792.07,0,0
63106.3,56.9439,-1785.31,0,0
63366.6,55.7533,-1778.14,0,0
63626.9,54.8015,-1770.41,0,0
63887.2,54.2851,-1762.61,0,0
64147.6,53.8546,-1754.99,0,0
64407.9,53.0983,-1747.73,0,0
64668.2,52.6112,-1739.88,0,0
64928.5,52.0287,-1732.46,0,0
65188.9,51.35,-1724.73,0,0
65449.2,50.8544,-1716.99,0,0
65709.5,50.4284,-1708.91,0,0
65969.8,50.4262,-1701.2,0,0
66230.2,50.5872,-1693.61,0,0
66490.5,50.6309,-1686.19,0,0
66750.8,50.7007,-1678.89,0,0
67011.1,50.5415,-1671.19,0,0
67271.5,51.0533,-1663.64,0,0
67531.8,51.6804,-1656.45,0,0
67792.1,52.219,-1649.59,0,0
68052.4,52.8965,-1642.89,0,0
68312.8,53.2598,-1636.62,0,0
68573.1,53.3298,-1630.1,0,0
68833.4,53.6227,-1623.38,0,0
69093.7,54.1541,-1616.99,0,0
69354.1,54.7969,-1611.22,0,0
69614.4,54.8097,-1605.18,0,0
69874.7,55.5328,-1599.37,0,0
70135,55.4244,-1594.42,0,0
70395.4,54.9172,-1589,0,0
70655.7,54.1518,-1583.77,0,0
70916,52.8385,-1577.8,0,0
71176.3,52.4305,-1571.47,0,0
71436.7,51.8396,-1565.81,0,0
71697,51.036,-1559.97,0,0
71957.3,49.8946,-1554.21,0,0
72217.6,48.4806,-1547.87,0,0
72478,47.4892,-1541.18,0,0
72738.3,46.9584,-1534.46,0,0
72998.6,46.3809,-1527.99,0,0
73258.9,46.1409,-1521.59,0,0
73519.3,45.4082,-1515.18,0,0
73779.6,44.9289,-1508.5,0,0
74039.9,44.7993,-1501.78,0,0
74300.225,44.8991,-1495.27,0,0
74560.55,44.8783,-1488.99,0,0
74820.875,44.8932,-1482.66,0,0
75081.2,44.9707,-1476.39,0,0
75341.525,45.2264,-1470.09,0,0
75601.85,45.5354,-1463.96,0,0
75862.175,45.8332,-1457.9,0,0
76122.5,46.2914,-1451.89,0,0
76382.825,46.7102,-1446.08,0,0
76643.15,47.161,-1440.35,0,0
76903.475,47.5983,-1434.64,0,0
77163.8,48.0715,-1428.91,0,0
77424.125,48.7993,-1423.32,0,0
77684.45,49.3957,-1418.01,0,0
77944.775,50.1057,-1412.69,0,0
78205.1,50.9379,-1407.55,0,0
78465.425,51.6854,-1402.84,0,0
78725.75,52.1393,-1398.2,0,0
78986.075,52.7552,-1393.57,0,0
79246.4,53.1401,-1389.42,0,0
79506.725,53.0129,-1385.22,0,0
79767.05,52.8576,-1380.92,0,0
80027.375,52.5008,-1376.64,0,0
80287.7,51.6886,-1372.27,0,0
80548.025,50.9826,-1367.52,0,0
80808.35,50.2617,-1362.55,0,0
81068.675,49.8944,-1357.49,0,0
81329.0,49.3552,-1352.46,0,0
81589.325,49.0266,-1347.35,0,0
81849.65,48.7378,-1342.32,0,0
82109.975,48.3747,-1337.29,0,0
82370.3,48.1666,-1332.14,0,0
82630.625,47.9407,-1327.07,0,0
82890.95,47.7826,-1321.85,0,0
83151.275,47.839,-1316.7,0,0
83411.6,47.9369,-1311.66,0,0
83671.925,48.1355,-1306.67,0,0
83932.25,48.3773,-1301.81,0,0
84192.575,48.5787,-1297.07,0,0
84452.9,48.7973,-1292.41,0,0
84713.225,48.8712,-1287.83,0,0
84973.55,48.899,-1283.12,0,0
85233.875,49.1058,-1278.41,0,0
85494.2,49.2191,-1273.76,0,0
85754.525,49.5626,-1269.21,0,0
86014.85,49.8437,-1264.84,0,0
86275.175,49.9749,-1260.44,0,0
86535.5,50.1469,-1256.12,0,0
86795.825,50.0642,-1251.76,0,0
87056.15,50.1457,-1247.15,0,0
87316.475,50.6431,-1242.83,0,0
87576.8,50.9918,-1238.87,0,0
87837.125,50.872,-1234.87,0,0
88097.45,50.7536,-1230.61,0,0
88357.775,50.6831,-1226.11,0,0
88618.1,51.0725,-1222.01,0,0
88878.425,50.8427,-1218.07,0,0
89138.75,50.5207,-1213.52,0,0
89399.075,50.8276,-1209.06,0,0
89659.4,50.9999,-1204.9,0,0
89919.725,51.3917,-1200.63,0,0
90180,51.5504,-1196.86,0,0
90440.4,51.6702,-1192.81,0,0
90700.7,51.2017,-1188.94,0,0
90961,51.1536,-1184.26,0,0
91221.3,51.7664,-1179.79,0,0
91481.7,52.2422,-1175.77,0,0
91742,52.5016,-1171.8,0,0
92002.3,52.7216,-1167.76,0,0
92262.6,53.2577,-1163.62,0,0
92523,54.0266,-1159.76,0,0
92783.3,54.5737,-1156.27,0,0
93043.6,54.9658,-1152.53,0,0
93303.9,55.5762,-1149.12,0,0
93564.3,55.9136,-1146.07,0,0
93824.6,56.114,-1142.85,0,0
94084.9,56.0483,-1139.89,0,0
94345.2,55.4389,-1136.79,0,0
94605.6,54.7055,-1132.91,0,0
94865.9,54.867,-1128.89,0,0
95126.2,54.8252,-1125.49,0,0
95386.5,54.4261,-1121.89,0,0
95646.9,54.1013,-1117.77,0,0
95907.2,54.247,-1113.4,0,0
96167.5,54.8834,-1109.21,0,0
96427.8,55.8491,-1105.61,0,0
96688.2,56.7074,-1102.55,0,0
96948.5,56.9659,-1099.65,0,0
97208.8,57.1858,-1096.48,0,0
97469.1,57.6445,-1093.4,0,0
97729.5,57.9169,-1090.72,0,0
97989.8,57.9413,-1088.01,0,0
98250.1,57.7328,-1085.38,0,0
98510.4,57.3851,-1082.65,0,0
98770.8,57.0515,-1079.81,0,0
99031.1,56.6624,-1077.25,0,0
99291.4,55.7225,-1074.7,0,0
99551.7,54.458,-1071.72,0,0
99812.1,53.1149,-1068.39,0,0
100072,51.9479,-1064.47,0,0
100333,51.2471,-1060.52,0,0
100593,50.9882,-1056.62,0,0
100853,50.7274,-1053.17,0,0
101114,50.1194,-1049.85,0,0
101374,49.2183,-1046.36,0,0
101634,48.3158,-1042.54,0,0
101895,47.5527,-1038.42,0,0
102155,47.0955,-1034.13,0,0
102415,46.951,-1030.04,0,0
102676,46.6831,-1026.2,0,0
102936,46.2688,-1022.11,0,0
103196,46.125,-1017.85,0,0
103457,46.0706,-1013.72,0,0
103717,46.0026,-1009.52,0,0
103977,46.1883,-1004.97,0,0
104238,46.827,-1000.68,0,0
104498,47.5152,-996.487,0,0
104758,48.5318,-992.597,0,0
105019,49.4406,-989.043,0,0
105279,50.1729,-985.566,0,0
105539,50.8278,-981.972,0,0
105800,51.8909,-978.339,0,0
106060,53.1792,-975.131,0,0
106320.175,54.1924,-972.282,0,0
106580.5,55.2505,-969.417,0,0
106840.825,56.2585,-967.014,0,0
107101.15,56.854,-964.807,0,0
107361.475,57.1003,-962.497,0,0
107621.8,57.4493,-960.07,0,0
107882.125,57.7119,-957.91,0,0
108142.45,57.5548,-955.893,0,0
108402.775,56.9954,-953.533,0,0
108663.1,56.6192,-950.841,0,0
108923.425,56.231,-948.381,0,0
109183.75,55.4703,-945.755,0,0
109444.075,54.6767,-942.808,0,0
109704.4,54.0599,-939.702,0,0
109964.725,53.4227,-936.429,0,0
110225.05,52.8787,-933.123,0,0
110485.375,52.4261,-929.708,0,0
110745.7,51.988,-926.16,0,0
111006.025,51.8476,-922.456,0,0
111266.35,51.7359,-919.121,0,0
111526.675,51.7947,-915.556,0,0
111787.0,51.7968,-912.086,0,0
112047.325,51.777,-908.672,0,0
112307.65,51.9077,-905.241,0,0
112567.975,51.9667,-901.835,0,0
112828.3,52.0853,-898.35,0,0
113088.625,52.284,-894.888,0,0
113348.95,52.4081,-891.399,0,0
113609.275,52.8589,-887.97,0,0
113869.6,53.1994,-884.612,0,0
114129.925,53.6068,-881.153,0,0
114390.25,54.1402,-877.89,0,0
114650.575,54.6185,-874.591,0,0
114910.9,55.0936,-871.352,0,0
115171.225,55.6141,-868.155,0,0
115431.55,56.2317,-864.942,0,0
115691.875,56.8562,-861.835,0,0
115952.2,57.3949,-858.737,0,0
116212.525,57.9738,-855.593,0,0
116472.85,58.6183,-852.503,0,0
116733.175,59.4288,-849.416,0,0
116993.5,60.2732,-846.535,0,0
117253.825,61.0243,-843.726,0,0
117514.15,61.7565,-840.937,0,0
117774.475,62.4444,-838.147,0,0
118034.8,63.2842,-835.417,0,0
118295.125,64.0562,-832.769,0,0
118555.45,64.8039,-830.194,0,0
118815.775,65.5624,-827.624,0,0
119076.1,66.4754,-825.183,0,0
119336.425,67.1701,-822.891,0,0
119596.75,67.9269,-820.558,0,0
119857.075,68.7193,-818.511,0,0
120117.4,69.1887,-816.568,0,0
120377.725,69.5547,-814.612,0,0
120638.05,69.842,-812.653,0,0
120898.375,69.9132,-810.803,0,0
121158.7,69.6982,-808.757,0,0
121419.025,69.5038,-806.469,0,0
121679.35,69.3458,-804.061,0,0
121939.675,69.2795,-801.622,0,0
122200.0,69.1706,-799.236,0,0
122460,69.0276,-796.73,0,0
122721,68.8726,-794.174,0,0
122981,68.7796,-791.538,0,0
123241,68.7361,-788.895,0,0
123502,68.7281,-786.25,0,0
123762,68.731,-783.674,0,0
124022,68.6568,-781.08,0,0
124283,68.5604,-778.445,0,0
124543,68.4526,-775.765,0,0
124803,68.2901,-773.035,0,0
125064,68.1734,-770.204,0,0
125324,68.091,-767.258,0,0
125584,68.1286,-764.354,0,0
125845,68.1347,-761.429,0,0
126105,68.1714,-758.413,0,0
126365,68.3268,-755.305,0,0
126626,68.5325,-752.309,0,0
126886,68.807,-749.29,0,0
127146,69.075,-746.267,0,0
127406,69.4662,-743.176,0,0
127667,69.9648,-740.037,0,0
127927,70.6234,-737.107,0,0
128187,71.2255,-734.305,0,0
128448,71.8146,-731.492,0,0
128708,72.4183,-728.683,0,0
128968,73.0632,-725.985,0,0
129229,73.6759,-723.283,0,0
129489,74.3138,-720.676,0,0
129749,74.8884,-718.145,0,0
130010,75.4264,-715.538,0,0
130270,76.0016,-712.983,0,0
130530,76.5928,-710.466,0,0
130791,77.1378,-707.988,0,0
131051,77.6517,-705.552,0,0
131311,78.1283,-703.159,0,0
131572,78.5461,-700.75,0,0
131832,78.9352,-698.353,0,0
132092,79.227,-695.994,0,0
132353,79.4257,-693.556,0,0
132613,79.6279,-691.015,0,0
132873,79.8149,-688.445,0,0
133134,80.0211,-685.768,0,0
133394,80.2894,-683.121,0,0
133654,80.5251,-680.399,0,0
133915,80.8241,-677.693,0,0
134175,81.1354,-675.004,0,0
134435,81.361,-672.31,0,0
134696,81.5553,-669.475,0,0
134956,81.9015,-666.559,0,0
135216,82.2938,-663.733,0,0
135477,82.6447,-660.9,0,0
135737,83.0243,-658.063,0,0
135997,83.3959,-655.163,0,0
136258,83.8017,-652.197,0,0
136518,84.2492,-649.233,0,0
136778,84.7196,-646.268,0,0
137039,85.2104,-643.243,0,0
137299,85.8467,-640.184,0,0
137559,86.5757,-637.258,0,0
137819,87.2189,-634.441,0,0
138080,87.7215,-631.626,0,0
138340.125,88.1842,-628.711,0,0
138600.45,88.6337,-625.733,0,0
138860.775,89.1197,-622.695,0,0
139121.1,89.555,-619.535,0,0
139381.425,90.0925,-616.317,0,0
139641.75,90.6944,-613.062,0,0
139902.075,91.2297,-609.805,0,0
140162.4,91.753,-606.391,0,0
140422.725,92.324,-602.699,0,0
140683.05,93.209,-598.83,0,0
140943.375,94.3718,-595.052,0,0
141203.7,95.6054,-591.449,0,0
141464.025,96.8214,-587.729,0,0
141724.35,98.2775,-583.907,0,0
141984.675,99.9676,-580.191,0,0
142245.0,101.818,-576.58,0,0
142505.325,103.762,-573.185,0,0
142765.65,105.656,-569.785,0,0
143025.975,107.779,-566.433,0,0
143286.3,110.015,-563.384,0,0
143546.625,111.967,-560.504,0,0
143806.95,113.861,-557.523,0,0
144067.275,115.767,-554.471,0,0
144327.6,117.8,-551.405,0,0
144587.925,119.814,-548.395,0,0
144848.25,121.825,-545.334,0,0
145108.575,123.969,-542.157,0,0
145368.9,126.3,-539.076,0,0
145629.225,128.693,-536.1,0,0
145889.55,131.077,-533.18,0,0
146149.875,133.393,-530.272,0,0
146410.2,135.75,-527.258,0,0
146670.525,138.214,-524.168,0,0
146930.85,140.818,-521.008,0,0
147191.175,143.608,-517.806,0,0
147451.5,146.644,-514.583,0,0
147711.825,149.955,-511.494,0,0
147972.15,153.346,-508.572,0,0
148232.475,156.774,-505.66,0,0
148492.8,160.432,-502.629,0,0
148753.125,164.457,-499.67,0,0
149013.45,168.806,-496.758,0,0
149273.775,173.716,-494.004,0,0
149534.1,179.206,-491.838,0,0
149794.425,184.77,-490.45,0,0
150054.75,190.24,-489.552,0,0
150315.075,195.718,-488.993,0,0
150575.4,201.283,-488.902,0,0
150835.725,206.911,-489.374,0,0
151096.05,212.406,-490.641,0,0
151356.375,217.338,-492.64,0,0
151616.7,221.637,-494.883,0,0
151877.025,225.601,-497.247,0,0
152137.35,229.326,-500.027,0,0
152397.675,232.422,-503.267,0,0
152658.0,234.723,-506.616,0,0
152918.325,236.374,-509.89,0,0
153178.65,237.377,-512.993,0,0
153438.975,237.98,-515.607,0,0
153699.3,238.479,-517.995,0,0
153959.625,238.642,-520.371,0,0
154219.95,238.381,-522.443,0,0
154480,237.873,-524.153,0,0
154741,237.468,-525.443,0,0
155001,237.021,-526.63,0,0
155261,236.292,-527.628,0,0
155522,235.557,-528.302,0,0
155782,234.926,-529.028,0,0
156042,234.072,-529.307,0,0
156303,233.517,-529.448,0,0
156563,232.886,-529.774,0,0
156823,232.093,-530.035,0,0
157084,231.097,-530.032,0,0
157344,230.204,-529.665,0,0
157604,229.152,-529.242,0,0
157864,228.287,-528.598,0,0
158125,227.768,-527.635,0,0
158385,227.085,-526.898,0,0
158645,226.427,-526.128,0,0
158906,225.637,-525.016,0,0
159166,224.917,-523.808,0,0
159426,224.473,-522.314,0,0
159687,224.038,-520.789,0,0
159947,223.855,-518.753,0,0
160207,224.323,-516.87,0,0
160468,225.062,-515.392,0,0
160728,225.716,-514.272,0,0
160988,226.164,-513.163,0,0
161249,226.513,-511.417,0,0
161509,227.888,-509.5,0,0
161769,230.277,-508.385,0,0
162030,232.501,-508.508,0,0
162290,234.306,-509.458,0,0
162550,235.58,-510.919,0,0
162811,235.917,-512.788,0,0
163071,235.596,-514.865,0,0
163331,234.206,-516.977,0,0
163592,231.859,-518.195,0,0
163852,229.554,-518.717,0,0
164112,227.113,-518.981,0,0
164373,224.532,-519.038,0,0
164633,221.385,-518.897,0,0
164893,217.972,-517.77,0,0
165154,214.79,-516.141,0,0
165414,211.803,-514.352,0,0
165674,208.635,-512.105,0,0
165935,205.361,-509.314,0,0
166195,202.586,-505.719,0,0
166455,200.227,-501.945,0,0
166716,198.494,-497.961,0,0
166976,197.053,-494.009,0,0
167236,195.876,-490.224,0,0
167497,194.653,-486.442,0,0
167757,193.505,-482.498,0,0
168017,192.395,-478.509,0,0
168277,191.341,-474.072,0,0
168538,190.495,-469.414,0,0
168798,190.32,-464.473,0,0
169058,190.781,-459.755,0,0
169319,191.495,-455.679,0,0
169579,191.656,-451.846,0,0
169839,191.681,-447.629,0,0
170100,191.842,-443.1,0,0
170360.075,192.499,-438.466,0,0
170620.4,193.294,-434.119,0,0
170880.725,193.975,-429.891,0,0
171141.05,194.467,-425.356,0,0
171401.375,195.258,-420.384,0,0
171661.7,196.483,-415.391,0,0
171922.025,198.012,-410.514,0,0
172182.35,199.763,-405.701,0,0
172442.675,201.572,-401.113,0,0
172703.0,203.364,-396.308,0,0
172963.325,205.434,-391.4,0,0
173223.65,207.85,-386.699,0,0
173483.975,210.307,-382.033,0,0
173744.3,212.812,-377.369,0,0
174004.625,215.371,-372.671,0,0
174264.95,218.086,-367.833,0,0
174525.275,221.271,-362.667,0,0
174785.6,224.956,-357.654,0,0
175045.925,229.231,-353.038,0,0
175306.25,233.551,-348.87,0,0
175566.575,237.784,-344.941,0,0
175826.9,242.133,-340.97,0,0
176087.225,246.712,-337.128,0,0
176347.55,251.575,-333.49,0,0
176607.875,256.535,-330.118,0,0
176868.2,261.608,-327.012,0,0
177128.525,266.93,-323.854,0,0
177388.85,272.811,-320.943,0,0
177649.175,279.344,-319.034,0,0
177909.5,285.621,-318.402,0,0
178169.825,291.049,-318.777,0,0
178430.15,295.241,-319.252,0,0
178690.475,298.776,-319.193,0,0
178950.8,302.06,-317.801,0,0
179211.125,306.093,-317.822,0,0
179471.45,309.35,-318.123,0,0
179731.775,312.149,-318.287,0,0
179992.1,314.519,-318.489,0,0
180252.425,316.174,-318.65,0,0
180512.75,316.944,-318.42,0,0
180773.075,317.131,-317.021,0,0
181033.4,317.533,-314.712,0,0
181293.725,318.126,-311.546,0,0
181554.05,319.246,-307.724,0,0
181814.375,320.95,-303.626,0,0
182074.7,323.07,-299.417,0,0
182335.025,325.528,-294.95,0,0
182595.35,328.403,-290.194,0,0
182855.675,331.91,-285.401,0,0
183116.0,335.672,-280.665,0,0
183376.325,339.692,-275.9,0,0
183636.65,344.13,-270.817,0,0
183896.975,349.288,-265.82,0,0
184157.3,354.841,-261.11,0,0
184417.625,360.57,-256.482,0,0
184677.95,366.839,-251.731,0,0
184938.275,373.77,-247.323,0,0
185198.6,381.171,-243.432,0,0
185458.925,388.531,-240.055,0,0
185719.25,396.173,-236.8,0,0
185979.575,404.148,-233.922,0,0
186239.9,412.378,-231.483,0,0
186500,420.556,-229.862,0,0
186761,428.224,-228.782,0,0
187021,435.279,-227.43,0,0
187281,442.257,-225.362,0,0
187542,450.087,-222.742,0,0
187802,459.08,-220.693,0,0
188062,468.523,-219.946,0,0
188322,477.177,-220.238,0,0
188583,484.753,-220.284,0,0
188843,492.43,-219.698,0,0
189103,500.48,-219.123,0,0
189364,508.584,-218.709,0,0
189624,516.704,-218.209,0,0
189884,525.074,-217.82,0,0
190145,533.379,-217.446,0,0
190405,541.802,-216.626,0,0
190665,550.638,-215.451,0,0
190926,560.352,-214.35,0,0
191186,570.7,-213.239,0,0
191446,582.051,-212.352,0,0
191707,594.184,-212.257,0,0
191967,606.858,-213.057,0,0
192227,619.725,-214.641,0,0
192488,632.828,-216.792,0,0
192748,646.406,-219.568,0,0
193008,660.504,-223.324,0,0
193269,674.729,-228.357,0,0
193529,688.908,-234.485,0,0
193789,702.867,-242.071,0,0
194050,715.62,-250.887,0,0
194310,727.299,-259.793,0,0
194570,738.59,-268.639,0,0
194831,749.953,-277.617,0,0
195091,761.488,-287.137,0,0
195351,773.081,-297.58,0,0
195612,784.104,-309.279,0,0
195872,794.033,-321.744,0,0
196132,802.677,-334.309,0,0
196393,810.814,-346.378,0,0
196653,819.142,-358.453,0,0
196913,827.513,-371.207,0,0
197174,835.468,-384.604,0,0
197434,842.991,-398.756,0,0
197694,849.359,-413.598,0,0
197955,854.675,-428.015,0,0
198215,860.096,-441.987,0,0
198475,865.92,-456.953,0,0
198735,870.927,-472.97,0,0
198996,874.736,-489.725,0,0
199256,877.262,-506.659,0,0
199516,878.551,-523.433,0,0
199777,878.533,-539.647,0,0
200037,878.542,-554.807,0,0
200297,879.011,-569.617,0,0
200558,879.758,-585.794,0,0
200818,879.242,-603.061,0,0
201078,877.239,-620.564,0,0
201339,873.983,-637.676,0,0
201599,869.647,-654.597,0,0
201859,864.359,-671.197,0,0
202120,858.24,-687.596,0,0
202380.025,851.087,-703.505,0,0
202640.35,842.466,-719.32,0,0
202900.675,832.141,-733.735,0,0
203161.0,821.002,-745.974,0,0
203421.325,810.611,-756.636,0,0
203681.65,800.412,-766.904,0,0
203941.975,790.295,-776.513,0,0
204202.3,780.155,-785.508,0,0
204462.625,769.951,-793.611,0,0
204722.95,760.3,-800.984,0,0
204983.275,751.794,-808.548,0,0
205243.6,742.465,-816.855,0,0
205503.925,732.448,-825.155,0,0
205764.25,721.377,-832.823,0,0
206024.575,709.659,-839.109,0,0
206284.9,698.19,-844.222,0,0
206545.225,687.069,-848.537,0,0
206805.55,676.217,-852.035,0,0
207065.875,666.063,-854.771,0,0
207326.2,656.469,-857.36,0,0
207586.525,647.144,-859.83,0,0
207846.85,637.921,-861.886,0,0
208107.175,629.128,-863.585,0,0
208367.5,620.909,-864.896,0,0
208627.825,613.473,-866.261,0,0
208888.15,606.463,-868.115,0,0
209148.475,599.448,-870.297,0,0
209408.8,592.382,-872.763,0,0
209669.125,585.298,-875.445,0,0
209929.45,577.702,-878.696,0,0
210189.775,569.246,-881.545,0,0
210450.1,560.373,-884.025,0,0
210710.425,551.434,-885.804,0,0
210970.75,542.304,-887.279,0,0
211231.075,532.993,-888.267,0,0
211491.4,523.508,-888.884,0,0
211751.725,513.934,-888.384,0,0
212012.05,504.754,-887.1,0,0
212272.375,496.308,-885.214,0,0
212532.7,488.515,-883.202,0,0
212793.025,481.063,-881.215,0,0
213053.35,473.942,-879.375,0,0
213313.675,466.559,-877.249,0,0
213574.0,459.65,-874.605,0,0
213834.325,453.074,-871.681,0,0
214094.65,447.064,-868.651,0,0
214354.975,441.378,-865.65,0,0
214615.3,436.14,-862.643,0,0
214875.625,431.049,-859.857,0,0
215135.95,426.17,-857.121,0,0
215396.275,421.318,-854.377,0,0
215656.6,416.575,-851.659,0,0
215916.925,412.114,-848.654,0,0
216177.25,407.713,-845.572,0,0
216437.575,403.587,-842.504,0,0
216697.9,399.766,-839.315,0,0
216958.225,396.132,-836.21,0,0
217218.55,392.72,-833.088,0,0
217478.875,389.428,-829.934,0,0
217739.2,386.488,-826.764,0,0
217999.525,383.778,-823.655,0,0
218259.85,381.355,-820.693,0,0
218520,379.031,-817.937,0,0
218780,376.706,-815.187,0,0
219041,374.623,-812.339,0,0
219301,372.763,-809.633,0,0
219561,371.191,-807.157,0,0
219822,369.613,-804.835,0,0
220082,368.195,-802.665,0,0
220342,366.677,-800.702,0,0
220603,365.042,-798.666,0,0
220863,363.434,-796.667,0,0
221123,361.929,-794.548,0,0
221384,360.629,-792.257,0,0
221644,359.538,-789.965,0,0
221904,358.779,-787.865,0,0
222165,358.225,-785.823,0,0
222425,357.954,-784.041,0,0
222685,357.831,-782.517,0,0
222946,357.691,-781.345,0,0
223206,357.513,-780.418,0,0
223466,357.371,-779.897,0,0
223727,357.113,-779.426,0,0
223987,356.583,-779.063,0,0
224247,355.894,-778.718,0,0
224508,355.248,-778.39,0,0
224768,354.589,-778.099,0,0
225028,353.923,-777.789,0,0
225289,353.122,-777.704,0,0
225549,352.396,-777.478,0,0
225809,351.613,-777.236,0,0
226070,350.855,-776.836,0,0
226330,350.422,-776.668,0,0
226590,350.031,-776.577,0,0
226851,349.707,-776.647,0,0
227111,349.336,-777.046,0,0
227371,348.921,-777.444,0,0
227632,348.557,-777.986,0,0
227892,348.182,-778.757,0,0
228152,347.778,-779.636,0,0
228413,347.345,-780.769,0,0
228673,346.849,-782.183,0,0
228933,346.069,-783.836,0,0
229193,345.013,-785.774,0,0
229454,343.655,-787.79,0,0
229714,341.933,-789.782,0,0
229974,339.943,-791.703,0,0
230235,337.72,-793.558,0,0
230495,335.266,-795.406,0,0
230755,332.57,-797.036,0,0
231016,329.902,-798.585,0,0
231276,326.931,-799.978,0,0
231536,323.845,-801.308,0,0
231797,320.54,-802.387,0,0
232057,317.304,-803.251,0,0
232317,314.054,-804.068,0,0
232578,310.685,-804.756,0,0
232838,307.316,-805.29,0,0
233098,303.878,-805.764,0,0
233359,300.396,-805.975,0,0
233619,296.894,-806.072,0,0
233879,293.495,-806.016,0,0
234140,290.207,-805.969,0,0
234400,286.903,-805.847,0,0
234660.3,283.613,-805.698,0,0
234920.625,280.281,-805.647,0,0
235180.95,276.965,-805.366,0,0
235441.275,273.443,-805.148,0,0
235701.6,269.89,-804.741,0,0
235961.925,266.372,-804.223,0,0
236222.25,262.84,-803.562,0,0
236482.575,259.388,-802.695,0,0
236742.9,255.907,-801.851,0,0
237003.225,252.494,-800.975,0,0
237263.55,248.981,-799.98,0,0
237523.875,245.498,-798.834,0,0
237784.2,242.016,-797.589,0,0
238044.525,238.56,-796.057,0,0
238304.85,235.277,-794.408,0,0
238565.175,232.145,-792.709,0,0
238825.5,229.16,-790.949,0,0
239085.825,226.246,-789.222,0,0
239346.15,223.285,-787.459,0,0
239606.475,220.55,-785.588,0,0
239866.8,217.791,-783.654,0,0
240127.125,215.056,-781.678,0,0
240387.45,212.468,-779.758,0,0
240647.775,209.984,-777.674,0,0
240908.1,207.562,-775.628,0,0
241168.425,205.315,-773.534,0,0
241428.75,203.107,-771.41,0,0
241689.075,201.039,-769.332,0,0
241949.4,199.075,-767.298,0,0
242209.725,197.158,-765.296,0,0
242470.05,195.31,-763.277,0,0
242730.375,193.473,-761.323,0,0
242990.7,191.871,-759.348,0,0
243251.025,190.282,-757.507,0,0
243511.35,188.778,-755.794,0,0
243771.675,187.257,-754.167,0,0
244032.0,185.638,-752.589,0,0
244292.325,184.104,-751.134,0,0
244552.65,182.43,-749.669,0,0
244812.975,180.791,-748.286,0,0
245073.3,179.102,-746.974,0,0
245333.625,177.478,-745.633,0,0
245593.95,175.752,-744.38,0,0
245854.275,173.957,-743.298,0,0
246114.6,171.976,-742.36,0,0
246374.925,169.763,-741.332,0,0
246635.25,167.319,-740.309,0,0
246895.575,164.576,-739.106,0,0
247155.9,161.716,-737.505,0,0
247416.225,158.877,-735.63,0,0
247676.55,156.14,-733.581,0,0
247936.875,153.444,-731.333,0,0
248197.2,150.839,-729.016,0,0
248457.525,148.364,-726.429,0,0
248717.85,145.924,-723.907,0,0
248978.175,143.613,-721.243,0,0
249238.5,141.295,-718.433,0,0
249498.825,139.095,-715.605,0,0
249759.15,137.015,-712.617,0,0
250019.475,135.04,-709.489,0,0
250279.8,133.127,-706.376,0,0
250540,131.42,-703.081,0,0
250800,129.814,-699.787,0,0
251061,128.395,-696.432,0,0
251321,127.159,-693.069,0,0
251581,126.015,-689.726,0,0
251842,125,-686.393,0,0
252102,124.065,-683.068,0,0
252362,123.221,-679.71,0,0
252623,122.529,-676.396,0,0
252883,121.937,-673.029,0,0
253143,121.562,-669.727,0,0
253404,121.24,-666.536,0,0
253664,120.982,-663.432,0,0
253924,120.756,-660.382,0,0
254185,120.525,-657.302,0,0
254445,120.362,-654.244,0,0
254705,120.294,-651.124,0,0
254966,120.237,-648.015,0,0
255226,120.315,-644.936,0,0
255486,120.479,-641.801,0,0
255747,120.828,-638.709,0,0
256007,121.235,-635.619,0,0
256267,121.799,-632.558,0,0
256528,122.5,-629.601,0,0
256788,123.274,-626.707,0,0
257048,124.151,-623.89,0,0
257309,125.122,-621.178,0,0
257569,126.187,-618.532,0,0
257829,127.278,-616.05,0,0
258090,128.444,-613.617,0,0
258350,129.608,-611.287,0,0
258610,130.81,-609.043,0,0
258871,132.012,-606.824,0,0
259131,133.237,-604.647,0,0
259391,134.545,-602.468,0,0
259651,135.943,-600.355,0,0
259912,137.451,-598.318,0,0
260172,139.031,-596.38,0,0
260432,140.683,-594.56,0,0
260693,142.365,-592.867,0,0
260953,144.154,-591.262,0,0
261213,145.945,-589.796,0,0
261474,147.782,-588.47,0,0
261734,149.634,-587.323,0,0
261994,151.459,-586.349,0,0
262255,153.179,-585.467,0,0
262515,154.854,-584.658,0,0
262775,156.494,-583.936,0,0
263036,158.124,-583.251,0,0
263296,159.742,-582.602,0,0
263556,161.448,-582.034,0,0
263817,163.181,-581.648,0,0
264077,164.854,-581.458,0,0
264337,166.465,-581.421,0,0
264598,167.957,-581.532,0,0
264858,169.29,-581.73,0,0
265118,170.455,-582.176,0,0
265379,171.454,-582.512,0,0
265639,172.283,-582.874,0,0
265899,172.911,-583.197,0,0
266160,173.425,-583.458,0,0
266420,173.901,-583.584,0,0
266680.25,174.331,-583.56,0,0
266940.575,174.852,-583.537,0,0
267200.9,175.441,-583.554,0,0
267461.225,176.02,-583.651,0,0
267721.55,176.51,-583.826,0,0
267981.875,176.905,-584.063,0,0
268242.2,177.15,-584.329,0,0
268502.525,177.284,-584.527,0,0
268762.85,177.239,-584.715,0,0
269023.175,177.106,-584.731,0,0
269283.5,176.771,-584.615,0,0
269543.825,176.555,-584.276,0,0
269804.15,176.224,-583.762,0,0
270064.475,176.042,-583.04,0,0
270324.8,175.984,-582.214,0,0
270585.125,176.043,-581.298,0,0
270845.45,176.225,-580.19,0,0
271105.775,176.617,-579.021,0,0
271366.1,177.266,-577.84,0,0
271626.425,178.18,-576.691,0,0
271886.75,179.228,-575.71,0,0
272147.075,180.375,-574.852,0,0
272407.4,181.554,-574.048,0,0
272667.725,182.798,-573.213,0,0
272928.05,184.205,-572.394,0,0
273188.375,185.845,-571.607,0,0
273448.7,187.708,-570.908,0,0
273709.025,189.844,-570.364,0,0
273969.35,192.213,-570.071,0,0
274229.675,194.819,-570.122,0,0
274490.0,197.573,-570.516,0,0
274750.325,200.415,-571.365,0,0
275010.65,203.219,-572.711,0,0
275270.975,205.865,-574.472,0,0
275531.3,208.435,-576.695,0,0
275791.625,210.735,-579.299,0,0
276051.95,212.741,-582.351,0,0
276312.275,214.274,-585.749,0,0
276572.6,215.309,-589.399,0,0
276832.925,215.834,-593.202,0,0
277093.25,215.776,-597.008,0,0
277353.575,215.131,-600.717,0,0
277613.9,214.088,-604.232,0,0
277874.225,212.752,-607.499,0,0
278134.55,211.065,-610.522,0,0
278394.875,209.141,-613.249,0,0
278655.2,207.093,-615.689,0,0
278915.525,204.964,-617.911,0,0
279175.85,202.707,-619.931,0,0
279436.175,200.413,-621.735,0,0
279696.5,198.025,-623.354,0,0
279956.825,195.65,-624.811,0,0
280217.15,193.273,-626.116,0,0
280477.475,190.889,-627.298,0,0
280737.8,188.472,-628.376,0,0
280998.125,186.019,-629.436,0,0
281258.45,183.495,-630.385,0,0
281518.775,180.89,-631.249,0,0
281779.1,178.199,-631.996,0,0
282039.425,175.419,-632.63,0,0
282299.75,172.535,-633.15,0,0
282560,169.512,-633.501,0,0
282820,166.347,-633.598,0,0
283081,163.131,-633.361,0,0
283341,159.969,-632.778,0,0
283601,156.958,-631.856,0,0
283862,154.245,-630.677,0,0
284122,151.883,-629.429,0,0
284382,149.816,-628.255,0,0
284643,147.883,-627.296,0,0
284903,145.891,-626.568,0,0
285163,143.729,-625.943,0,0
285424,141.274,-625.267,0,0
285684,138.671,-624.397,0,0
285944,135.956,-623.268,0,0
286205,133.178,-621.939,0,0
286465,130.353,-620.296,0,0
286725,127.535,-618.359,0,0
286986,124.789,-616.068,0,0
287246,122.239,-613.447,0,0
287506,119.886,-610.532,0,0
287767,117.797,-607.354,0,0
288027,116.011,-603.917,0,0
288287,114.571,-600.294,0,0
288548,113.502,-596.509,0,0
288808,112.827,-592.57,0,0
289068,112.602,-588.551,0,0
289329,112.916,-584.531,0,0
289589,113.724,-580.587,0,0
289849,115.091,-576.823,0,0
290109,116.927,-573.408,0,0
290370,119.176,-570.371,0,0
290630,121.714,-567.843,0,0
290890,124.432,-565.766,0,0
291151,127.304,-564.145,0,0
291411,130.257,-563.03,0,0
291671,133.169,-562.391,0,0
291932,136.016,-562.214,0,0
292192,138.738,-562.508,0,0
292452,141.246,-563.221,0,0
292713,143.479,-564.328,0,0
292973,145.363,-565.827,0,0
293233,146.776,-567.618,0,0
293494,147.616,-569.575,0,0
293754,147.854,-571.449,0,0
294014,147.605,-573.096,0,0
294275,146.994,-574.378,0,0
294535,146.183,-575.194,0,0
294795,145.335,-575.52,0,0
295056,144.701,-575.38,0,0
295316,144.544,-574.888,0,0
295576,145.024,-574.355,0,0
295837,146.081,-574.203,0,0
296097,147.443,-574.669,0,0
296357,148.82,-575.857,0,0
296618,149.879,-577.698,0,0
296878,150.369,-579.992,0,0
297138,150.2,-582.5,0,0
297399,149.366,-584.949,0,0
297659,147.991,-587.143,0,0
297919,146.232,-588.96,0,0
298180,144.271,-590.377,0,0
298440,142.221,-591.416,0,0
298700.2,140.192,-592.156,0,0
298960.525,138.218,-592.638,0,0
299220.85,136.372,-592.955,0,0
299481.175,134.559,-593.228,0,0
299741.5,132.768,-593.461,0,0
300001.825,130.896,-593.568,0,0
300262.15,129.028,-593.522,0,0
300522.475,127.132,-593.335,0,0
300782.8,125.323,-592.931,0,0
301043.125,123.588,-592.4,0,0
301303.45,121.99,-591.742,0,0
301563.775,120.536,-590.955,0,0
301824.1,119.247,-590.113,0,0
302084.425,118.197,-589.275,0,0
302344.75,117.316,-588.505,0,0
302605.075,116.583,-587.857,0,0
302865.4,115.949,-587.365,0,0
303125.725,115.338,-587.086,0,0
303386.05,114.691,-586.977,0,0
303646.375,113.92,-587.021,0,0
303906.7,112.986,-587.138,0,0
304167.025,111.934,-587.283,0,0
304427.35,110.747,-587.421,0,0
304687.675,109.408,-587.541,0,0
304948.0,107.956,-587.668,0,0
305208.325,106.384,-587.672,0,0
305468.65,104.633,-587.582,0,0
305728.975,102.848,-587.344,0,0
305989.3,101.023,-586.945,0,0
306249.625,99.1879,-586.401,0,0
306509.95,97.3527,-585.715,0,0
306770.275,95.5839,-584.912,0,0
307030.6,93.8482,-583.98,0,0
307290.925,92.2139,-582.951,0,0
307551.25,90.6788,-581.861,0,0
307811.575,89.2317,-580.733,0,0
308071.9,87.8662,-579.593,0,0
308332.225,86.5356,-578.47,0,0
308592.55,85.2496,-577.322,0,0
308852.875,83.9748,-576.176,0,0
309113.2,82.7262,-574.993,0,0
309373.525,81.5424,-573.788,0,0
309633.85,80.3713,-572.545,0,0
309894.175,79.2238,-571.279,0,0
310154.5,78.16,-570.009,0,0
310414.825,77.1176,-568.709,0,0
310675.15,76.0988,-567.405,0,0
310935.475,75.1032,-566.078,0,0
311195.8,74.1643,-564.739,0,0
311456.125,73.2594,-563.356,0,0
311716.45,72.3994,-561.962,0,0
311976.775,71.6299,-560.543,0,0
312237.1,70.9196,-559.152,0,0
312497.425,70.2516,-557.803,0,0
312757.75,69.625,-556.489,0,0
313018.075,69.015,-555.195,0,0
313278.4,68.4102,-553.914,0,0
313538.725,67.8121,-552.67,0,0
313799.05,67.2356,-551.397,0,0
314059.375,66.682,-550.142,0,0
314319.7,66.1276,-548.892,0,0
314580,65.5333,-547.651,0,0
314840,65.0332,-546.455,0,0
315101,64.5446,-545.172,0,0
315361,63.9747,-543.925,0,0
315621,63.5009,-542.677,0,0
315882,62.9956,-541.467,0,0
316142,62.5482,-540.214,0,0
316402,62.0623,-538.859,0,0
316663,61.6564,-537.588,0,0
316923,61.3173,-536.285,0,0
317183,61.0247,-535.081,0,0
317444,60.7092,-533.761,0,0
317704,60.4378,-532.493,0,0
317964,60.2029,-531.23,0,0
318225,60.0162,-530.079,0,0
318485,59.7734,-528.856,0,0
318745,59.6025,-527.714,0,0
319006,59.4007,-526.58,0,0
319266,59.2376,-525.504,0,0
319526,59.0895,-524.407,0,0
319787,58.7869,-523.343,0,0
320047,58.6516,-522.225,0,0
320307,58.3091,-521.178,0,0
320567,58.173,-520.095,0,0
320828,57.964,-519.011,0,0
321088,57.7458,-517.902,0,0
321348,57.4973,-516.844,0,0
321609,57.3494,-515.737,0,0
321869,57.1651,-514.697,0,0
322129,57.0087,-513.583,0,0
322390,56.8687,-512.474,0,0
322650,56.5979,-511.36,0,0
322910,56.4788,-510.274,0,0
323171,56.2401,-509.173,0,0
323431,56.0651,-507.981,0,0
323691,55.8913,-506.763,0,0
323952,55.7527,-505.487,0,0
324212,55.6863,-504.266,0,0
324472,55.6535,-502.866,0,0
324733,55.6462,-501.496,0,0
324993,55.7871,-500.147,0,0
325253,55.9556,-498.771,0,0
325514,56.3341,-497.432,0,0
325774,56.79,-496.077,0,0
326034,57.3266,-494.822,0,0
326295,57.8615,-493.759,0,0
326555,58.4889,-492.709,0,0
326815,59.1606,-491.813,0,0
327076,59.7869,-491.059,0,0
327336,60.4269,-490.361,0,0
327596,60.9862,-489.817,0,0
327857,61.5314,-489.277,0,0
328117,61.9804,-488.79,0,0
328377,62.4015,-488.325,0,0
328638,62.7083,-487.839,0,0
328898,63.0943,-487.397,0,0
329158,63.4815,-486.909,0,0
329419,63.8148,-486.492,0,0
329679,64.1587,-486.224,0,0
329939,64.4194,-485.822,0,0
330200,64.7398,-485.528,0,0
330460,65.0351,-485.309,0,0
330720.15,65.2873,-485.125,0,0
330980.475,65.398,-484.91,0,0
331240.8,65.5425,-484.82,0,0
331501.125,65.6184,-484.714,0,0
331761.45,65.6299,-484.641,0,0
332021.775,65.5746,-484.557,0,0
332282.1,65.4931,-484.546,0,0
332542.425,65.2626,-484.47,0,0
332802.75,64.9773,-484.355,0,0
333063.075,64.6301,-484.235,0,0
333323.4,64.2163,-484.033,0,0
333583.725,63.7437,-483.761,0,0
333844.05,63.2489,-483.458,0,0
334104.375,62.8013,-483.121,0,0
334364.7,62.252,-482.683,0,0
334625.025,61.7848,-482.138,0,0
334885.35,61.285,-481.602,0,0
335145.675,60.861,-481.092,0,0
335406.0,60.3897,-480.489,0,0
335666.325,59.9411,-479.882,0,0
335926.65,59.5522,-479.268,0,0
336186.975,59.1174,-478.568,0,0
336447.3,58.7683,-477.871,0,0
336707.625,58.3646,-477.163,0,0
336967.95,57.9409,-476.513,0,0
337228.275,57.5996,-475.754,0,0
337488.6,57.2158,-474.959,0,0
337748.925,56.9066,-474.194,0,0
338009.25,56.5622,-473.426,0,0
338269.575,56.2572,-472.609,0,0
338529.9,55.9874,-471.798,0,0
338790.225,55.7481,-470.941,0,0
339050.55,55.5219,-470.112,0,0
339310.875,55.3222,-469.29,0,0
339571.2,55.0933,-468.44,0,0
339831.525,54.9266,-467.537,0,0
340091.85,54.7019,-466.715,0,0
340352.175,54.6105,-465.817,0,0
340612.5,54.4276,-465.03,0,0
340872.825,54.3019,-464.195,0,0
341133.15,54.2375,-463.351,0,0
341393.475,54.1363,-462.443,0,0
341653.8,54.03,-461.617,0,0
341914.125,53.9062,-460.762,0,0
342174.45,53.9013,-459.88,0,0
342434.775,53.8215,-459.046,0,0
342695.1,53.7712,-458.14,0,0
342955.425,53.7059,-457.278,0,0
343215.75,53.7684,-456.384,0,0
343476.075,53.7076,-455.528,0,0
343736.4,53.7705,-454.588,0,0
343996.725,53.8776,-453.721,0,0
344257.05,53.9573,-452.854,0,0
344517.375,54.0319,-452.025,0,0
344777.7,54.1507,-451.132,0,0
345038.025,54.3131,-450.236,0,0
345298.35,54.4579,-449.425,0,0
345558.675,54.615,-448.641,0,0
345819.0,54.805,-447.796,0,0
346079.325,55.0591,-447.017,0,0
346339.65,55.2473,-446.213,0,0
346599.975,55.5385,-445.428,0,0
346860,55.7528,-444.693,0,0
347121,56.0187,-443.948,0,0
347381,56.2691,-443.268,0,0
347641,56.5561,-442.542,0,0
347902,56.8416,-441.849,0,0
348162,57.0728,-441.195,0,0
348422,57.3869,-440.507,0,0
348683,57.6356,-439.805,0,0
348943,57.9754,-439.183,0,0
349203,58.2814,-438.539,0,0
349464,58.6559,-437.952,0,0
349724,59.0395,-437.329,0,0
349984,59.3854,-436.764,0,0
350245,59.7463,-436.24,0,0
350505,60.1323,-435.76,0,0
350765,60.4903,-435.298,0,0
351025,60.8729,-434.873,0,0
351286,61.1612,-434.464,0,0
351546,61.4893,-434.076,0,0
351806,61.7245,-433.702,0,0
352067,61.9903,-433.313,0,0
352327,62.2447,-432.919,0,0
352587,62.3938,-432.516,0,0
352848,62.6907,-432.076,0,0
353108,62.8641,-431.681,0,0
353368,63.0884,-431.247,0,0
353629,63.3385,-430.84,0,0
353889,63.5471,-430.427,0,0
354149,63.8036,-430,0,0
354410,64.0603,-429.583,0,0
354670,64.3218,-429.181,0,0
354930,64.5439,-428.827,0,0
355191,64.8634,-428.507,0,0
355451,65.0853,-428.087,0,0
355711,65.3096,-427.767,0,0
355972,65.5918,-427.387,0,0
356232,65.8437,-427.036,0,0
356492,66.0974,-426.706,0,0
356753,66.3696,-426.393,0,0
357013,66.6314,-426.025,0,0
357273,66.9953,-425.667,0,0
357534,67.2798,-425.346,0,0
357794,67.5999,-425.058,0,0
358054,67.94,-424.763,0,0
358315,68.3109,-424.592,0,0
358575,68.6396,-424.335,0,0
358835,69.0178,-424.172,0,0
359096,69.3874,-424.055,0,0
359356,69.7373,-423.942,0,0
359616,70.0683,-423.941,0,0
359877,70.3379,-423.966,0,0
360137,70.5959,-423.985,0,0
360397,70.8049,-424.035,0,0
360658,70.9256,-424.099,0,0
360918,70.9859,-424.153,0,0
361178,71.0558,-424.204,0,0
361438,71.1398,-424.202,0,0
361699,71.1445,-424.239,0,0
361959,71.119,-424.261,0,0
362219,71.1186,-424.258,0,0
362480,71.0971,-424.234,0,0
362740.1,71.0658,-424.225,0,0
363000.425,71.0541,-424.243,0,0
363260.75,70.9475,-424.245,0,0
363521.075,70.859,-424.261,0,0
363781.4,70.7185,-424.238,0,0
364041.725,70.5629,-424.211,0,0
364302.05,70.4044,-424.184,0,0
364562.375,70.1925,-424.108,0,0
364822.7,69.9457,-424.028,0,0
365083.025,69.7477,-423.947,0,0
365343.35,69.5516,-423.824,0,0
365603.675,69.285,-423.682,0,0
365864.0,69.0428,-423.476,0,0
366124.325,68.7956,-423.315,0,0
366384.65,68.5664,-423.067,0,0
366644.975,68.2966,-422.795,0,0
366905.3,68.142,-422.481,0,0
367165.625,67.9453,-422.14,0,0
367425.95,67.8194,-421.838,0,0
367686.275,67.6869,-421.506,0,0
367946.6,67.6338,-421.21,0,0
368206.925,67.6113,-420.888,0,0
368467.25,67.6293,-420.68,0,0
368727.575,67.6459,-420.44,0,0
368987.9,67.6309,-420.229,0,0
369248.225,67.6515,-420.129,0,0
369508.55,67.6524,-420.043,0,0
369768.875,67.6049,-420.018,0,0
370029.2,67.5296,-419.98,0,0
370289.525,67.3113,-419.953,0,0
370549.85,67.1152,-419.936,0,0
370810.175,66.8853,-419.856,0,0
371070.5,66.601,-419.725,0,0
371330.825,66.3071,-419.599,0,0
371591.15,66.0223,-419.425,0,0
371851.475,65.7521,-419.223,0,0
372111.8,65.4848,-419.06,0,0
372372.125,65.2146,-418.829,0,0
372632.45,65.0007,-418.6,0,0
372892.775,64.7503,-418.389,0,0
373153.1,64.4992,-418.207,0,0
373413.425,64.2832,-417.981,0,0
373673.75,64.1074,-417.776,0,0
373934.075,63.8329,-417.581,0,0
374194.4,63.5626,-417.412,0,0
374454.725,63.3122,-417.212,0,0
374715.05,63.0353,-417.04,0,0
374975.375,62.7209,-416.839,0,0
375235.7,62.4377,-416.69,0,0
375496.025,62.1012,-416.457,0,0
375756.35,61.7332,-416.173,0,0
376016.675,61.4006,-415.936,0,0
376277.0,61.0629,-415.671,0,0
376537.325,60.7548,-415.39,0,0
376797.65,60.469,-415.08,0,0
377057.975,60.1731,-414.798,0,0
377318.3,59.8926,-414.512,0,0
377578.625,59.659,-414.304,0,0
377838.95,59.3726,-414.08,0,0
378099.275,59.0625,-413.927,0,0
378359.6,58.6881,-413.79,0,0
378619.925,58.2163,-413.633,0,0
378880,57.746,-413.473,0,0
379141,57.1488,-413.26,0,0
379401,56.5094,-412.962,0,0
379661,55.8448,-412.586,0,0
379922,55.1241,-412.028,0,0
380182,54.4547,-411.36,0,0
380442,53.9441,-410.593,0,0
380703,53.5344,-409.815,0,0
380963,53.3066,-408.97,0,0
381223,53.1517,-408.178,0,0
381483,53.0951,-407.539,0,0
381744,53.1484,-407.001,0,0
382004,53.1274,-406.489,0,0
382264,53.1127,-406.109,0,0
382525,52.996,-405.811,0,0
382785,52.8653,-405.537,0,0
383045,52.6275,-405.273,0,0
383306,52.3771,-404.969,0,0
383566,52.0849,-404.654,0,0
383826,51.7145,-404.331,0,0
384087,51.3542,-403.989,0,0
384347,50.9873,-403.626,0,0
384607,50.5451,-403.176,0,0
384868,50.1457,-402.709,0,0
385128,49.7246,-402.222,0,0
385388,49.3213,-401.675,0,0
385649,48.974,-401.16,0,0
385909,48.5969,-400.619,0,0
386169,48.2068,-400.038,0,0
386430,47.8528,-399.415,0,0
386690,47.492,-398.815,0,0
386950,47.1523,-398.181,0,0
387211,46.8542,-397.53,0,0
387471,46.524,-396.872,0,0
387731,46.2748,-396.163,0,0
387992,46.0014,-395.458,0,0
388252,45.7627,-394.697,0,0
388512,45.5559,-393.997,0,0
388773,45.4137,-393.278,0,0
389033,45.2911,-392.515,0,0
389293,45.1795,-391.844,0,0
389554,45.1532,-391.083,0,0
389814,45.1414,-390.389,0,0
390074,45.1478,-389.731,0,0
390335,45.1842,-389.115,0,0
390595,45.2516,-388.557,0,0
390855,45.3071,-387.992,0,0
391116,45.3632,-387.49,0,0
391376,45.4074,-387.071,0,0
391636,45.4177,-386.682,0,0
391896,45.3893,-386.325,0,0
392157,45.2924,-386.019,0,0
392417,45.1283,-385.706,0,0
392677,44.9036,-385.361,0,0
392938,44.6345,-385.001,0,0
393198,44.3155,-384.619,0,0
393458,43.9766,-384.138,0,0
393719,43.6223,-383.634,0,0
393979,43.2377,-383.036,0,0
394239,42.8727,-382.439,0,0
394500,42.5202,-381.756,0,0
394760.05,42.189,-381.038,0,0
395020.375,41.9126,-380.311,0,0
395280.7,41.6921,-379.501,0,0
395541.025,41.464,-378.773,0,0
395801.35,41.2814,-377.915,0,0
396061.675,41.1709,-377.124,0,0
396322.0,41.0343,-376.293,0,0
396582.325,40.9677,-375.476,0,0
396842.65,40.9274,-374.668,0,0
397102.975,40.8845,-373.885,0,0
397363.3,40.8789,-373.071,0,0
397623.625,40.9004,-372.261,0,0
397883.95,40.9608,-371.494,0,0
398144.275,41.011,-370.751,0,0
398404.6,41.1217,-369.997,0,0
398664.925,41.1892,-369.259,0,0
398925.25,41.2999,-368.536,0,0
399185.575,41.4392,-367.848,0,0
399445.9,41.577,-367.151,0,0
399706.225,41.7065,-366.462,0,0
399966.55,41.8731,-365.79,0,0
400006.6,41.883,-365.674,0,0