File: Accelerated corrosion test data/2025-10-04_18-00-03/sample_7.csv
Frequency (Hz),Impedance (ohms),Phase (Radians),Temperature (C),Humidity (%)
10000.0,276.064,-12058.4,0,0
10260.325,279.439,-11767.7,0,0
10520.65,259.48,-11469.7,0,0
10780.975,253.975,-11188.8,0,0
11041.3,250.59,-10921.7,0,0
11301.625,247.871,-10666.8,0,0
11561.95,249.235,-10419.1,0,0
11822.275,260.505,-10189.3,0,0
12082.6,267.687,-9974.06,0,0
12342.925,321.709,-9779.05,0,0
12603.25,264.803,-9627.38,0,0
12863.575,265.94,-9414.12,0,0
13123.9,241.574,-9252.14,0,0
13384.225,234.115,-9073.13,0,0
13644.55,221.45,-8890.21,0,0
13904.875,210.032,-8730.93,0,0
14165.2,206.23,-8560.58,0,0
14425.525,211.33,-8420.65,0,0
14685.8,204.823,-8266.1,0,0
14946.175,199.694,-8120.21,0,0
15206.5,200.931,-7989.55,0,0
15466.825,185.367,-7850.93,0,0
15727.15,187.243,-7720.96,0,0
15987.5,180.913,-7593.72,0,0
16247.8,180.828,-7472.03,0,0
16508.125,173.09,-7353.45,0,0
16768.45,172.209,-7234.91,0,0
17028.775,172.413,-7124.27,0,0
17289.1,169.967,-7017.62,0,0
17549.425,168.749,-6907.79,0,0
17809.75,169.003,-6799.19,0,0
18070.075,172.913,-6704.16,0,0
18330.4,177.966,-6598.38,0,0
18590.725,198.228,-6510.47,0,0
18851.05,197.377,-6449.51,0,0
19111.375,185.971,-6367.26,0,0
19371.7,203.195,-6279.36,0,0
19632.025,174.163,-6220.14,0,0
19892.35,158.275,-6124.07,0,0
20152.675,168.484,-6036.3,0,0
20413.0,168.969,-5960.9,0,0
20673.3,170.106,-5887.01,0,0
20933.65,177.897,-5825.87,0,0
21193.975,162.296,-5767.41,0,0
21454.3,153.021,-5692.45,0,0
21714.625,154.682,-5620.85,0,0
21974.9,148.673,-5560.31,0,0
22235.275,141.916,-5492.57,0,0
22495.6,140.714,-5427.27,0,0
22755.925,135.986,-5366.13,0,0
23016.25,132.221,-5302.97,0,0
23276.6,129.516,-5240.83,0,0
23536.9,129.623,-5179.94,0,0
23797.225,130,-5124.54,0,0
24057.55,126.202,-5068.39,0,0
24317.875,124.221,-5011.52,0,0
24578.2,124.499,-4955.72,0,0
24838.525,123.425,-4903.02,0,0
25098.85,123.424,-4850.99,0,0
25359.175,121.096,-4799.31,0,0
25619.5,120.154,-4748.11,0,0
25879.8,120.857,-4697.42,0,0
26140.1,120.314,-4646.08,0,0
26400.5,123.781,-4597.24,0,0
26660.8,125.15,-4552.61,0,0
26921.1,124.746,-4504.01,0,0
27181.4,130.085,-4455.29,0,0
27441.8,136.129,-4412.04,0,0
27702.1,145.208,-4363.83,0,0
27962.4,159.716,-4323.92,0,0
28222.7,181.007,-4297.67,0,0
28483.1,179.853,-4283.86,0,0
28743.4,176.348,-4261.6,0,0
29003.7,159.256,-4234.23,0,0
29264,145.627,-4198.71,0,0
29524.4,136.938,-4158.06,0,0
29784.7,133.814,-4118.78,0,0
30045,128.925,-4078.56,0,0
30305.3,131.062,-4040.51,0,0
30565.7,134.88,-4006.8,0,0
30826,136.231,-3977.19,0,0
31086.3,136.322,-3947.4,0,0
31346.6,132.789,-3920.34,0,0
31607,131.1,-3891.61,0,0
31867.3,122.994,-3863.21,0,0
32127.6,118.495,-3830.83,0,0
32387.9,114.914,-3800.1,0,0
32648.3,111.736,-3769.98,0,0
32908.6,108.619,-3739.25,0,0
33168.9,105.92,-3709.77,0,0
33429.2,102.874,-3679.84,0,0
33689.6,100.23,-3650.21,0,0
33949.9,98.694,-3620.79,0,0
34210.2,96.9386,-3592.45,0,0
34470.5,95.0165,-3563.91,0,0
34730.9,93.9477,-3535.64,0,0
34991.2,92.7937,-3508.57,0,0
35251.5,91.8364,-3481.52,0,0
35511.8,90.717,-3454.83,0,0
35772.2,90.1656,-3428.44,0,0
36032.5,89.733,-3402.66,0,0
36292.8,89.3493,-3377.54,0,0
36553.1,88.3719,-3352.56,0,0
36813.5,87.4901,-3327.91,0,0
37073.8,87.5602,-3303.1,0,0
37334.1,87.2309,-3279.32,0,0
37594.4,87.0712,-3255.76,0,0
37854.8,86.7687,-3232.68,0,0
38115.1,85.9896,-3208.98,0,0
38375.4,86.6968,-3185.61,0,0
38635.7,87.6151,-3162.77,0,0
38896.1,88.8941,-3140.35,0,0
39156.4,91.1947,-3119.02,0,0
39416.7,93.2781,-3097.95,0,0
39677,96.5577,-3078.95,0,0
39937.4,98.698,-3062.33,0,0
40197.7,98.7404,-3046.51,0,0
40458,96.8696,-3030.61,0,0
40718.3,93.3024,-3012.9,0,0
40978.7,90.5716,-2994.69,0,0
41239,88.1431,-2975.34,0,0
41499.3,85.9178,-2956.16,0,0
41759.6,84.9871,-2936.88,0,0
42020,83.3012,-2918.73,0,0
42280.275,81.9856,-2899.25,0,0
42540.6,81.0277,-2879.82,0,0
42800.925,81.8171,-2861.2,0,0
43061.25,81.0583,-2843.82,0,0
43321.575,82.1833,-2826.42,0,0
43581.9,81.107,-2809.77,0,0
43842.225,80.503,-2791.72,0,0
44102.55,81.4199,-2774.43,0,0
44362.875,83.0851,-2757.74,0,0
44623.2,83.699,-2743.32,0,0
44883.525,83.5942,-2729.42,0,0
45143.85,81.5567,-2714.45,0,0
45404.175,80.0902,-2698.7,0,0
45664.5,80.0731,-2681.95,0,0
45924.825,81.1983,-2667.92,0,0
46185.15,80.0452,-2654.65,0,0
46445.475,78.9015,-2640.63,0,0
46705.8,76.824,-2626.5,0,0
46966.125,74.3227,-2611.57,0,0
47226.45,72.8682,-2595.77,0,0
47486.775,72.3736,-2580.38,0,0
47747.1,72.1986,-2565.81,0,0
48007.425,71.7053,-2551.2,0,0
48267.75,71.0031,-2537.21,0,0
48528.075,70.5903,-2523.27,0,0
48788.4,69.9948,-2509.27,0,0
49048.725,69.3276,-2495.56,0,0
49309.05,69.1347,-2481.85,0,0
49569.375,68.4859,-2468.25,0,0
49829.7,68.0949,-2454.94,0,0
50090.025,67.7474,-2441.52,0,0
50350.35,67.3715,-2428.74,0,0
50610.675,67.0668,-2415.63,0,0
50871.0,66.8008,-2402.87,0,0
51131.325,66.3299,-2390.19,0,0
51391.65,66.1832,-2377.63,0,0
51651.975,65.8837,-2365.28,0,0
51912.3,65.4639,-2352.86,0,0
52172.625,65.2073,-2340.49,0,0
52432.95,65.1632,-2328.54,0,0
52693.275,64.883,-2316.65,0,0
52953.6,64.8316,-2304.98,0,0
53213.925,64.7621,-2293.21,0,0
53474.25,64.5488,-2281.95,0,0
53734.575,64.2888,-2270.73,0,0
53994.9,63.822,-2259.53,0,0
54255.225,63.5131,-2248.23,0,0
54515.55,63.3845,-2237.11,0,0
54775.875,62.9027,-2226.1,0,0
55036.2,62.7992,-2215.17,0,0
55296.525,62.5927,-2204.2,0,0
55556.85,62.3656,-2193.44,0,0
55817.175,62.2278,-2182.82,0,0
56077.5,61.9683,-2172.35,0,0
56337.825,61.891,-2161.75,0,0
56598.15,61.833,-2151.51,0,0
56858.475,61.6239,-2141.3,0,0
57118.8,61.444,-2131.18,0,0
57379.125,61.2262,-2121.24,0,0
57639.45,61.0287,-2111.24,0,0
57899.775,60.9063,-2101.13,0,0
58160.1,60.8575,-2091.12,0,0
58420.4,60.8577,-2081.37,0,0
58680.7,61.3073,-2071.82,0,0
58941.1,61.2771,-2062.8,0,0
59201.4,60.9866,-2053.44,0,0
59461.7,60.9238,-2043.86,0,0
59722,61.2842,-2034.95,0,0
59982.4,61.0546,-2026.15,0,0
60242.7,61.0454,-2017.25,0,0
60503,60.9466,-2008.64,0,0
60763.3,60.498,-2000.12,0,0
61023.7,60.1765,-1991.45,0,0
61284,59.7598,-1982.73,0,0
61544.3,59.4279,-1974.02,0,0
61804.6,58.9726,-1965.49,0,0
62065,58.5564,-1956.8,0,0
62325.3,58.2411,-1948.25,0,0
62585.6,57.9269,-1939.65,0,0
62845.9,57.7187,-1931.14,0,0
63106.3,57.5951,-1922.87,0,0
63366.6,57.3277,-1914.36,0,0
63626.9,57.481,-1906.14,0,0
63887.2,57.0973,-1898.43,0,0
64147.6,56.6382,-1890.1,0,0
64407.9,56.4882,-1881.9,0,0
64668.2,56.417,-1873.85,0,0
64928.5,56.3309,-1865.81,0,0
65188.9,56.4404,-1857.84,0,0
65449.2,56.5343,-1850.08,0,0
65709.5,56.711,-1842.73,0,0
65969.8,56.4805,-1835.51,0,0
66230.2,56.2189,-1828.16,0,0
66490.5,55.8843,-1820.74,0,0
66750.8,55.5739,-1813.42,0,0
67011.1,55.1197,-1806.12,0,0
67271.5,54.8306,-1798.76,0,0
67531.8,54.4487,-1791.26,0,0
67792.1,54.3046,-1783.99,0,0
68052.4,54.002,-1776.58,0,0
68312.8,53.7265,-1769.24,0,0
68573.1,53.561,-1762.04,0,0
68833.4,53.4529,-1754.93,0,0
69093.7,53.2022,-1747.72,0,0
69354.1,53.3603,-1740.66,0,0
69614.4,53.1501,-1733.78,0,0
69874.7,53.1291,-1726.75,0,0
70135,53.0382,-1719.89,0,0
70395.4,52.8001,-1713.15,0,0
70655.7,52.8017,-1706.44,0,0
70916,52.8578,-1699.77,0,0
71176.3,52.8706,-1693.41,0,0
71436.7,52.3822,-1687.01,0,0
71697,52.4569,-1680.43,0,0
71957.3,52.2208,-1674.05,0,0
72217.6,52.0083,-1667.58,0,0
72478,51.7037,-1661.1,0,0
72738.3,51.5724,-1654.75,0,0
72998.6,51.3103,-1648.35,0,0
73258.9,51.1542,-1642.01,0,0
73519.3,51.0474,-1635.74,0,0
73779.6,50.9565,-1629.4,0,0
74039.9,50.7395,-1623.16,0,0
74300.225,50.71,-1616.99,0,0
74560.55,50.5608,-1610.87,0,0
74820.875,50.5108,-1604.77,0,0
75081.2,50.4042,-1598.72,0,0
75341.525,50.3059,-1592.65,0,0
75601.85,50.2268,-1586.66,0,0
75862.175,50.1328,-1580.83,0,0
76122.5,49.9734,-1574.88,0,0
76382.825,49.8992,-1568.99,0,0
76643.15,49.8277,-1563.14,0,0
76903.475,49.7729,-1557.37,0,0
77163.8,49.6871,-1551.61,0,0
77424.125,49.6418,-1545.85,0,0
77684.45,49.5429,-1540.12,0,0
77944.775,49.5109,-1534.52,0,0
78205.1,49.4202,-1528.99,0,0
78465.425,49.4344,-1523.34,0,0
78725.75,49.3428,-1517.74,0,0
78986.075,49.2864,-1512.29,0,0
79246.4,49.2808,-1506.8,0,0
79506.725,49.2513,-1501.35,0,0
79767.05,49.1661,-1495.98,0,0
80027.375,49.124,-1490.55,0,0
80287.7,49.0979,-1485.3,0,0
80548.025,49.1286,-1479.97,0,0
80808.35,49.0315,-1474.71,0,0
81068.675,48.934,-1469.51,0,0
81329.0,48.8705,-1464.3,0,0
81589.325,48.8326,-1459.04,0,0
81849.65,48.8048,-1453.92,0,0
82109.975,48.7638,-1448.73,0,0
82370.3,48.686,-1443.56,0,0
82630.625,48.7026,-1438.45,0,0
82890.95,48.7738,-1433.38,0,0
83151.275,48.7175,-1428.45,0,0
83411.6,48.6693,-1423.47,0,0
83671.925,48.6134,-1418.34,0,0
83932.25,48.6325,-1413.36,0,0
84192.575,48.7071,-1408.48,0,0
84452.9,48.7484,-1403.52,0,0
84713.225,48.8319,-1398.68,0,0
84973.55,48.8907,-1393.97,0,0
85233.875,48.8404,-1389.14,0,0
85494.2,48.9128,-1384.46,0,0
85754.525,48.8803,-1379.74,0,0
86014.85,48.8251,-1375.01,0,0
86275.175,48.8372,-1370.28,0,0
86535.5,48.998,-1365.63,0,0
86795.825,48.8393,-1361.13,0,0
87056.15,48.8403,-1356.48,0,0
87316.475,48.9014,-1351.78,0,0
87576.8,48.9156,-1347.24,0,0
87837.125,49.0141,-1342.67,0,0
88097.45,49.1864,-1338.21,0,0
88357.775,49.0954,-1333.86,0,0
88618.1,49.1579,-1329.45,0,0
88878.425,49.1184,-1325.01,0,0
89138.75,48.9934,-1320.57,0,0
89399.075,48.966,-1316.01,0,0
89659.4,48.9937,-1311.68,0,0
89919.725,48.9764,-1307.2,0,0
90180,49.1897,-1302.73,0,0
90440.4,49.0645,-1298.35,0,0
90700.7,49.2124,-1294.03,0,0
90961,49.337,-1289.7,0,0
91221.3,49.4684,-1285.51,0,0
91481.7,49.5398,-1281.12,0,0
91742,49.6979,-1276.91,0,0
92002.3,49.7606,-1272.81,0,0
92262.6,49.8164,-1268.61,0,0
92523,49.8878,-1264.51,0,0
92783.3,49.8317,-1260.39,0,0
93043.6,49.7508,-1256.09,0,0
93303.9,49.7957,-1251.68,0,0
93564.3,50.2533,-1247.31,0,0
93824.6,50.653,-1242.97,0,0
94084.9,51.4479,-1238.78,0,0
94345.2,52.384,-1235.19,0,0
94605.6,52.8704,-1231.89,0,0
94865.9,52.9137,-1228.84,0,0
95126.2,52.6058,-1225.41,0,0
95386.5,52.498,-1221.69,0,0
95646.9,52.3003,-1218.4,0,0
95907.2,51.6704,-1214.52,0,0
96167.5,51.2802,-1210.41,0,0
96427.8,51.2682,-1206.37,0,0
96688.2,51.1294,-1202.34,0,0
96948.5,51.1873,-1198.37,0,0
97208.8,51.2354,-1194.46,0,0
97469.1,51.2739,-1190.56,0,0
97729.5,51.2946,-1186.6,0,0
97989.8,51.4642,-1182.65,0,0
98250.1,51.7963,-1178.82,0,0
98510.4,52.0493,-1175.09,0,0
98770.8,52.3018,-1171.62,0,0
99031.1,52.2282,-1168.18,0,0
99291.4,52.0528,-1164.53,0,0
99551.7,52.0202,-1160.72,0,0
99812.1,51.7873,-1156.97,0,0
100072,51.7758,-1152.8,0,0
100333,52.1556,-1148.84,0,0
100593,52.5521,-1145.09,0,0
100853,52.8247,-1141.49,0,0
101114,53.1001,-1137.7,0,0
101374,53.4685,-1134.11,0,0
101634,53.814,-1130.53,0,0
101895,54.0707,-1126.95,0,0
102155,54.3676,-1123.33,0,0
102415,54.7301,-1119.75,0,0
102676,55.1993,-1116.21,0,0
102936,55.6571,-1112.81,0,0
103196,56.1522,-1109.29,0,0
103457,56.7149,-1106.11,0,0
103717,57.2021,-1102.77,0,0
103977,57.9475,-1099.94,0,0
104238,57.9614,-1097.21,0,0
104498,57.9624,-1093.83,0,0
104758,58.4175,-1090.64,0,0
105019,58.721,-1087.89,0,0
105279,58.6443,-1085.09,0,0
105539,58.383,-1081.95,0,0
105800,58.2991,-1078.65,0,0
106060,58.3411,-1075.32,0,0
106320.175,58.3287,-1072.2,0,0
106580.5,58.2461,-1068.74,0,0
106840.825,58.3802,-1065.28,0,0
107101.15,58.7291,-1061.84,0,0
107361.475,59.1402,-1058.73,0,0
107621.8,59.2811,-1055.62,0,0
107882.125,59.4807,-1052.32,0,0
108142.45,59.7772,-1049.14,0,0
108402.775,60.0797,-1046.09,0,0
108663.1,60.1743,-1043.08,0,0
108923.425,60.3729,-1040.01,0,0
109183.75,60.3375,-1036.85,0,0
109444.075,60.4881,-1033.67,0,0
109704.4,60.533,-1030.47,0,0
109964.725,60.5761,-1027.09,0,0
110225.05,60.6683,-1023.69,0,0
110485.375,60.8297,-1020.07,0,0
110745.7,61.2973,-1016.41,0,0
111006.025,62.0434,-1012.91,0,0
111266.35,62.8623,-1009.44,0,0
111526.675,63.5077,-1006.54,0,0
111787.0,64.0767,-1003.32,0,0
112047.325,64.7531,-1000.05,0,0
112307.65,65.5036,-996.792,0,0
112567.975,66.5201,-993.7,0,0
112828.3,67.3985,-990.681,0,0
113088.625,68.4101,-987.497,0,0
113348.95,69.6693,-984.543,0,0
113609.275,70.885,-982.086,0,0
113869.6,71.6751,-979.704,0,0
114129.925,72.4403,-976.815,0,0
114390.25,73.5045,-974.087,0,0
114650.575,74.7122,-971.479,0,0
114910.9,75.7611,-969.179,0,0
115171.225,76.6918,-966.757,0,0
115431.55,77.7444,-964.118,0,0
115691.875,78.9833,-961.723,0,0
115952.2,80.3395,-959.299,0,0
116212.525,82.0676,-957.105,0,0
116472.85,83.8731,-955.387,0,0
116733.175,85.5029,-954.208,0,0
116993.5,86.6433,-953.332,0,0
117253.825,87.3745,-952.357,0,0
117514.15,87.9605,-951.262,0,0
117774.475,88.6261,-950.2,0,0
118034.8,88.9375,-949.236,0,0
118295.125,89.1545,-947.916,0,0
118555.45,89.7825,-946.294,0,0
118815.775,91.0238,-945.452,0,0
119076.1,91.6092,-945.431,0,0
119336.425,91.5603,-945.33,0,0
119596.75,91.2939,-945.161,0,0
119857.075,90.7007,-945.238,0,0
120117.4,89.4298,-945.237,0,0
120377.725,87.786,-944.738,0,0
120638.05,85.9614,-944.06,0,0
120898.375,83.7052,-943.002,0,0
121158.7,81.5747,-941.375,0,0
121419.025,79.208,-939.459,0,0
121679.35,77.0839,-936.768,0,0
121939.675,75.6244,-933.895,0,0
122200.0,74.5103,-931.367,0,0
122460,73.1913,-928.924,0,0
122721,71.9052,-926.304,0,0
122981,70.8485,-923.601,0,0
123241,69.8002,-920.991,0,0
123502,68.6371,-918.451,0,0
123762,67.3604,-915.613,0,0
124022,66.4317,-912.463,0,0
124283,65.8362,-909.533,0,0
124543,65.1498,-906.758,0,0
124803,64.4931,-903.832,0,0
125064,64.217,-901.086,0,0
125324,63.6662,-898.806,0,0
125584,62.6657,-896.369,0,0
125845,61.6094,-893.488,0,0
126105,60.8642,-890.503,0,0
126365,60.2379,-887.573,0,0
126626,59.5821,-884.809,0,0
126886,58.8603,-881.723,0,0
127146,58.3119,-878.837,0,0
127406,57.6155,-875.727,0,0
127667,57.2853,-872.487,0,0
127927,57.0616,-869.4,0,0
128187,56.8701,-866.428,0,0
128448,56.6317,-863.578,0,0
128708,56.3418,-860.689,0,0
128968,56.073,-857.803,0,0
129229,55.7924,-854.871,0,0
129489,55.6504,-851.946,0,0
129749,55.5642,-849.21,0,0
130010,55.1254,-846.428,0,0
130270,54.8131,-843.398,0,0
130530,54.6313,-840.336,0,0
130791,54.599,-837.417,0,0
131051,54.5599,-834.569,0,0
131311,54.4347,-831.768,0,0
131572,54.134,-828.935,0,0
131832,53.8596,-825.888,0,0
132092,53.738,-822.777,0,0
132353,53.7252,-819.663,0,0
132613,53.7108,-816.502,0,0
132873,53.7937,-813.363,0,0
133134,53.9954,-810.262,0,0
133394,54.1685,-807.145,0,0
133654,54.4307,-804.002,0,0
133915,54.8247,-800.792,0,0
134175,55.3965,-797.667,0,0
134435,56.0459,-794.627,0,0
134696,56.8769,-791.64,0,0
134956,57.7548,-789.076,0,0
135216,58.3526,-786.433,0,0
135477,59.1011,-783.793,0,0
135737,59.889,-781.216,0,0
135997,60.8767,-778.657,0,0
136258,62.168,-776.471,0,0
136518,63.203,-774.884,0,0
136778,63.732,-773.56,0,0
137039,63.8648,-772.128,0,0
137299,63.6136,-770.602,0,0
137559,63.0839,-768.651,0,0
137819,62.7149,-766.379,0,0
138080,62.4827,-764.031,0,0
138340.125,62.2536,-761.717,0,0
138600.45,61.9749,-759.364,0,0
138860.775,61.6182,-756.86,0,0
139121.1,61.2967,-754.23,0,0
139381.425,61.1296,-751.341,0,0
139641.75,61.2342,-748.506,0,0
139902.075,61.4364,-745.881,0,0
140162.4,61.4863,-743.191,0,0
140422.725,61.686,-740.508,0,0
140683.05,61.9156,-737.973,0,0
140943.375,61.9814,-735.503,0,0
141203.7,62.0038,-732.867,0,0
141464.025,62.1259,-730.204,0,0
141724.35,62.1663,-727.539,0,0
141984.675,62.2337,-724.765,0,0
142245.0,62.4986,-721.924,0,0
142505.325,62.7882,-719.19,0,0
142765.65,63.0841,-716.461,0,0
143025.975,63.3592,-713.744,0,0
143286.3,63.774,-710.975,0,0
143546.625,64.2371,-708.166,0,0
143806.95,64.8437,-705.534,0,0
144067.275,65.3809,-703.103,0,0
144327.6,65.7931,-700.736,0,0
144587.925,66.1205,-698.324,0,0
144848.25,66.3813,-695.841,0,0
145108.575,66.669,-693.325,0,0
145368.9,67.008,-690.856,0,0
145629.225,67.1858,-688.404,0,0
145889.55,67.3365,-685.819,0,0
146149.875,67.453,-683.151,0,0
146410.2,67.695,-680.344,0,0
146670.525,68.1465,-677.593,0,0
146930.85,68.5653,-674.982,0,0
147191.175,68.9412,-672.365,0,0
147451.5,69.2822,-669.844,0,0
147711.825,69.4717,-667.283,0,0
147972.15,69.6543,-664.496,0,0
148232.475,70.0382,-661.712,0,0
148492.8,70.3833,-659.066,0,0
148753.125,70.6414,-656.395,0,0
149013.45,70.879,-653.7,0,0
149273.775,71.0615,-650.979,0,0
149534.1,71.0897,-648.159,0,0
149794.425,71.1533,-645.113,0,0
150054.75,71.3709,-641.97,0,0
150315.075,71.6227,-638.829,0,0
150575.4,71.9229,-635.62,0,0
150835.725,72.2264,-632.372,0,0
151096.05,72.5824,-628.997,0,0
151356.375,73.0213,-625.544,0,0
151616.7,73.5657,-622.005,0,0
151877.025,74.2223,-618.428,0,0
152137.35,75.0236,-614.81,0,0
152397.675,75.9255,-611.224,0,0
152658.0,76.8872,-607.622,0,0
152918.325,77.9719,-603.926,0,0
153178.65,79.2074,-600.31,0,0
153438.975,80.5498,-596.756,0,0
153699.3,81.9082,-593.301,0,0
153959.625,83.237,-589.826,0,0
154219.95,84.6154,-586.208,0,0
154480,86.245,-582.557,0,0
154741,87.9107,-578.919,0,0
155001,89.7597,-575.373,0,0
155261,91.7213,-571.966,0,0
155522,93.7944,-568.543,0,0
155782,95.9519,-565.19,0,0
156042,98.2733,-561.892,0,0
156303,100.63,-558.744,0,0
156563,103.066,-555.631,0,0
156823,105.535,-552.864,0,0
157084,107.897,-550.135,0,0
157344,110.457,-547.315,0,0
157604,113.062,-544.757,0,0
157864,115.683,-542.405,0,0
158125,118.208,-540.315,0,0
158385,120.528,-538.329,0,0
158645,122.792,-536.326,0,0
158906,124.949,-534.631,0,0
159166,126.718,-533.077,0,0
159426,128.061,-531.545,0,0
159687,128.973,-529.567,0,0
159947,129.708,-527.265,0,0
160207,130.34,-524.558,0,0
160468,130.962,-521.437,0,0
160728,131.699,-517.936,0,0
160988,132.716,-514.062,0,0
161249,133.803,-509.88,0,0
161509,135.135,-505.113,0,0
161769,137.234,-500.035,0,0
162030,140.037,-494.942,0,0
162290,143.161,-490.116,0,0
162550,146.77,-485.504,0,0
162811,150.505,-481.078,0,0
163071,154.212,-476.705,0,0
163331,158.195,-472.098,0,0
163592,162.763,-467.373,0,0
163852,167.981,-462.955,0,0
164112,173.515,-459.166,0,0
164373,179.037,-455.813,0,0
164633,184.338,-452.494,0,0
164893,189.732,-449.07,0,0
165154,195.505,-445.837,0,0
165414,201.193,-442.809,0,0
165674,206.878,-439.492,0,0
165935,212.86,-435.821,0,0
166195,219.508,-431.778,0,0
166455,227.432,-427.634,0,0
166716,236.585,-424.1,0,0
166976,246.454,-421.822,0,0
167236,256.49,-420.495,0,0
167497,266.755,-419.896,0,0
167757,277.227,-420.336,0,0
168017,287.596,-421.484,0,0
168277,298.129,-423.414,0,0
168538,308.527,-426.181,0,0
168798,319.019,-429.931,0,0
169058,329.121,-434.849,0,0
169319,338.659,-440.546,0,0
169579,347.525,-447.364,0,0
169839,354.933,-454.505,0,0
170100,361.876,-460.862,0,0
170360.075,369.614,-467.302,0,0
170620.4,377.762,-474.991,0,0
170880.725,385.552,-484.527,0,0
171141.05,391.625,-495.664,0,0
171401.375,395.47,-506.879,0,0
171661.7,398.226,-517.379,0,0
171922.025,400.358,-527.525,0,0
172182.35,402.389,-537.327,0,0
172442.675,404.714,-547.943,0,0
172703.0,405.877,-560.531,0,0
172963.325,403.715,-573.42,0,0
173223.65,399.933,-584.437,0,0
173483.975,395.457,-594.751,0,0
173744.3,389.934,-604.174,0,0
174004.625,383.507,-612.627,0,0
174264.95,376.376,-620.246,0,0
174525.275,367.886,-626.541,0,0
174785.6,358.876,-630.517,0,0
175045.925,350.613,-632.346,0,0
175306.25,343.369,-633.057,0,0
175566.575,336.932,-633.007,0,0
175826.9,330.843,-632.165,0,0
176087.225,325.634,-629.473,0,0
176347.55,323.105,-625.752,0,0
176607.875,322.872,-622.996,0,0
176868.2,324.098,-621.606,0,0
177128.525,325.737,-622.092,0,0
177388.85,326.817,-623.367,0,0
177649.175,328.163,-624.708,0,0
177909.5,330.227,-626.802,0,0
178169.825,333.112,-630.205,0,0
178430.15,336.24,-636.233,0,0
178690.475,337.383,-644.963,0,0
178950.8,335.303,-654.54,0,0
179211.125,330.511,-663.275,0,0
179471.45,324.037,-670.533,0,0
179731.775,316.69,-676.146,0,0
179992.1,309.086,-680.212,0,0
180252.425,301.719,-683.037,0,0
180512.75,295.29,-685.035,0,0
180773.075,289.445,-687.65,0,0
181033.4,283.001,-690.862,0,0
181293.725,275.516,-693.853,0,0
181554.05,266.913,-696.24,0,0
181814.375,257.517,-697.061,0,0
182074.7,248.515,-696.308,0,0
182335.025,240.26,-695.048,0,0
182595.35,232.028,-693.547,0,0
182855.675,223.353,-691.287,0,0
183116.0,214.882,-687.482,0,0
183376.325,207.61,-682.539,0,0
183636.65,201.698,-677.429,0,0
183896.975,196.406,-672.766,0,0
184157.3,191.218,-668.049,0,0
184417.625,186.246,-662.854,0,0
184677.95,182.079,-657.212,0,0
184938.275,179.042,-651.712,0,0
185198.6,176.731,-647.061,0,0
185458.925,174.08,-643.299,0,0
185719.25,170.823,-639.501,0,0
185979.575,167.245,-635.51,0,0
186239.9,163.486,-630.846,0,0
186500,160.16,-625.406,0,0
186761,157.637,-619.726,0,0
187021,155.674,-614.131,0,0
187281,154.164,-608.611,0,0
187542,153.121,-603.204,0,0
187802,152.447,-598.043,0,0
188062,152.246,-593.112,0,0
188322,152.49,-588.747,0,0
188583,152.825,-585.269,0,0
188843,152.615,-582.622,0,0
189103,151.3,-580.091,0,0
189364,149.414,-576.929,0,0
189624,147.417,-573.175,0,0
189884,145.612,-568.983,0,0
190145,143.963,-564.542,0,0
190405,142.414,-559.792,0,0
190665,141.234,-554.765,0,0
190926,140.317,-549.737,0,0
191186,139.486,-544.463,0,0
191446,139.259,-538.88,0,0
191707,139.706,-533.576,0,0
191967,140.231,-528.839,0,0
192227,140.543,-524.261,0,0
192488,140.757,-519.511,0,0
192748,141.078,-514.66,0,0
193008,141.602,-509.689,0,0
193269,142.314,-504.673,0,0
193529,143.265,-499.693,0,0
193789,144.391,-494.72,0,0
194050,145.668,-489.808,0,0
194310,147.112,-484.935,0,0
194570,148.692,-480.006,0,0
194831,150.585,-475.107,0,0
195091,152.779,-470.342,0,0
195351,155.204,-465.903,0,0
195612,157.613,-461.768,0,0
195872,159.893,-457.774,0,0
196132,162.126,-453.771,0,0
196393,164.429,-449.711,0,0
196653,166.908,-445.756,0,0
196913,169.37,-441.833,0,0
197174,172.052,-437.901,0,0
197434,174.725,-434.289,0,0
197694,177.214,-430.577,0,0
197955,179.914,-426.904,0,0
198215,182.54,-423.479,0,0
198475,185.032,-419.912,0,0
198735,187.53,-416.027,0,0
198996,190.224,-412.061,0,0
199256,193.146,-408.241,0,0
199516,196.094,-404.417,0,0
199777,199.065,-400.37,0,0
200037,202.201,-396.234,0,0
200297,205.611,-391.954,0,0
200558,209.334,-387.597,0,0
200818,213.441,-383.386,0,0
201078,217.861,-379.424,0,0
201339,222.233,-375.71,0,0
201599,226.598,-371.825,0,0
201859,231.242,-367.774,0,0
202120,236.436,-363.831,0,0
202380.025,241.946,-360.142,0,0
202640.35,247.615,-356.623,0,0
202900.675,253.541,-353.26,0,0
203161.0,259.689,-350.102,0,0
203421.325,266.195,-347.185,0,0
203681.65,272.847,-344.649,0,0
203941.975,279.667,-342.288,0,0
204202.3,286.906,-340.197,0,0
204462.625,294.142,-338.709,0,0
204722.95,301.388,-337.538,0,0
204983.275,308.67,-336.61,0,0
205243.6,315.994,-335.954,0,0
205503.925,323.606,-335.364,0,0
205764.25,331.693,-335.287,0,0
206024.575,340.02,-336.276,0,0
206284.9,347.852,-338.215,0,0
206545.225,354.841,-340.776,0,0
206805.55,361.194,-343.45,0,0
207065.875,366.78,-346.163,0,0
207326.2,371.782,-348.656,0,0
207586.525,376.44,-350.563,0,0
207846.85,380.95,-352.081,0,0
208107.175,385.305,-352.967,0,0
208367.5,390.077,-353.127,0,0
208627.825,395.425,-352.746,0,0
208888.15,401.752,-351.789,0,0
209148.475,409.656,-350.673,0,0
209408.8,419.468,-350.62,0,0
209669.125,430.135,-352.129,0,0
209929.45,441.044,-355.442,0,0
210189.775,451.828,-360.464,0,0
210450.1,462.133,-366.817,0,0
210710.425,471.719,-374.326,0,0
210970.75,480.6,-383.077,0,0
211231.075,488.255,-392.924,0,0
211491.4,494.54,-403.357,0,0
211751.725,499.367,-414.206,0,0
212012.05,502.742,-425.079,0,0
212272.375,504.761,-435.322,0,0
212532.7,506.142,-444.762,0,0
212793.025,507.145,-453.51,0,0
213053.35,508.311,-462.036,0,0
213313.675,509.365,-470.843,0,0
213574.0,509.598,-479.994,0,0
213834.325,508.99,-488.716,0,0
214094.65,508.109,-497.193,0,0
214354.975,506.653,-505.561,0,0
214615.3,504.405,-513.833,0,0
214875.625,501.139,-521.349,0,0
215135.95,497.615,-527.494,0,0
215396.275,494.598,-532.675,0,0
215656.6,492.128,-537.507,0,0
215916.925,490.281,-542.438,0,0
216177.25,488.57,-547.776,0,0
216437.575,486.733,-553.392,0,0
216697.9,484.76,-559.321,0,0
216958.225,482.311,-565.612,0,0
217218.55,479.058,-572.153,0,0
217478.875,474.865,-578.51,0,0
217739.2,469.866,-584.266,0,0
217999.525,464.552,-589.14,0,0
218259.85,459.108,-593.47,0,0
218520,453.431,-597.516,0,0
218780,447.477,-600.996,0,0
219041,441.289,-603.99,0,0
219301,434.689,-606.36,0,0
219561,427.694,-607.581,0,0
219822,421.037,-607.986,0,0
220082,414.731,-607.547,0,0
220342,408.815,-606.364,0,0
220603,403.52,-604.476,0,0
220863,398.953,-602.06,0,0
221123,395.121,-599.394,0,0
221384,391.938,-596.639,0,0
221644,389.28,-593.871,0,0
221904,387.197,-591.056,0,0
222165,385.534,-588.152,0,0
222425,384.382,-585.321,0,0
222685,383.858,-582.581,0,0
222946,383.87,-580.208,0,0
223206,384.051,-578.352,0,0
223466,384.124,-576.678,0,0
223727,384.264,-574.896,0,0
223987,384.766,-573.055,0,0
224247,385.584,-571.497,0,0
224508,386.471,-570.078,0,0
224768,387.425,-568.752,0,0
225028,388.474,-567.305,0,0
225289,389.895,-565.693,0,0
225549,391.848,-563.913,0,0
225809,394.624,-562.277,0,0
226070,398.112,-561.228,0,0
226330,402.104,-560.929,0,0
226590,406.269,-561.67,0,0
226851,410.227,-563.225,0,0
227111,413.698,-565.338,0,0
227371,416.709,-567.657,0,0
227632,419.615,-569.871,0,0
227892,422.78,-572.194,0,0
228152,426.211,-574.971,0,0
228413,429.619,-578.395,0,0
228673,432.968,-582.398,0,0
228933,436.166,-587.017,0,0
229193,438.9,-592.354,0,0
229454,441.163,-598.362,0,0
229714,442.506,-604.735,0,0
229974,442.969,-611.066,0,0
230235,443.057,-617.013,0,0
230495,443.301,-622.904,0,0
230755,443.39,-629.563,0,0
231016,442.71,-636.89,0,0
231276,440.701,-644.284,0,0
231536,437.644,-651.066,0,0
231797,434.336,-657.028,0,0
232057,431.048,-662.602,0,0
232317,427.821,-668.07,0,0
232578,424.491,-673.662,0,0
232838,420.804,-679.636,0,0
233098,416.494,-685.386,0,0
233359,411.996,-691.135,0,0
233619,407.026,-697.307,0,0
233879,400.76,-703.911,0,0
234140,392.761,-709.922,0,0
234400,383.591,-714.475,0,0
234660.3,374.033,-717.372,0,0
234920.625,364.442,-718.875,0,0
235180.95,355.362,-719.148,0,0
235441.275,346.765,-718.442,0,0
235701.6,338.711,-717.091,0,0
235961.925,331.269,-715.031,0,0
236222.25,324.588,-712.409,0,0
236482.575,318.907,-709.615,0,0
236742.9,313.856,-707.031,0,0
237003.225,309.207,-704.787,0,0
237263.55,304.628,-702.997,0,0
237523.875,299.56,-701.329,0,0
237784.2,294.123,-699.066,0,0
238044.525,288.823,-696.154,0,0
238304.85,283.777,-692.733,0,0
238565.175,279.116,-688.726,0,0
238825.5,275.147,-684.069,0,0
239085.825,272.144,-679.128,0,0
239346.15,270.104,-674.363,0,0
239606.475,268.815,-670.065,0,0
239866.8,267.843,-666.237,0,0
240127.125,267.603,-662.616,0,0
240387.45,267.854,-659.719,0,0
240647.775,268.345,-657.939,0,0
240908.1,268.296,-657.251,0,0
241168.425,267.203,-656.94,0,0
241428.75,265.373,-656.352,0,0
241689.075,263.328,-655.294,0,0
241949.4,261.208,-654.166,0,0
242209.725,258.838,-652.966,0,0
242470.05,255.997,-651.563,0,0
242730.375,252.848,-649.47,0,0
242990.7,249.765,-646.533,0,0
243251.025,247.247,-642.986,0,0
243511.35,245.405,-639.122,0,0
243771.675,244.062,-635.36,0,0
244032.0,242.928,-631.474,0,0
244292.325,242.368,-627.259,0,0
244552.65,242.676,-623.086,0,0
244812.975,243.636,-619.323,0,0
245073.3,245.178,-616.001,0,0
245333.625,247.018,-613.476,0,0
245593.95,248.88,-611.701,0,0
245854.275,250.471,-610.604,0,0
246114.6,251.563,-609.819,0,0
246374.925,252.27,-609.049,0,0
246635.25,252.802,-608.294,0,0
246895.575,253.23,-607.449,0,0
247155.9,253.647,-606.637,0,0
247416.225,253.912,-605.98,0,0
247676.55,253.892,-605.161,0,0
247936.875,253.922,-604.127,0,0
248197.2,254.113,-602.949,0,0
248457.525,254.425,-601.74,0,0
248717.85,254.832,-600.648,0,0
248978.175,255.452,-599.531,0,0
249238.5,256.151,-598.594,0,0
249498.825,256.892,-597.767,0,0
249759.15,257.671,-596.972,0,0
250019.475,258.595,-596.304,0,0
250279.8,259.618,-595.94,0,0
250540,260.577,-595.867,0,0
250800,261.302,-595.843,0,0
251061,261.904,-595.862,0,0
251321,262.53,-595.851,0,0
251581,263.183,-595.945,0,0
251842,263.839,-596.153,0,0
252102,264.477,-596.517,0,0
252362,265.015,-596.984,0,0
252623,265.495,-597.606,0,0
252883,265.96,-598.354,0,0
253143,266.253,-599.275,0,0
253404,266.334,-600.32,0,0
253664,266.222,-601.405,0,0
253924,265.974,-602.442,0,0
254185,265.631,-603.687,0,0
254445,265.016,-605.022,0,0
254705,263.944,-606.439,0,0
254966,262.539,-607.521,0,0
255226,260.972,-608.361,0,0
255486,259.4,-608.991,0,0
255747,257.78,-609.535,0,0
256007,255.961,-609.942,0,0
256267,253.999,-610.096,0,0
256528,252.029,-610,0,0
256788,250.132,-609.638,0,0
257048,248.32,-609.154,0,0
257309,246.536,-608.616,0,0
257569,244.637,-607.939,0,0
257829,242.741,-606.981,0,0
258090,240.916,-605.764,0,0
258350,239.284,-604.337,0,0
258610,237.81,-602.693,0,0
258871,236.627,-600.898,0,0
259131,235.764,-599.064,0,0
259391,235.12,-597.411,0,0
259651,234.526,-595.889,0,0
259912,233.855,-594.441,0,0
260172,233.16,-592.787,0,0
260432,232.501,-591.024,0,0
260693,231.901,-589.085,0,0
260953,231.558,-586.927,0,0
261213,231.455,-584.651,0,0
261474,231.641,-582.257,0,0
261734,232.185,-579.786,0,0
261994,233.172,-577.304,0,0
262255,234.666,-574.96,0,0
262515,236.638,-572.912,0,0
262775,239.002,-571.386,0,0
263036,241.459,-570.393,0,0
263296,243.909,-569.85,0,0
263556,246.312,-569.705,0,0
263817,248.629,-569.93,0,0
264077,250.893,-570.616,0,0
264337,252.79,-571.648,0,0
264598,254.357,-572.977,0,0
264858,255.459,-574.304,0,0
265118,256.152,-575.544,0,0
265379,256.798,-576.664,0,0
265639,257.286,-577.702,0,0
265899,257.698,-578.475,0,0
266160,258.272,-579.158,0,0
266420,258.925,-579.904,0,0
266680.25,259.783,-580.772,0,0
266940.575,260.593,-581.866,0,0
267200.9,261.294,-583.116,0,0
267461.225,261.894,-584.467,0,0
267721.55,262.404,-585.96,0,0
267981.875,262.756,-587.584,0,0
268242.2,262.819,-589.278,0,0
268502.525,262.617,-590.88,0,0
268762.85,262.298,-592.259,0,0
269023.175,261.913,-593.463,0,0
269283.5,261.695,-594.431,0,0
269543.825,261.504,-595.341,0,0
269804.15,261.573,-596.205,0,0
270064.475,261.868,-597.117,0,0
270324.8,262.369,-598.104,0,0
270585.125,263.187,-599.439,0,0
270845.45,263.989,-601.095,0,0
271105.775,264.798,-603.128,0,0
271366.1,265.49,-605.412,0,0
271626.425,266.081,-607.878,0,0
271886.75,266.822,-610.548,0,0
272147.075,267.798,-613.727,0,0
272407.4,268.826,-617.783,0,0
272667.725,269.352,-622.963,0,0
272928.05,268.672,-629.02,0,0
273188.375,266.614,-635.223,0,0
273448.7,263.474,-641.091,0,0
273709.025,259.587,-646.671,0,0
273969.35,254.863,-652.083,0,0
274229.675,249.094,-657.01,0,0
274490.0,242.478,-661.115,0,0
274750.325,235.297,-664.259,0,0
275010.65,227.882,-666.499,0,0
275270.975,220.357,-667.777,0,0
275531.3,212.663,-668.398,0,0
275791.625,204.978,-668.065,0,0
276051.95,197.506,-666.898,0,0
276312.275,190.32,-665.011,0,0
276572.6,183.541,-662.502,0,0
276832.925,177.169,-659.471,0,0
277093.25,171.195,-655.931,0,0
277353.575,165.707,-651.95,0,0
277613.9,160.721,-647.624,0,0
277874.225,156.22,-642.95,0,0
278134.55,152.381,-638.032,0,0
278394.875,149.155,-632.992,0,0
278655.2,146.558,-627.954,0,0
278915.525,144.528,-623.121,0,0
279175.85,142.91,-618.536,0,0
279436.175,141.572,-614.129,0,0
279696.5,140.391,-609.92,0,0
279956.825,139.501,-605.741,0,0
280217.15,138.93,-601.685,0,0
280477.475,138.62,-597.896,0,0
280737.8,138.568,-594.376,0,0
280998.125,138.628,-591.152,0,0
281258.45,138.76,-588.258,0,0
281518.775,138.852,-585.674,0,0
281779.1,138.779,-583.33,0,0
282039.425,138.472,-581.073,0,0
282299.75,137.974,-578.731,0,0
282560,137.434,-576.319,0,0
282820,136.863,-573.787,0,0
283081,136.319,-571.165,0,0
283341,135.838,-568.444,0,0
283601,135.439,-565.6,0,0
283862,135.128,-562.656,0,0
284122,134.984,-559.59,0,0
284382,135.106,-556.401,0,0
284643,135.564,-553.248,0,0
284903,136.277,-550.28,0,0
285163,137.141,-547.475,0,0
285424,138.173,-544.84,0,0
285684,139.312,-542.422,0,0
285944,140.49,-540.202,0,0
286205,141.687,-538.175,0,0
286465,142.87,-536.291,0,0
286725,144.008,-534.574,0,0
286986,145.092,-533.006,0,0
287246,146.079,-531.538,0,0
287506,146.942,-530.14,0,0
287767,147.668,-528.762,0,0
288027,148.309,-527.339,0,0
288287,148.886,-525.825,0,0
288548,149.423,-524.238,0,0
288808,149.999,-522.506,0,0
289068,150.656,-520.682,0,0
289329,151.483,-518.794,0,0
289589,152.44,-516.971,0,0
289849,153.492,-515.189,0,0
290109,154.609,-513.448,0,0
290370,155.752,-511.724,0,0
290630,157.01,-509.994,0,0
290890,158.433,-508.261,0,0
291151,159.995,-506.691,0,0
291411,161.647,-505.277,0,0
291671,163.283,-504.051,0,0
291932,164.872,-502.916,0,0
292192,166.413,-501.831,0,0
292452,167.961,-500.764,0,0
292713,169.53,-499.727,0,0
292973,171.107,-498.764,0,0
293233,172.717,-497.85,0,0
293494,174.315,-496.973,0,0
293754,175.889,-496.133,0,0
294014,177.478,-495.287,0,0
294275,179.098,-494.454,0,0
294535,180.752,-493.63,0,0
294795,182.489,-492.798,0,0
295056,184.25,-491.977,0,0
295316,186.085,-491.206,0,0
295576,188.006,-490.373,0,0
295837,190.077,-489.6,0,0
296097,192.311,-488.927,0,0
296357,194.639,-488.369,0,0
296618,197.076,-487.92,0,0
296878,199.617,-487.623,0,0
297138,202.26,-487.474,0,0
297399,204.955,-487.507,0,0
297659,207.699,-487.738,0,0
297919,210.467,-488.172,0,0
298180,213.236,-488.783,0,0
298440,215.96,-489.607,0,0
298700.2,218.666,-490.612,0,0
298960.525,221.135,-491.685,0,0
299220.85,223.643,-492.759,0,0
299481.175,226.172,-493.96,0,0
299741.5,228.817,-495.211,0,0
300001.825,231.54,-496.622,0,0
300262.15,234.414,-498.185,0,0
300522.475,237.212,-500.01,0,0
300782.8,240.249,-502.025,0,0
301043.125,243.277,-504.453,0,0
301303.45,246.375,-507.199,0,0
301563.775,249.313,-510.349,0,0
301824.1,252.295,-513.914,0,0
302084.425,255.178,-518.055,0,0
302344.75,257.813,-522.771,0,0
302605.075,259.952,-528.213,0,0
302865.4,261.434,-534.104,0,0
303125.725,261.996,-540.356,0,0
303386.05,261.626,-546.664,0,0
303646.375,260.37,-552.736,0,0
303906.7,258.41,-558.378,0,0
304167.025,256.003,-563.504,0,0
304427.35,253.351,-568.202,0,0
304687.675,250.504,-572.587,0,0
304948.0,247.432,-576.746,0,0
305208.325,244.113,-580.587,0,0
305468.65,240.564,-584.111,0,0
305728.975,236.848,-587.358,0,0
305989.3,233.035,-590.289,0,0
306249.625,229.078,-592.985,0,0
306509.95,224.928,-595.409,0,0
306770.275,220.618,-597.457,0,0
307030.6,216.22,-599.099,0,0
307290.925,211.874,-600.33,0,0
307551.25,207.625,-601.23,0,0
307811.575,203.484,-601.906,0,0
308071.9,199.413,-602.333,0,0
308332.225,195.447,-602.537,0,0
308592.55,191.562,-602.546,0,0
308852.875,187.737,-602.351,0,0
309113.2,184.015,-601.945,0,0
309373.525,180.447,-601.342,0,0
309633.85,177.024,-600.57,0,0
309894.175,173.743,-599.645,0,0
310154.5,170.615,-598.617,0,0
310414.825,167.66,-597.47,0,0
310675.15,164.866,-596.273,0,0
310935.475,162.203,-594.992,0,0
311195.8,159.699,-593.668,0,0
311456.125,157.317,-592.307,0,0
311716.45,155.069,-590.913,0,0
311976.775,152.969,-589.523,0,0
312237.1,151.001,-588.192,0,0
312497.425,149.089,-586.863,0,0
312757.75,147.219,-585.618,0,0
313018.075,145.367,-584.35,0,0
313278.4,143.535,-583.066,0,0
313538.725,141.737,-581.746,0,0
313799.05,139.991,-580.393,0,0
314059.375,138.27,-579.025,0,0
314319.7,136.588,-577.61,0,0
314580,134.942,-576.058,0,0
314840,133.364,-574.475,0,0
315101,131.853,-572.856,0,0
315361,130.435,-571.222,0,0
315621,129.302,-569.471,0,0
315882,128.263,-567.819,0,0
316142,127.243,-566.109,0,0
316402,126.356,-564.505,0,0
316663,125.59,-562.938,0,0
316923,124.857,-561.401,0,0
317183,124.229,-559.986,0,0
317444,123.669,-558.57,0,0
317704,123.106,-557.403,0,0
317964,122.484,-556.205,0,0
318225,121.916,-554.966,0,0
318485,121.29,-553.855,0,0
318745,120.741,-552.621,0,0
319006,120.121,-551.357,0,0
319266,119.648,-550.136,0,0
319526,119.185,-548.863,0,0
319787,118.833,-547.794,0,0
320047,118.614,-546.633,0,0
320307,118.303,-545.568,0,0
320567,118.139,-544.577,0,0
320828,117.855,-543.758,0,0
321088,117.699,-543.026,0,0
321348,117.4,-542.285,0,0
321609,117.04,-541.605,0,0
321869,116.703,-540.932,0,0
322129,116.351,-540.296,0,0
322390,115.955,-539.673,0,0
322650,115.531,-539.088,0,0
322910,115.134,-538.489,0,0
323171,114.595,-537.942,0,0
323431,113.999,-537.378,0,0
323691,113.432,-536.765,0,0
323952,112.887,-536.189,0,0
324212,112.321,-535.512,0,0
324472,111.743,-534.829,0,0
324733,111.18,-534.185,0,0
324993,110.616,-533.544,0,0
325253,109.977,-532.875,0,0
325514,109.498,-532.207,0,0
325774,108.946,-531.422,0,0
326034,108.442,-530.649,0,0
326295,108.007,-530.022,0,0
326555,107.588,-529.385,0,0
326815,107.201,-528.815,0,0
327076,106.706,-528.247,0,0
327336,106.193,-527.732,0,0
327596,105.702,-527.279,0,0
327857,105.178,-526.734,0,0
328117,104.604,-526.24,0,0
328377,103.886,-525.709,0,0
328638,103.258,-525.186,0,0
328898,102.567,-524.713,0,0
329158,101.884,-524.103,0,0
329419,101.207,-523.474,0,0
329679,100.547,-522.876,0,0
329939,99.9383,-522.234,0,0
330200,99.2543,-521.64,0,0
330460,98.6631,-521.03,0,0
330720.15,97.9994,-520.36,0,0
330980.475,97.3692,-519.787,0,0
331240.8,96.689,-519.169,0,0
331501.125,95.9733,-518.677,0,0
331761.45,95.3835,-518.128,0,0
332021.775,94.5812,-517.679,0,0
332282.1,93.7918,-517.186,0,0
332542.425,92.8094,-516.663,0,0
332802.75,91.9656,-516.03,0,0
333063.075,91.0052,-515.381,0,0
333323.4,90.0132,-514.711,0,0
333583.725,89.065,-513.906,0,0
333844.05,88.0526,-513.115,0,0
334104.375,87.0412,-512.242,0,0
334364.7,86.1229,-511.303,0,0
334625.025,85.1669,-510.247,0,0
334885.35,84.1962,-509.303,0,0
335145.675,83.3288,-508.247,0,0
335406.0,82.5015,-507.165,0,0
335666.325,81.685,-506.105,0,0
335926.65,80.8143,-504.938,0,0
336186.975,79.944,-503.856,0,0
336447.3,79.1201,-502.7,0,0
336707.625,78.3819,-501.466,0,0
336967.95,77.6302,-500.221,0,0
337228.275,76.9222,-498.948,0,0
337488.6,76.2338,-497.564,0,0
337748.925,75.6334,-496.228,0,0
338009.25,75.0562,-494.877,0,0
338269.575,74.5929,-493.557,0,0
338529.9,74.1451,-492.199,0,0
338790.225,73.6648,-490.856,0,0
339050.55,73.2993,-489.572,0,0
339310.875,72.9459,-488.273,0,0
339571.2,72.5884,-487.025,0,0
339831.525,72.3073,-485.673,0,0
340091.85,71.9602,-484.423,0,0
340352.175,71.6864,-483.179,0,0
340612.5,71.3989,-481.857,0,0
340872.825,71.0953,-480.545,0,0
341133.15,70.8463,-479.263,0,0
341393.475,70.6466,-477.976,0,0
341653.8,70.5182,-476.658,0,0
341914.125,70.3973,-475.367,0,0
342174.45,70.2371,-474.057,0,0
342434.775,70.1973,-472.783,0,0
342695.1,70.1631,-471.514,0,0
342955.425,70.1444,-470.269,0,0
343215.75,70.1739,-469.001,0,0
343476.075,70.2202,-467.818,0,0
343736.4,70.3025,-466.586,0,0
343996.725,70.4028,-465.436,0,0
344257.05,70.5697,-464.215,0,0
344517.375,70.6612,-463.146,0,0
344777.7,70.9075,-462.002,0,0
345038.025,71.1684,-460.987,0,0
345298.35,71.3257,-459.996,0,0
345558.675,71.5308,-459.052,0,0
345819.0,71.7683,-458.138,0,0
346079.325,71.985,-457.261,0,0
346339.65,72.1872,-456.43,0,0
346599.975,72.3346,-455.713,0,0
346860,72.4984,-454.9,0,0
347121,72.6298,-454.104,0,0
347381,72.6696,-453.406,0,0
347641,72.7657,-452.681,0,0
347902,72.7738,-451.985,0,0
348162,72.6979,-451.311,0,0
348422,72.6348,-450.581,0,0
348683,72.5014,-449.784,0,0
348943,72.3783,-448.969,0,0
349203,72.2621,-448.136,0,0
349464,72.1683,-447.216,0,0
349724,72.0623,-446.326,0,0
349984,71.9876,-445.4,0,0
350245,71.9559,-444.485,0,0
350505,71.8961,-443.487,0,0
350765,71.8359,-442.541,0,0
351025,71.7472,-441.551,0,0
351286,71.7168,-440.529,0,0
351546,71.7412,-439.421,0,0
351806,71.8103,-438.325,0,0
352067,71.9452,-437.223,0,0
352327,72.1372,-436.126,0,0
352587,72.3999,-435.071,0,0
352848,72.713,-433.976,0,0
353108,73.0487,-432.961,0,0
353368,73.4775,-432.022,0,0
353629,73.8284,-431.116,0,0
353889,74.2971,-430.278,0,0
354149,74.716,-429.462,0,0
354410,75.2067,-428.768,0,0
354670,75.6052,-428.099,0,0
354930,75.9996,-427.455,0,0
355191,76.3413,-426.819,0,0
355451,76.7436,-426.237,0,0
355711,77.0769,-425.779,0,0
355972,77.3868,-425.263,0,0
356232,77.6738,-424.839,0,0
356492,77.8558,-424.417,0,0
356753,77.9799,-424.016,0,0
357013,78.0172,-423.616,0,0
357273,78.0553,-423.202,0,0
357534,78.0089,-422.723,0,0
357794,77.8907,-422.261,0,0
358054,77.7787,-421.706,0,0
358315,77.5847,-421.094,0,0
358575,77.3988,-420.395,0,0
358835,77.1469,-419.642,0,0
359096,77.0545,-418.858,0,0
359356,76.9,-417.893,0,0
359616,76.8418,-416.941,0,0
359877,76.7738,-416.035,0,0
360137,76.8557,-414.933,0,0
360397,76.9251,-413.964,0,0
360658,77.0991,-412.909,0,0
360918,77.2988,-411.882,0,0
361178,77.5313,-410.894,0,0
361438,77.844,-409.952,0,0
361699,78.2269,-408.937,0,0
361959,78.6004,-407.997,0,0
362219,79.0035,-407.108,0,0
362480,79.3935,-406.262,0,0
362740.1,79.8799,-405.386,0,0
363000.425,80.3483,-404.581,0,0
363260.75,80.8813,-403.837,0,0
363521.075,81.333,-403.1,0,0
363781.4,81.7769,-402.385,0,0
364041.725,82.2453,-401.672,0,0
364302.05,82.799,-400.977,0,0
364562.375,83.3287,-400.341,0,0
364822.7,83.841,-399.694,0,0
365083.025,84.427,-399.109,0,0
365343.35,84.957,-398.579,0,0
365603.675,85.4847,-398.023,0,0
365864.0,86.0369,-397.507,0,0
366124.325,86.5615,-397.096,0,0
366384.65,87.1078,-396.686,0,0
366644.975,87.5481,-396.3,0,0
366905.3,87.9852,-395.929,0,0
367165.625,88.3606,-395.549,0,0
367425.95,88.7785,-395.158,0,0
367686.275,89.1793,-394.761,0,0
367946.6,89.6029,-394.355,0,0
368206.925,90.0358,-393.989,0,0
368467.25,90.4996,-393.663,0,0
368727.575,91.0133,-393.368,0,0
368987.9,91.4061,-393.149,0,0
369248.225,91.8561,-392.956,0,0
369508.55,92.219,-392.85,0,0
369768.875,92.4991,-392.798,0,0
370029.2,92.7445,-392.76,0,0
370289.525,92.8815,-392.699,0,0
370549.85,92.9394,-392.712,0,0
370810.175,92.9065,-392.638,0,0
371070.5,92.7624,-392.532,0,0
371330.825,92.5027,-392.341,0,0
371591.15,92.2414,-392.057,0,0
371851.475,91.9555,-391.604,0,0
372111.8,91.6865,-391.101,0,0
372372.125,91.4861,-390.458,0,0
372632.45,91.2867,-389.745,0,0
372892.775,91.2049,-389.012,0,0
373153.1,91.1582,-388.222,0,0
373413.425,91.1727,-387.468,0,0
373673.75,91.298,-386.724,0,0
373934.075,91.4547,-385.959,0,0
374194.4,91.5632,-385.235,0,0
374454.725,91.7727,-384.451,0,0
374715.05,91.9769,-383.743,0,0
374975.375,92.2277,-383.06,0,0
375235.7,92.4647,-382.295,0,0
375496.025,92.6904,-381.571,0,0
375756.35,92.9576,-380.874,0,0
376016.675,93.3011,-380.221,0,0
376277.0,93.5581,-379.538,0,0
376537.325,93.9087,-378.863,0,0
376797.65,94.2415,-378.217,0,0
377057.975,94.5257,-377.625,0,0
377318.3,94.823,-377,0,0
377578.625,95.1252,-376.341,0,0
377838.95,95.4041,-375.634,0,0
378099.275,95.7396,-374.944,0,0
378359.6,96.0376,-374.203,0,0
378619.925,96.4271,-373.537,0,0
378880,96.8569,-372.741,0,0
379141,97.3048,-371.971,0,0
379401,97.7673,-371.281,0,0
379661,98.357,-370.591,0,0
379922,98.8958,-369.945,0,0
380182,99.492,-369.333,0,0
380442,100.092,-368.759,0,0
380703,100.677,-368.224,0,0
380963,101.227,-367.701,0,0
381223,101.77,-367.156,0,0
381483,102.277,-366.639,0,0
381744,102.841,-366.128,0,0
382004,103.391,-365.58,0,0
382264,103.988,-365.077,0,0
382525,104.567,-364.513,0,0
382785,105.2,-364.012,0,0
383045,105.887,-363.534,0,0
383306,106.508,-363.087,0,0
383566,107.157,-362.669,0,0
383826,107.805,-362.299,0,0
384087,108.442,-361.925,0,0
384347,109.049,-361.588,0,0
384607,109.641,-361.2,0,0
384868,110.286,-360.879,0,0
385128,110.881,-360.52,0,0
385388,111.494,-360.194,0,0
385649,112.081,-359.909,0,0
385909,112.67,-359.598,0,0
386169,113.174,-359.304,0,0
386430,113.709,-358.959,0,0
386690,114.248,-358.564,0,0
386950,114.771,-358.153,0,0
387211,115.373,-357.732,0,0
387471,116.003,-357.308,0,0
387731,116.673,-356.964,0,0
387992,117.277,-356.576,0,0
388252,117.927,-356.213,0,0
388512,118.58,-355.822,0,0
388773,119.257,-355.396,0,0
389033,119.989,-354.98,0,0
389293,120.776,-354.554,0,0
389554,121.611,-354.204,0,0
389814,122.482,-353.857,0,0
390074,123.385,-353.58,0,0
390335,124.288,-353.361,0,0
390595,125.157,-353.211,0,0
390855,126.039,-353.059,0,0
391116,126.879,-352.965,0,0
391376,127.739,-352.797,0,0
391636,128.52,-352.713,0,0
391896,129.378,-352.588,0,0
392157,130.169,-352.498,0,0
392417,131.002,-352.369,0,0
392677,131.82,-352.255,0,0
392938,132.665,-352.123,0,0
393198,133.596,-351.99,0,0
393458,134.504,-351.854,0,0
393719,135.484,-351.783,0,0
393979,136.468,-351.699,0,0
394239,137.412,-351.623,0,0
394500,138.463,-351.581,0,0
394760.05,139.559,-351.563,0,0
395020.375,140.666,-351.556,0,0
395280.7,141.88,-351.628,0,0
395541.025,143.1,-351.708,0,0
395801.35,144.355,-351.874,0,0
396061.675,145.614,-352.153,0,0
396322.0,146.881,-352.465,0,0
396582.325,148.254,-352.765,0,0
396842.65,149.609,-353.165,0,0
397102.975,151.083,-353.668,0,0
397363.3,152.592,-354.293,0,0
397623.625,154.124,-355.107,0,0
397883.95,155.623,-356.029,0,0
398144.275,157.116,-357.199,0,0
398404.6,158.479,-358.475,0,0
398664.925,159.762,-359.919,0,0
398925.25,160.915,-361.488,0,0
399185.575,161.95,-363.104,0,0
399445.9,162.848,-364.874,0,0
399706.225,163.61,-366.725,0,0
399966.55,164.263,-368.703,0,0
400006.6,164.308,-368.994,0,0