File: Accelerated corrosion test data/2025-10-22_09-25-28/sample_1.csv
Frequency (Hz),Impedance (ohms),Phase (Radians),Temperature (C),Humidity (%)
10000.0,242.007,-12221.9,0,0
10260.325,241.525,-11906.7,0,0
10520.65,231.214,-11626.7,0,0
10780.975,227.926,-11341.7,0,0
11041.3,220.801,-11082.4,0,0
11301.625,215.434,-10825.1,0,0
11561.95,211.79,-10580.8,0,0
11822.275,209.403,-10340.8,0,0
12082.6,232.385,-10113.4,0,0
12342.925,211.465,-9939.38,0,0
12603.25,195.777,-9723.19,0,0
12863.575,192.022,-9521.39,0,0
13123.9,200.603,-9327.47,0,0
13384.225,187.181,-9160.84,0,0
13644.55,181.66,-8978.3,0,0
13904.875,182.857,-8798.75,0,0
14165.2,205.02,-8670.64,0,0
14425.525,213.979,-8497.74,0,0
14685.8,199.648,-8336.37,0,0
14946.175,178.231,-8228.56,0,0
15206.5,190.282,-8064.01,0,0
15466.825,173.3,-7955.5,0,0
15727.15,168.787,-7816.25,0,0
15987.5,161.488,-7691.29,0,0
16247.8,157.611,-7564.49,0,0
16508.125,155.378,-7441.37,0,0
16768.45,158.058,-7322.19,0,0
17028.775,163.674,-7212.5,0,0
17289.1,155.145,-7112.76,0,0
17549.425,151.937,-7008.77,0,0
17809.75,147.01,-6902.72,0,0
18070.075,149.357,-6804.7,0,0
18330.4,142.109,-6709,0,0
18590.725,137.744,-6613.26,0,0
18851.05,138.128,-6515.5,0,0
19111.375,136.515,-6434.56,0,0
19371.7,133.267,-6341.85,0,0
19632.025,132.32,-6252.77,0,0
19892.35,136.208,-6164.19,0,0
20152.675,135.937,-6080.5,0,0
20413.0,155.936,-5990.41,0,0
20673.3,169.925,-5949.82,0,0
20933.65,149.409,-5883.59,0,0
21193.975,163.729,-5816,0,0
21454.3,140.778,-5747.31,0,0
21714.625,135.737,-5672.23,0,0
21974.9,141.81,-5592.48,0,0
22235.275,175.04,-5548.11,0,0
22495.6,141.63,-5507.97,0,0
22755.925,126.995,-5438.56,0,0
23016.25,122.008,-5370.67,0,0
23276.6,118.889,-5309.28,0,0
23536.9,116.216,-5248.18,0,0
23797.225,112.543,-5187.15,0,0
24057.55,114.462,-5126.53,0,0
24317.875,113.347,-5077.91,0,0
24578.2,110.59,-5018.26,0,0
24838.525,110.596,-4968.02,0,0
25098.85,110.46,-4913.79,0,0
25359.175,105.924,-4864.15,0,0
25619.5,104.766,-4812.68,0,0
25879.8,103.678,-4761.6,0,0
26140.1,104.022,-4711.71,0,0
26400.5,102.699,-4662.29,0,0
26660.8,105.176,-4611.61,0,0
26921.1,113.736,-4562.32,0,0
27181.4,123.046,-4532.02,0,0
27441.8,110.957,-4497.42,0,0
27702.1,103.98,-4448.37,0,0
27962.4,110.739,-4397.94,0,0
28222.7,110.839,-4359.41,0,0
28483.1,120.998,-4316.16,0,0
28743.4,131.795,-4297.93,0,0
29003.7,118.607,-4260.51,0,0
29264,119.052,-4227.49,0,0
29524.4,107.803,-4194.58,0,0
29784.7,105.629,-4150.88,0,0
30045,102.04,-4119.98,0,0
30305.3,100.31,-4080.81,0,0
30565.7,97.2823,-4041.91,0,0
30826,101.105,-4005.78,0,0
31086.3,104.694,-3978.23,0,0
31346.6,100.464,-3948.77,0,0
31607,94.1182,-3911.63,0,0
31867.3,98.7322,-3878.91,0,0
32127.6,98.0791,-3848.06,0,0
32387.9,98.8517,-3820.9,0,0
32648.3,94.3852,-3789.57,0,0
32908.6,96.3428,-3761.69,0,0
33168.9,91.4877,-3733.71,0,0
33429.2,89.5167,-3704.63,0,0
33689.6,85.9233,-3674.88,0,0
33949.9,84.8381,-3643.82,0,0
34210.2,86.6696,-3616.81,0,0
34470.5,83.9188,-3590.19,0,0
34730.9,81.8477,-3562.12,0,0
34991.2,81.1878,-3534.83,0,0
35251.5,80.4027,-3508.1,0,0
35511.8,79.5735,-3481.73,0,0
35772.2,79.0806,-3455.99,0,0
36032.5,77.9833,-3430.59,0,0
36292.8,77.2623,-3405.48,0,0
36553.1,76.405,-3380.38,0,0
36813.5,76.3065,-3355.8,0,0
37073.8,76.0601,-3331.77,0,0
37334.1,75.3932,-3308.34,0,0
37594.4,74.8676,-3284.76,0,0
37854.8,74.3114,-3262.03,0,0
38115.1,73.6649,-3238.83,0,0
38375.4,73.2772,-3216.21,0,0
38635.7,73.1324,-3194.43,0,0
38896.1,72.346,-3172.31,0,0
39156.4,72.4749,-3150.49,0,0
39416.7,72.295,-3130.01,0,0
39677,71.207,-3108.67,0,0
39937.4,71.3952,-3087.26,0,0
40197.7,71.1224,-3067.02,0,0
40458,70.9724,-3046.57,0,0
40718.3,70.9904,-3026,0,0
40978.7,72.5057,-3006.29,0,0
41239,72.2183,-2988.47,0,0
41499.3,72.1006,-2970.25,0,0
41759.6,71.1616,-2951.46,0,0
42020,70.7399,-2933.24,0,0
42280.275,70.4031,-2914.58,0,0
42540.6,70.4697,-2896.34,0,0
42800.925,70.4416,-2879.38,0,0
43061.25,69.4063,-2861.29,0,0
43321.575,69.6204,-2844.19,0,0
43581.9,68.6141,-2827.05,0,0
43842.225,67.9999,-2809.43,0,0
44102.55,67.9329,-2791.79,0,0
44362.875,68.7693,-2774.65,0,0
44623.2,69.0493,-2759.28,0,0
44883.525,68.548,-2743.94,0,0
45143.85,67.8789,-2727.98,0,0
45404.175,67.9491,-2711.68,0,0
45664.5,67.4416,-2697.03,0,0
45924.825,66.5172,-2681.8,0,0
46185.15,66.1596,-2665.96,0,0
46445.475,65.1412,-2650.82,0,0
46705.8,65.3722,-2635.2,0,0
46966.125,65.1576,-2621.34,0,0
47226.45,64.5599,-2605.96,0,0
47486.775,64.212,-2591.04,0,0
47747.1,64.0587,-2576.87,0,0
48007.425,63.4485,-2562.48,0,0
48267.75,63.3696,-2548.48,0,0
48528.075,62.8487,-2534.68,0,0
48788.4,61.6942,-2520.8,0,0
49048.725,61.4747,-2506.46,0,0
49309.05,61.4821,-2492.95,0,0
49569.375,61.3306,-2479.86,0,0
49829.7,60.8873,-2466.63,0,0
50090.025,60.0187,-2453.44,0,0
50350.35,59.4861,-2439.85,0,0
50610.675,59.5042,-2426.73,0,0
50871.0,59.3502,-2413.69,0,0
51131.325,59.2239,-2400.97,0,0
51391.65,59.1839,-2388.36,0,0
51651.975,58.7936,-2376.31,0,0
51912.3,58.2672,-2363.99,0,0
52172.625,58.1029,-2351.53,0,0
52432.95,57.9435,-2339.34,0,0
52693.275,57.6996,-2327.21,0,0
52953.6,57.6467,-2315.37,0,0
53213.925,57.6569,-2303.63,0,0
53474.25,57.3063,-2292.15,0,0
53734.575,57.2762,-2280.51,0,0
53994.9,57.1287,-2269.45,0,0
54255.225,56.6251,-2258.27,0,0
54515.55,56.2145,-2246.95,0,0
54775.875,55.8981,-2235.65,0,0
55036.2,55.7914,-2224.33,0,0
55296.525,55.6962,-2213.43,0,0
55556.85,55.6364,-2202.59,0,0
55817.175,55.3676,-2192.12,0,0
56077.5,54.9482,-2181.33,0,0
56337.825,54.7736,-2170.55,0,0
56598.15,54.6562,-2159.87,0,0
56858.475,54.8292,-2149.46,0,0
57118.8,54.593,-2139.26,0,0
57379.125,54.3842,-2129.01,0,0
57639.45,54.4278,-2118.99,0,0
57899.775,54.4158,-2108.81,0,0
58160.1,54.4766,-2098.85,0,0
58420.4,54.4298,-2089.16,0,0
58680.7,54.1537,-2079.53,0,0
58941.1,53.9701,-2069.61,0,0
59201.4,54.3639,-2060.06,0,0
59461.7,54.1882,-2050.82,0,0
59722,54.0292,-2041.32,0,0
59982.4,54.0521,-2031.91,0,0
60242.7,53.9986,-2022.72,0,0
60503,54.1585,-2013.66,0,0
60763.3,54.4262,-2004.94,0,0
61023.7,53.9409,-1996.34,0,0
61284,53.4278,-1987.38,0,0
61544.3,52.9774,-1978.17,0,0
61804.6,53.3144,-1969.22,0,0
62065,52.9633,-1960.91,0,0
62325.3,52.4852,-1952.01,0,0
62585.6,52.2666,-1943.09,0,0
62845.9,52.3009,-1934.4,0,0
63106.3,52.4634,-1925.77,0,0
63366.6,52.3966,-1917.37,0,0
63626.9,52.2778,-1908.94,0,0
63887.2,52.3587,-1900.32,0,0
64147.6,52.2957,-1891.91,0,0
64407.9,52.4595,-1883.48,0,0
64668.2,52.6894,-1874.91,0,0
64928.5,53.3981,-1866.85,0,0
65188.9,54.0202,-1859.05,0,0
65449.2,54.5962,-1851.47,0,0
65709.5,54.9444,-1844.41,0,0
65969.8,54.9294,-1837.21,0,0
66230.2,54.6933,-1829.92,0,0
66490.5,54.8815,-1822.84,0,0
66750.8,54.4521,-1815.72,0,0
67011.1,53.8227,-1808.31,0,0
67271.5,53.6531,-1800.98,0,0
67531.8,53.5621,-1793.31,0,0
67792.1,53.8688,-1785.81,0,0
68052.4,54.3072,-1779.5,0,0
68312.8,53.1029,-1772.62,0,0
68573.1,52.9712,-1765.18,0,0
68833.4,53.0273,-1758.03,0,0
69093.7,52.7585,-1751.21,0,0
69354.1,52.5762,-1744.29,0,0
69614.4,52.4756,-1737.48,0,0
69874.7,52.0592,-1730.91,0,0
70135,51.5925,-1724.28,0,0
70395.4,50.9773,-1717.44,0,0
70655.7,50.3608,-1710.38,0,0
70916,49.998,-1703.21,0,0
71176.3,49.9739,-1696.26,0,0
71436.7,49.9058,-1689.43,0,0
71697,49.7925,-1682.96,0,0
71957.3,49.2034,-1676.49,0,0
72217.6,48.7011,-1669.75,0,0
72478,48.1952,-1662.68,0,0
72738.3,48.1334,-1655.7,0,0
72998.6,48.1276,-1648.87,0,0
73258.9,48.1336,-1642.29,0,0
73519.3,48.0896,-1635.86,0,0
73779.6,47.9892,-1629.18,0,0
74039.9,47.8984,-1622.6,0,0
74300.225,47.9514,-1616.05,0,0
74560.55,47.967,-1609.64,0,0
74820.875,48.0969,-1603.19,0,0
75081.2,48.3011,-1596.74,0,0
75341.525,48.3856,-1590.62,0,0
75601.85,48.4368,-1584.41,0,0
75862.175,48.6389,-1578.14,0,0
76122.5,48.7616,-1572.06,0,0
76382.825,48.8387,-1565.88,0,0
76643.15,49.0889,-1559.83,0,0
76903.475,49.3674,-1553.8,0,0
77163.8,49.6872,-1548.01,0,0
77424.125,49.8842,-1542.21,0,0
77684.45,50.0232,-1536.42,0,0
77944.775,50.2562,-1530.67,0,0
78205.1,50.5581,-1524.77,0,0
78465.425,51.1599,-1519.18,0,0
78725.75,51.6272,-1513.94,0,0
78986.075,51.6495,-1508.84,0,0
79246.4,51.7757,-1503.72,0,0
79506.725,51.5417,-1498.64,0,0
79767.05,50.9914,-1493.26,0,0
80027.375,50.8807,-1487.64,0,0
80287.7,50.8468,-1482.25,0,0
80548.025,50.6392,-1476.94,0,0
80808.35,50.4199,-1471.4,0,0
81068.675,50.1959,-1465.8,0,0
81329.0,50.1691,-1460.15,0,0
81589.325,50.206,-1454.52,0,0
81849.65,50.3928,-1449.09,0,0
82109.975,50.6517,-1443.66,0,0
82370.3,50.7378,-1438.36,0,0
82630.625,50.8146,-1432.97,0,0
82890.95,50.8323,-1427.66,0,0
83151.275,51.0501,-1422.24,0,0
83411.6,51.4882,-1416.8,0,0
83671.925,51.8322,-1411.74,0,0
83932.25,52.0927,-1406.61,0,0
84192.575,52.399,-1401.52,0,0
84452.9,52.6784,-1396.52,0,0
84713.225,53.0021,-1391.56,0,0
84973.55,53.2689,-1386.46,0,0
85233.875,53.6745,-1381.45,0,0
85494.2,54.2516,-1376.62,0,0
85754.525,54.6541,-1372.02,0,0
86014.85,54.8321,-1367.3,0,0
86275.175,55.1207,-1362.68,0,0
86535.5,55.3054,-1358.02,0,0
86795.825,55.3972,-1353.3,0,0
87056.15,55.6106,-1348.67,0,0
87316.475,55.7858,-1343.88,0,0
87576.8,55.9961,-1339.52,0,0
87837.125,55.9246,-1334.82,0,0
88097.45,55.9408,-1330.07,0,0
88357.775,55.7547,-1325.13,0,0
88618.1,56.0473,-1319.83,0,0
88878.425,56.5632,-1314.99,0,0
89138.75,57.1575,-1310.14,0,0
89399.075,57.7009,-1305.28,0,0
89659.4,58.592,-1300.48,0,0
89919.725,59.3383,-1295.94,0,0
90180,59.9036,-1291.66,0,0
90440.4,60.4791,-1287.07,0,0
90700.7,60.9942,-1282.37,0,0
90961,61.8686,-1277.5,0,0
91221.3,63.1948,-1272.8,0,0
91481.7,64.5202,-1268.61,0,0
91742,65.9329,-1264.65,0,0
92002.3,67.2592,-1261.01,0,0
92262.6,68.0902,-1257.04,0,0
92523,69.1634,-1253.08,0,0
92783.3,70.7985,-1249.23,0,0
93043.6,72.8414,-1245.81,0,0
93303.9,74.6545,-1243.05,0,0
93564.3,76.5741,-1240.62,0,0
93824.6,78.5376,-1239.48,0,0
94084.9,79.1114,-1240.12,0,0
94345.2,76.6587,-1239.93,0,0
94605.6,73.3743,-1237.1,0,0
94865.9,71.9773,-1233.19,0,0
95126.2,70.6766,-1229.52,0,0
95386.5,69.3274,-1225.91,0,0
95646.9,68.03,-1221.94,0,0
95907.2,67.0766,-1217.67,0,0
96167.5,66.3731,-1213.22,0,0
96427.8,66.1804,-1208.75,0,0
96688.2,66.2505,-1204.94,0,0
96948.5,65.8439,-1201.31,0,0
97208.8,65.2624,-1197.33,0,0
97469.1,64.9359,-1193.25,0,0
97729.5,64.6752,-1189.21,0,0
97989.8,64.5071,-1185.16,0,0
98250.1,64.3639,-1181.13,0,0
98510.4,64.2583,-1177.24,0,0
98770.8,64.147,-1173.42,0,0
99031.1,63.8863,-1169.54,0,0
99291.4,63.7575,-1165.61,0,0
99551.7,63.581,-1161.63,0,0
99812.1,63.4078,-1157.7,0,0
100072,63.1757,-1153.67,0,0
100333,63.1257,-1149.67,0,0
100593,62.9445,-1145.6,0,0
100853,62.9449,-1141.42,0,0
101114,62.9736,-1137.29,0,0
101374,62.998,-1133.28,0,0
101634,62.8743,-1129.11,0,0
101895,62.9123,-1124.73,0,0
102155,63.0038,-1120.2,0,0
102415,63.4213,-1115.57,0,0
102676,64.0957,-1110.91,0,0
102936,65.1642,-1106.56,0,0
103196,66.149,-1102.39,0,0
103457,67.2871,-1098.26,0,0
103717,68.5686,-1094.37,0,0
103977,69.7146,-1090.53,0,0
104238,71.0538,-1086.65,0,0
104498,72.761,-1083.21,0,0
104758,74.2134,-1080.3,0,0
105019,75.0475,-1077.45,0,0
105279,75.8003,-1074.16,0,0
105539,76.7724,-1070.79,0,0
105800,77.9144,-1067.43,0,0
106060,79.1893,-1064.25,0,0
106320.175,80.5298,-1061.13,0,0
106580.5,81.8971,-1058.23,0,0
106840.825,83.1717,-1055.55,0,0
107101.15,84.3698,-1052.83,0,0
107361.475,85.7622,-1050.26,0,0
107621.8,86.9804,-1048,0,0
107882.125,87.8797,-1045.88,0,0
108142.45,88.7224,-1043.47,0,0
108402.775,89.8096,-1041.15,0,0
108663.1,90.608,-1039.12,0,0
108923.425,91.4031,-1036.91,0,0
109183.75,92.2582,-1034.83,0,0
109444.075,93.2009,-1032.98,0,0
109704.4,93.7949,-1031.33,0,0
109964.725,94.0828,-1029.79,0,0
110225.05,94.0447,-1028.17,0,0
110485.375,93.7711,-1026.15,0,0
110745.7,93.4526,-1023.6,0,0
111006.025,93.424,-1021.13,0,0
111266.35,93.6523,-1018.44,0,0
111526.675,94.0567,-1015.88,0,0
111787.0,94.8574,-1013.37,0,0
112047.325,95.6405,-1011.18,0,0
112307.65,96.3275,-1009.23,0,0
112567.975,97.0324,-1007.47,0,0
112828.3,97.609,-1006,0,0
113088.625,97.799,-1004.64,0,0
113348.95,97.8915,-1003.25,0,0
113609.275,97.6382,-1001.89,0,0
113869.6,97.2734,-1000.66,0,0
114129.925,96.5348,-999.026,0,0
114390.25,95.8025,-997.117,0,0
114650.575,95.362,-995.238,0,0
114910.9,94.9179,-993.458,0,0
115171.225,94.0484,-991.713,0,0
115431.55,93.0048,-989.707,0,0
115691.875,92.1304,-987.538,0,0
115952.2,91.1642,-985.421,0,0
116212.525,90.166,-983.033,0,0
116472.85,89.3124,-980.455,0,0
116733.175,88.6318,-978.061,0,0
116993.5,87.6603,-975.777,0,0
117253.825,86.5342,-973.22,0,0
117514.15,85.4365,-970.31,0,0
117774.475,84.6199,-967.378,0,0
118034.8,83.8616,-964.265,0,0
118295.125,83.2993,-961.153,0,0
118555.45,82.8157,-958.114,0,0
118815.775,82.3937,-955.189,0,0
119076.1,81.8933,-952.039,0,0
119336.425,81.6392,-948.9,0,0
119596.75,81.524,-945.762,0,0
119857.075,81.5139,-942.742,0,0
120117.4,81.6387,-939.89,0,0
120377.725,81.6437,-937.211,0,0
120638.05,81.585,-934.469,0,0
120898.375,81.6698,-931.851,0,0
121158.7,81.6054,-929.443,0,0
121419.025,81.2676,-927.109,0,0
121679.35,80.735,-924.513,0,0
121939.675,80.2382,-921.778,0,0
122200.0,79.7479,-918.914,0,0
122460,79.3711,-915.942,0,0
122721,79.0382,-912.886,0,0
122981,78.8877,-909.826,0,0
123241,78.8024,-906.829,0,0
123502,78.6953,-903.845,0,0
123762,78.6672,-900.798,0,0
124022,78.7214,-897.809,0,0
124283,78.7869,-894.923,0,0
124543,78.8192,-892.067,0,0
124803,78.803,-889.183,0,0
125064,78.8376,-886.234,0,0
125324,78.8882,-883.252,0,0
125584,79.0097,-880.236,0,0
125845,79.3059,-877.26,0,0
126105,79.5108,-874.49,0,0
126365,79.6486,-871.59,0,0
126626,79.8393,-868.641,0,0
126886,80.1065,-865.742,0,0
127146,80.2921,-862.852,0,0
127406,80.639,-859.91,0,0
127667,80.915,-857.007,0,0
127927,81.2176,-854.059,0,0
128187,81.649,-851.067,0,0
128448,82.114,-848.076,0,0
128708,82.6763,-845.092,0,0
128968,83.4073,-842.379,0,0
129229,83.9112,-839.721,0,0
129489,84.4088,-836.88,0,0
129749,84.9559,-833.944,0,0
130010,85.7536,-831.049,0,0
130270,86.7985,-828.219,0,0
130530,87.7704,-825.685,0,0
130791,88.6636,-823.236,0,0
131051,89.5221,-820.819,0,0
131311,90.4776,-818.38,0,0
131572,91.3726,-816.152,0,0
131832,92.1581,-813.98,0,0
132092,93.0198,-811.76,0,0
132353,93.7706,-809.724,0,0
132613,94.3813,-807.715,0,0
132873,94.922,-805.584,0,0
133134,95.5399,-803.414,0,0
133394,96.0956,-801.241,0,0
133654,96.6821,-799.126,0,0
133915,97.1551,-796.892,0,0
134175,97.7593,-794.658,0,0
134435,98.4557,-792.369,0,0
134696,99.1691,-790.163,0,0
134956,99.9057,-788.145,0,0
135216,100.547,-786.048,0,0
135477,101.141,-783.97,0,0
135737,101.731,-781.85,0,0
135997,102.412,-779.678,0,0
136258,103.193,-777.458,0,0
136518,104.043,-775.249,0,0
136778,105.013,-773.202,0,0
137039,106.173,-771.308,0,0
137299,107.259,-769.505,0,0
137559,108.51,-767.995,0,0
137819,109.578,-766.951,0,0
138080,110.124,-766.039,0,0
138340.125,110.353,-764.901,0,0
138600.45,110.599,-763.616,0,0
138860.775,110.701,-762.452,0,0
139121.1,110.498,-761.122,0,0
139381.425,110.262,-759.511,0,0
139641.75,110.098,-757.812,0,0
139902.075,109.862,-755.941,0,0
140162.4,109.846,-753.954,0,0
140422.725,109.85,-751.994,0,0
140683.05,109.868,-750.145,0,0
140943.375,109.828,-748.201,0,0
141203.7,109.759,-746.189,0,0
141464.025,109.786,-744.069,0,0
141724.35,109.853,-742.048,0,0
141984.675,109.816,-739.978,0,0
142245.0,109.795,-737.725,0,0
142505.325,109.982,-735.372,0,0
142765.65,110.234,-733.26,0,0
143025.975,110.341,-731.158,0,0
143286.3,110.349,-728.742,0,0
143546.625,110.578,-726.329,0,0
143806.95,111.1,-723.884,0,0
144067.275,111.616,-721.714,0,0
144327.6,112.015,-719.569,0,0
144587.925,112.348,-717.397,0,0
144848.25,112.705,-715.011,0,0
145108.575,113.308,-712.521,0,0
145368.9,114.186,-710.227,0,0
145629.225,115.078,-708.217,0,0
145889.55,115.773,-706.362,0,0
146149.875,116.39,-704.392,0,0
146410.2,117.063,-702.477,0,0
146670.525,117.833,-700.584,0,0
146930.85,118.655,-698.923,0,0
147191.175,119.251,-697.619,0,0
147451.5,119.364,-696.267,0,0
147711.825,119.332,-694.55,0,0
147972.15,119.318,-692.614,0,0
148232.475,119.366,-690.574,0,0
148492.8,119.615,-688.327,0,0
148753.125,120.037,-686.246,0,0
149013.45,120.403,-684.268,0,0
149273.775,120.797,-682.147,0,0
149534.1,121.32,-680.247,0,0
149794.425,121.808,-678.506,0,0
150054.75,121.98,-676.887,0,0
150315.075,121.988,-675.044,0,0
150575.4,122.046,-673.151,0,0
150835.725,122.025,-671.295,0,0
151096.05,121.74,-669.328,0,0
151356.375,121.437,-667.045,0,0
151616.7,121.274,-664.614,0,0
151877.025,121.15,-662.159,0,0
152137.35,120.936,-659.601,0,0
152397.675,120.791,-656.851,0,0
152658.0,120.685,-653.945,0,0
152918.325,120.63,-650.808,0,0
153178.65,120.86,-647.466,0,0
153438.975,121.355,-644.132,0,0
153699.3,122.057,-640.844,0,0
153959.625,122.891,-637.632,0,0
154219.95,123.724,-634.477,0,0
154480,124.545,-631.251,0,0
154741,125.556,-627.81,0,0
155001,126.825,-624.504,0,0
155261,128.038,-621.213,0,0
155522,129.472,-617.749,0,0
155782,131.225,-614.412,0,0
156042,132.961,-611.089,0,0
156303,135.007,-607.682,0,0
156563,137.35,-604.371,0,0
156823,140.036,-601.285,0,0
157084,142.995,-598.529,0,0
157344,146.083,-596.356,0,0
157604,148.883,-594.604,0,0
157864,151.368,-593.106,0,0
158125,153.321,-591.693,0,0
158385,155.212,-589.852,0,0
158645,157.148,-588.111,0,0
158906,158.767,-586.373,0,0
159166,160.098,-584.195,0,0
159426,161.722,-581.268,0,0
159687,163.991,-578.13,0,0
159947,166.84,-575.091,0,0
160207,170.2,-572.133,0,0
160468,173.958,-569.787,0,0
160728,177.855,-567.739,0,0
160988,182.09,-565.938,0,0
161249,186.524,-564.875,0,0
161509,190.889,-564.469,0,0
161769,194.881,-564.639,0,0
162030,198.487,-565.081,0,0
162290,201.687,-565.847,0,0
162550,204.259,-566.572,0,0
162811,206.587,-567.11,0,0
163071,208.699,-567.513,0,0
163331,210.618,-567.748,0,0
163592,212.495,-567.716,0,0
163852,214.397,-567.298,0,0
164112,216.839,-566.58,0,0
164373,219.911,-566.13,0,0
164633,223.215,-566.379,0,0
164893,226.195,-567.177,0,0
165154,228.986,-567.865,0,0
165414,231.958,-568.863,0,0
165674,234.763,-570.285,0,0
165935,237.269,-571.946,0,0
166195,239.596,-573.778,0,0
166455,241.587,-575.899,0,0
166716,243.101,-578.006,0,0
166976,244.556,-579.893,0,0
167236,246.018,-581.935,0,0
167497,247.425,-584.268,0,0
167757,248.458,-587.017,0,0
168017,248.815,-589.876,0,0
168277,248.653,-592.523,0,0
168538,248.222,-594.952,0,0
168798,247.416,-597.219,0,0
169058,246.479,-599.184,0,0
169319,245.457,-601.143,0,0
169579,243.918,-603.145,0,0
169839,241.698,-604.584,0,0
170100,239.469,-605.265,0,0
170360.075,237.366,-605.493,0,0
170620.4,235.554,-605.36,0,0
170880.725,234.008,-605.122,0,0
171141.05,232.462,-604.859,0,0
171401.375,230.797,-604.264,0,0
171661.7,229.459,-603.23,0,0
171922.025,228.614,-602.274,0,0
172182.35,227.756,-601.5,0,0
172442.675,226.931,-600.556,0,0
172703.0,226.336,-599.555,0,0
172963.325,225.913,-598.654,0,0
173223.65,225.571,-597.931,0,0
173483.975,225.158,-597.366,0,0
173744.3,224.585,-596.73,0,0
174004.625,224.041,-595.98,0,0
174264.95,223.538,-595.133,0,0
174525.275,223.108,-594.294,0,0
174785.6,222.813,-593.399,0,0
175045.925,222.533,-592.63,0,0
175306.25,222.284,-591.815,0,0
175566.575,222.199,-591.075,0,0
175826.9,222.081,-590.578,0,0
176087.225,221.78,-590.171,0,0
176347.55,221.433,-589.715,0,0
176607.875,220.98,-589.426,0,0
176868.2,220.144,-588.925,0,0
177128.525,219.419,-588.041,0,0
177388.85,218.925,-587.047,0,0
177649.175,218.705,-586.111,0,0
177909.5,218.676,-585.462,0,0
178169.825,218.6,-585.12,0,0
178430.15,218.231,-584.975,0,0
178690.475,217.598,-584.786,0,0
178950.8,216.978,-584.671,0,0
179211.125,216.064,-584.676,0,0
179471.45,214.843,-584.564,0,0
179731.775,213.511,-584.386,0,0
179992.1,211.889,-584.188,0,0
180252.425,209.758,-583.713,0,0
180512.75,207.471,-582.537,0,0
180773.075,205.409,-580.987,0,0
181033.4,203.59,-579.284,0,0
181293.725,201.883,-577.39,0,0
181554.05,200.428,-575.37,0,0
181814.375,199.05,-573.478,0,0
182074.7,197.594,-571.593,0,0
182335.025,195.984,-569.414,0,0
182595.35,194.672,-566.934,0,0
182855.675,193.594,-564.552,0,0
183116.0,192.435,-562.257,0,0
183376.325,191.205,-559.768,0,0
183636.65,189.981,-557.063,0,0
183896.975,188.94,-554.114,0,0
184157.3,188.122,-551.073,0,0
184417.625,187.574,-548.057,0,0
184677.95,187.005,-545.067,0,0
184938.275,186.559,-541.932,0,0
185198.6,186.281,-538.868,0,0
185458.925,186.222,-535.684,0,0
185719.25,186.27,-532.659,0,0
185979.575,186.353,-529.614,0,0
186239.9,186.558,-526.546,0,0
186500,186.856,-523.73,0,0
186761,187.005,-520.926,0,0
187021,187.046,-517.935,0,0
187281,187.188,-514.615,0,0
187542,187.592,-511.253,0,0
187802,188.507,-507.958,0,0
188062,189.51,-505.013,0,0
188322,190.504,-502.392,0,0
188583,191.241,-499.805,0,0
188843,191.866,-497.163,0,0
189103,192.583,-494.381,0,0
189364,193.387,-491.571,0,0
189624,194.129,-489.039,0,0
189884,194.652,-486.298,0,0
190145,195.025,-483.488,0,0
190405,195.645,-480.462,0,0
190665,196.098,-477.39,0,0
190926,196.883,-473.993,0,0
191186,197.794,-470.63,0,0
191446,198.832,-467.239,0,0
191707,199.916,-463.887,0,0
191967,201.192,-460.462,0,0
192227,202.397,-457.078,0,0
192488,203.823,-453.581,0,0
192748,205.324,-450.095,0,0
193008,206.878,-446.52,0,0
193269,208.643,-442.918,0,0
193529,210.606,-439.219,0,0
193789,212.787,-435.762,0,0
194050,214.954,-432.292,0,0
194310,217.293,-429.001,0,0
194570,219.518,-425.725,0,0
194831,221.689,-422.408,0,0
195091,224.016,-418.946,0,0
195351,226.624,-415.389,0,0
195612,229.432,-411.95,0,0
195872,232.266,-408.661,0,0
196132,235.169,-405.418,0,0
196393,238.214,-402.002,0,0
196653,241.453,-398.798,0,0
196913,244.781,-395.727,0,0
197174,248.067,-392.748,0,0
197434,251.369,-389.75,0,0
197694,254.786,-386.737,0,0
197955,258.337,-383.83,0,0
198215,261.891,-380.911,0,0
198475,265.596,-378.124,0,0
198735,269.269,-375.307,0,0
198996,272.844,-372.587,0,0
199256,276.412,-369.698,0,0
199516,280.027,-366.61,0,0
199777,283.846,-363.284,0,0
200037,288.072,-359.888,0,0
200297,292.663,-356.549,0,0
200558,297.409,-353.431,0,0
200818,302.274,-350.451,0,0
201078,306.98,-347.564,0,0
201339,311.782,-344.213,0,0
201599,317.054,-340.577,0,0
201859,322.939,-337.101,0,0
202120,329.156,-333.575,0,0
202380.025,335.857,-330.115,0,0
202640.35,343.239,-327.042,0,0
202900.675,350.966,-324.256,0,0
203161.0,358.957,-321.743,0,0
203421.325,367.428,-319.562,0,0
203681.65,376.385,-317.619,0,0
203941.975,385.798,-316.31,0,0
204202.3,395.917,-315.675,0,0
204462.625,406.172,-315.95,0,0
204722.95,416.633,-317.042,0,0
204983.275,427.032,-319.027,0,0
205243.6,437.365,-321.9,0,0
205503.925,447.359,-325.556,0,0
205764.25,456.788,-330.056,0,0
206024.575,465.844,-334.783,0,0
206284.9,474.814,-340.452,0,0
206545.225,483.161,-346.66,0,0
206805.55,490.864,-353.587,0,0
207065.875,497.554,-360.889,0,0
207326.2,503.501,-367.995,0,0
207586.525,509.081,-375.022,0,0
207846.85,514.454,-382.228,0,0
208107.175,519.457,-389.73,0,0
208367.5,523.923,-397.57,0,0
208627.825,527.747,-405.612,0,0
208888.15,530.931,-413.797,0,0
209148.475,533.37,-421.864,0,0
209408.8,535.452,-429.914,0,0
209669.125,536.99,-438.302,0,0
209929.45,537.56,-446.794,0,0
210189.775,536.603,-455.017,0,0
210450.1,534.572,-462.255,0,0
210710.425,531.818,-468.317,0,0
210970.75,528.967,-472.977,0,0
211231.075,526.37,-476.881,0,0
211491.4,523.88,-480.074,0,0
211751.725,521.356,-482.353,0,0
212012.05,519.312,-483.551,0,0
212272.375,518.041,-483.916,0,0
212532.7,517.916,-483.672,0,0
212793.025,519.061,-483.481,0,0
213053.35,521.179,-483.971,0,0
213313.675,523.745,-485.099,0,0
213574.0,526.485,-487.149,0,0
213834.325,529.058,-489.401,0,0
214094.65,531.256,-492.233,0,0
214354.975,533.604,-494.792,0,0
214615.3,536.026,-497.69,0,0
214875.625,538.107,-500.794,0,0
215135.95,540.011,-504.059,0,0
215396.275,541.739,-506.974,0,0
215656.6,543.693,-509.946,0,0
215916.925,545.584,-513.001,0,0
216177.25,547.452,-515.987,0,0
216437.575,549.276,-518.933,0,0
216697.9,551.46,-521.963,0,0
216958.225,553.553,-525.159,0,0
217218.55,555.681,-528.388,0,0
217478.875,557.882,-531.883,0,0
217739.2,559.766,-535.524,0,0
217999.525,561.422,-539.09,0,0
218259.85,563.006,-542.349,0,0
218520,564.742,-545.271,0,0
218780,566.863,-547.948,0,0
219041,569.599,-550.699,0,0
219301,572.637,-553.676,0,0
219561,575.977,-557.243,0,0
219822,579.511,-561.105,0,0
220082,583.064,-565.072,0,0
220342,586.928,-569.666,0,0
220603,590.729,-574.745,0,0
220863,594.608,-580.185,0,0
221123,598.479,-585.99,0,0
221384,602.438,-592.467,0,0
221644,606.182,-599.572,0,0
221904,609.486,-607.278,0,0
222165,612.476,-615.4,0,0
222425,614.905,-624.046,0,0
222685,616.956,-632.964,0,0
222946,618.55,-642.211,0,0
223206,619.628,-651.914,0,0
223466,619.98,-661.964,0,0
223727,619.516,-672.018,0,0
223987,618.315,-682.185,0,0
224247,616.424,-692.004,0,0
224508,614.231,-701.752,0,0
224768,611.055,-711.178,0,0
225028,608.129,-719.992,0,0
225289,604.857,-728.667,0,0
225549,601.422,-737.562,0,0
225809,597.915,-746.075,0,0
226070,593.979,-755.352,0,0
226330,589.311,-764.845,0,0
226590,583.754,-773.851,0,0
226851,577.523,-782.456,0,0
227111,570.964,-790.577,0,0
227371,563.989,-798.403,0,0
227632,556.979,-805.808,0,0
227892,549.41,-813.04,0,0
228152,541.466,-819.886,0,0
228413,532.911,-826.343,0,0
228673,524,-831.922,0,0
228933,514.914,-837.026,0,0
229193,505.617,-841.466,0,0
229454,496.196,-845.376,0,0
229714,486.619,-848.33,0,0
229974,477.703,-850.686,0,0
230235,468.526,-852.542,0,0
230495,459.888,-853.932,0,0
230755,451.375,-854.907,0,0
231016,443.033,-855.612,0,0
231276,435,-855.885,0,0
231536,427.19,-855.883,0,0
231797,419.781,-855.614,0,0
232057,412.627,-855.162,0,0
232317,405.595,-854.494,0,0
232578,398.821,-853.611,0,0
232838,392.226,-852.596,0,0
233098,385.985,-851.226,0,0
233359,380.177,-849.885,0,0
233619,374.757,-848.363,0,0
233879,369.541,-846.951,0,0
234140,364.73,-845.624,0,0
234400,360.176,-844.268,0,0
234660.3,355.933,-843.216,0,0
234920.625,351.654,-842.809,0,0
235180.95,347.156,-842.269,0,0
235441.275,342.523,-841.785,0,0
235701.6,337.872,-841.336,0,0
235961.925,332.99,-840.648,0,0
236222.25,328.23,-839.876,0,0
236482.575,323.34,-839.025,0,0
236742.9,318.782,-838.031,0,0
237003.225,313.994,-837.116,0,0
237263.55,309.239,-836.144,0,0
237523.875,304.371,-834.914,0,0
237784.2,299.627,-833.54,0,0
238044.525,295.001,-832.035,0,0
238304.85,290.397,-830.602,0,0
238565.175,285.848,-828.832,0,0
238825.5,281.315,-826.936,0,0
239085.825,277.172,-824.907,0,0
239346.15,272.932,-822.895,0,0
239606.475,268.971,-820.836,0,0
239866.8,265.108,-818.635,0,0
240127.125,261.158,-816.715,0,0
240387.45,257.524,-814.397,0,0
240647.775,253.912,-812.147,0,0
240908.1,250.326,-809.941,0,0
241168.425,246.901,-807.643,0,0
241428.75,243.536,-805.436,0,0
241689.075,240.331,-803.203,0,0
241949.4,237.05,-800.853,0,0
242209.725,233.889,-798.478,0,0
242470.05,230.817,-796.055,0,0
242730.375,227.771,-793.614,0,0
242990.7,224.955,-790.917,0,0
243251.025,222.38,-788.423,0,0
243511.35,219.933,-785.914,0,0
243771.675,217.635,-783.654,0,0
244032.0,215.175,-781.395,0,0
244292.325,212.87,-779.214,0,0
244552.65,210.734,-777.101,0,0
244812.975,208.311,-775.097,0,0
245073.3,205.94,-773.191,0,0
245333.625,203.536,-770.925,0,0
245593.95,201.147,-768.828,0,0
245854.275,198.878,-766.86,0,0
246114.6,196.472,-764.732,0,0
246374.925,194.099,-762.506,0,0
246635.25,191.573,-760.305,0,0
246895.575,189.145,-757.925,0,0
247155.9,186.762,-755.449,0,0
247416.225,184.589,-752.921,0,0
247676.55,182.574,-750.367,0,0
247936.875,180.604,-747.827,0,0
248197.2,178.726,-745.336,0,0
248457.525,176.888,-742.896,0,0
248717.85,175.037,-740.322,0,0
248978.175,173.265,-737.916,0,0
249238.5,171.62,-735.415,0,0
249498.825,170.001,-732.807,0,0
249759.15,168.396,-730.255,0,0
250019.475,166.823,-727.619,0,0
250279.8,165.335,-725.188,0,0
250540,164.025,-722.467,0,0
250800,162.712,-719.96,0,0
251061,161.538,-717.543,0,0
251321,160.467,-715.171,0,0
251581,159.336,-712.839,0,0
251842,158.124,-710.58,0,0
252102,156.894,-708.29,0,0
252362,155.612,-705.959,0,0
252623,154.389,-703.561,0,0
252883,153.166,-701.141,0,0
253143,151.98,-698.633,0,0
253404,150.908,-696.001,0,0
253664,149.962,-693.391,0,0
253924,149.118,-690.748,0,0
254185,148.352,-688.131,0,0
254445,147.737,-685.548,0,0
254705,147.19,-682.983,0,0
254966,146.792,-680.346,0,0
255226,146.379,-678.128,0,0
255486,145.956,-675.821,0,0
255747,145.54,-673.584,0,0
256007,145.102,-671.408,0,0
256267,144.754,-669.086,0,0
256528,144.331,-666.824,0,0
256788,143.961,-664.545,0,0
257048,143.616,-662.285,0,0
257309,143.342,-660.061,0,0
257569,143.082,-657.805,0,0
257829,142.807,-655.507,0,0
258090,142.64,-653.119,0,0
258350,142.485,-650.757,0,0
258610,142.551,-648.38,0,0
258871,142.596,-646,0,0
259131,142.74,-643.613,0,0
259391,143.041,-641.173,0,0
259651,143.419,-638.868,0,0
259912,144.127,-636.615,0,0
260172,144.73,-634.471,0,0
260432,145.604,-632.476,0,0
260693,146.332,-630.583,0,0
260953,147.232,-628.804,0,0
261213,148.057,-627.139,0,0
261474,148.921,-625.505,0,0
261734,149.805,-623.967,0,0
261994,150.667,-622.512,0,0
262255,151.545,-621.095,0,0
262515,152.501,-619.727,0,0
262775,153.434,-618.465,0,0
263036,154.368,-617.256,0,0
263296,155.39,-616.09,0,0
263556,156.374,-615.023,0,0
263817,157.324,-614.02,0,0
264077,158.369,-613.043,0,0
264337,159.375,-612.144,0,0
264598,160.556,-611.199,0,0
264858,161.813,-610.333,0,0
265118,163.16,-609.726,0,0
265379,164.559,-609.38,0,0
265639,165.975,-609.107,0,0
265899,167.391,-609.059,0,0
266160,168.824,-609.254,0,0
266420,170.149,-609.643,0,0
266680.25,171.351,-610.333,0,0
266940.575,172.444,-611.233,0,0
267200.9,173.321,-612.368,0,0
267461.225,173.992,-613.666,0,0
267721.55,174.279,-615.141,0,0
267981.875,174.271,-616.763,0,0
268242.2,173.961,-618.359,0,0
268502.525,173.283,-619.931,0,0
268762.85,172.277,-621.473,0,0
269023.175,170.916,-622.847,0,0
269283.5,169.303,-623.988,0,0
269543.825,167.431,-624.799,0,0
269804.15,165.456,-625.449,0,0
270064.475,163.374,-625.855,0,0
270324.8,161.162,-626.004,0,0
270585.125,158.868,-625.876,0,0
270845.45,156.511,-625.477,0,0
271105.775,154.233,-624.656,0,0
271366.1,152.077,-623.702,0,0
271626.425,149.96,-622.404,0,0
271886.75,148.062,-620.981,0,0
272147.075,146.376,-619.355,0,0
272407.4,144.892,-617.598,0,0
272667.725,143.58,-615.798,0,0
272928.05,142.411,-613.992,0,0
273188.375,141.456,-612.11,0,0
273448.7,140.687,-610.266,0,0
273709.025,140.017,-608.497,0,0
273969.35,139.47,-606.731,0,0
274229.675,138.955,-605.093,0,0
274490.0,138.553,-603.392,0,0
274750.325,138.212,-601.667,0,0
275010.65,137.922,-600.065,0,0
275270.975,137.64,-598.486,0,0
275531.3,137.527,-596.864,0,0
275791.625,137.484,-595.218,0,0
276051.95,137.587,-593.702,0,0
276312.275,137.752,-592.223,0,0
276572.6,137.963,-590.835,0,0
276832.925,138.242,-589.531,0,0
277093.25,138.571,-588.31,0,0
277353.575,138.93,-587.189,0,0
277613.9,139.309,-586.165,0,0
277874.225,139.71,-585.212,0,0
278134.55,140.08,-584.402,0,0
278394.875,140.44,-583.673,0,0
278655.2,140.702,-583.061,0,0
278915.525,140.931,-582.504,0,0
279175.85,140.987,-581.996,0,0
279436.175,141.036,-581.446,0,0
279696.5,141.058,-580.925,0,0
279956.825,140.966,-580.286,0,0
280217.15,140.841,-579.811,0,0
280477.475,140.688,-579.12,0,0
280737.8,140.589,-578.402,0,0
280998.125,140.582,-577.737,0,0
281258.45,140.596,-577.099,0,0
281518.775,140.642,-576.54,0,0
281779.1,140.687,-576.106,0,0
282039.425,140.616,-575.74,0,0
282299.75,140.41,-575.435,0,0
282560,140.093,-575.045,0,0
282820,139.649,-574.636,0,0
283081,139.143,-574.024,0,0
283341,138.669,-573.369,0,0
283601,138.16,-572.648,0,0
283862,137.835,-571.831,0,0
284122,137.621,-570.987,0,0
284382,137.352,-570.273,0,0
284643,137.195,-569.526,0,0
284903,137.014,-568.887,0,0
285163,136.692,-568.208,0,0
285424,136.509,-567.744,0,0
285684,136.168,-567.151,0,0
285944,135.721,-566.687,0,0
286205,135.101,-566.166,0,0
286465,134.466,-565.495,0,0
286725,133.645,-564.731,0,0
286986,132.823,-563.807,0,0
287246,132.056,-562.632,0,0
287506,131.32,-561.38,0,0
287767,130.72,-560.002,0,0
288027,130.204,-558.324,0,0
288287,129.936,-556.745,0,0
288548,129.775,-555.095,0,0
288808,129.87,-553.353,0,0
289068,130.142,-551.774,0,0
289329,130.637,-550.268,0,0
289589,131.104,-548.874,0,0
289849,131.851,-547.645,0,0
290109,132.608,-546.623,0,0
290370,133.338,-545.812,0,0
290630,133.95,-545.157,0,0
290890,134.599,-544.681,0,0
291151,134.949,-544.201,0,0
291411,135.21,-543.787,0,0
291671,135.38,-543.277,0,0
291932,135.391,-542.877,0,0
292192,135.469,-542.283,0,0
292452,135.462,-541.725,0,0
292713,135.363,-541.098,0,0
292973,135.254,-540.433,0,0
293233,135.161,-539.646,0,0
293494,135.069,-538.773,0,0
293754,134.951,-537.933,0,0
294014,134.84,-536.959,0,0
294275,134.843,-536.052,0,0
294535,134.811,-534.954,0,0
294795,134.895,-533.851,0,0
295056,134.911,-532.738,0,0
295316,135.077,-531.482,0,0
295576,135.199,-530.195,0,0
295837,135.696,-528.931,0,0
296097,136.107,-527.643,0,0
296357,136.743,-526.317,0,0
296618,137.456,-525.177,0,0
296878,138.267,-524.053,0,0
297138,139.17,-522.968,0,0
297399,140.131,-522.033,0,0
297659,141.011,-521.183,0,0
297919,141.977,-520.353,0,0
298180,142.938,-519.582,0,0
298440,143.92,-518.938,0,0
298700.2,144.932,-518.31,0,0
298960.525,145.917,-517.767,0,0
299220.85,146.813,-517.219,0,0
299481.175,147.705,-516.626,0,0
299741.5,148.779,-516.131,0,0
300001.825,149.796,-515.57,0,0
300262.15,150.839,-515.083,0,0
300522.475,151.938,-514.617,0,0
300782.8,153.078,-514.149,0,0
301043.125,154.339,-513.803,0,0
301303.45,155.659,-513.485,0,0
301563.775,157.091,-513.224,0,0
301824.1,158.548,-513.311,0,0
302084.425,160.032,-513.546,0,0
302344.75,161.358,-513.955,0,0
302605.075,162.655,-514.414,0,0
302865.4,163.756,-514.937,0,0
303125.725,164.708,-515.512,0,0
303386.05,165.616,-515.965,0,0
303646.375,166.575,-516.462,0,0
303906.7,167.577,-517.029,0,0
304167.025,168.488,-517.584,0,0
304427.35,169.388,-518.255,0,0
304687.675,170.236,-519.072,0,0
304948.0,171.091,-519.78,0,0
305208.325,171.848,-520.641,0,0
305468.65,172.592,-521.391,0,0
305728.975,173.334,-522.197,0,0
305989.3,174.121,-523.112,0,0
306249.625,174.896,-523.994,0,0
306509.95,175.55,-525.073,0,0
306770.275,176.349,-526.264,0,0
307030.6,176.948,-527.549,0,0
307290.925,177.451,-528.981,0,0
307551.25,177.858,-530.479,0,0
307811.575,178.09,-532.021,0,0
308071.9,178.199,-533.556,0,0
308332.225,178.14,-535.073,0,0
308592.55,177.868,-536.586,0,0
308852.875,177.618,-538.024,0,0
309113.2,177.166,-539.412,0,0
309373.525,176.68,-540.739,0,0
309633.85,176.237,-542.01,0,0
309894.175,175.66,-543.153,0,0
310154.5,175.092,-544.395,0,0
310414.825,174.587,-545.667,0,0
310675.15,173.957,-546.978,0,0
310935.475,173.237,-548.17,0,0
311195.8,172.288,-549.411,0,0
311456.125,171.421,-550.573,0,0
311716.45,170.462,-551.633,0,0
311976.775,169.302,-552.735,0,0
312237.1,168.278,-553.658,0,0
312497.425,167.097,-554.551,0,0
312757.75,165.873,-555.405,0,0
313018.075,164.643,-556.219,0,0
313278.4,163.389,-556.924,0,0
313538.725,162.109,-557.567,0,0
313799.05,160.885,-558.099,0,0
314059.375,159.721,-558.637,0,0
314319.7,158.625,-559.164,0,0
314580,157.491,-559.748,0,0
314840,156.333,-560.303,0,0
315101,155.132,-560.823,0,0
315361,153.841,-561.439,0,0
315621,152.519,-561.956,0,0
315882,151.138,-562.54,0,0
316142,149.704,-563.057,0,0
316402,148.221,-563.503,0,0
316663,146.645,-563.878,0,0
316923,145.06,-564.093,0,0
317183,143.482,-564.436,0,0
317444,141.83,-564.576,0,0
317704,140.143,-564.656,0,0
317964,138.502,-564.656,0,0
318225,136.763,-564.652,0,0
318485,135.102,-564.522,0,0
318745,133.387,-564.387,0,0
319006,131.769,-564.098,0,0
319266,130.036,-563.812,0,0
319526,128.338,-563.366,0,0
319787,126.666,-562.935,0,0
320047,125.101,-562.368,0,0
320307,123.618,-561.832,0,0
320567,122.019,-561.181,0,0
320828,120.513,-560.484,0,0
321088,118.975,-559.734,0,0
321348,117.418,-559.057,0,0
321609,115.984,-558.104,0,0
321869,114.538,-557.153,0,0
322129,113.164,-556.092,0,0
322390,111.849,-554.906,0,0
322650,110.583,-553.773,0,0
322910,109.48,-552.441,0,0
323171,108.462,-551.195,0,0
323431,107.577,-549.966,0,0
323691,106.797,-548.714,0,0
323952,106.125,-547.41,0,0
324212,105.487,-546.232,0,0
324472,104.995,-545.02,0,0
324733,104.479,-543.983,0,0
324993,104.031,-542.784,0,0
325253,103.673,-541.805,0,0
325514,103.349,-540.825,0,0
325774,103.11,-539.893,0,0
326034,102.873,-539.011,0,0
326295,102.742,-538.216,0,0
326555,102.513,-537.451,0,0
326815,102.343,-536.797,0,0
327076,102.096,-536.155,0,0
327336,101.93,-535.539,0,0
327596,101.662,-535.048,0,0
327857,101.413,-534.605,0,0
328117,101.112,-534.139,0,0
328377,100.776,-533.765,0,0
328638,100.467,-533.287,0,0
328898,100.104,-532.919,0,0
329158,99.6803,-532.61,0,0
329419,99.3246,-532.241,0,0
329679,98.9001,-531.87,0,0
329939,98.4248,-531.546,0,0
330200,97.9252,-531.252,0,0
330460,97.48,-530.925,0,0
330720.15,96.8942,-530.534,0,0
330980.475,96.2572,-530.274,0,0
331240.8,95.6907,-529.972,0,0
331501.125,95.0539,-529.596,0,0
331761.45,94.4721,-529.265,0,0
332021.775,93.8265,-528.883,0,0
332282.1,93.1662,-528.547,0,0
332542.425,92.4501,-528.156,0,0
332802.75,91.6656,-527.756,0,0
333063.075,91.0162,-527.36,0,0
333323.4,90.2849,-526.924,0,0
333583.725,89.4804,-526.463,0,0
333844.05,88.7608,-525.989,0,0
334104.375,87.8978,-525.564,0,0
334364.7,87.0812,-524.99,0,0
334625.025,86.1869,-524.453,0,0
334885.35,85.4303,-523.812,0,0
335145.675,84.5858,-523.132,0,0
335406.0,83.8297,-522.444,0,0
335666.325,83.0155,-521.743,0,0
335926.65,82.2279,-520.931,0,0
336186.975,81.5363,-520.266,0,0
336447.3,80.8726,-519.456,0,0
336707.625,80.1243,-518.629,0,0
336967.95,79.4863,-517.821,0,0
337228.275,78.8249,-517.077,0,0
337488.6,78.1831,-516.235,0,0
337748.925,77.6134,-515.49,0,0
338009.25,76.9815,-514.634,0,0
338269.575,76.4286,-513.839,0,0
338529.9,75.841,-513.019,0,0
338790.225,75.2958,-512.198,0,0
339050.55,74.6897,-511.37,0,0
339310.875,74.2045,-510.508,0,0
339571.2,73.7184,-509.675,0,0
339831.525,73.1507,-508.799,0,0
340091.85,72.7503,-507.953,0,0
340352.175,72.2633,-507.177,0,0
340612.5,71.8111,-506.355,0,0
340872.825,71.4147,-505.53,0,0
341133.15,70.9721,-504.716,0,0
341393.475,70.4998,-503.942,0,0
341653.8,69.9781,-503.127,0,0
341914.125,69.5957,-502.313,0,0
342174.45,69.1663,-501.559,0,0
342434.775,68.7541,-500.764,0,0
342695.1,68.3241,-499.956,0,0
342955.425,67.8862,-499.203,0,0
343215.75,67.4708,-498.361,0,0
343476.075,67.0463,-497.551,0,0
343736.4,66.6382,-496.788,0,0
343996.725,66.3186,-495.987,0,0
344257.05,65.8104,-495.119,0,0
344517.375,65.3835,-494.366,0,0
344777.7,64.979,-493.573,0,0
345038.025,64.5359,-492.747,0,0
345298.35,64.1,-491.935,0,0
345558.675,63.6467,-491.15,0,0
345819.0,63.2479,-490.274,0,0
346079.325,62.815,-489.38,0,0
346339.65,62.4341,-488.484,0,0
346599.975,61.993,-487.617,0,0
346860,61.6246,-486.701,0,0
347121,61.2322,-485.737,0,0
347381,60.9314,-484.802,0,0
347641,60.5643,-483.859,0,0
347902,60.3397,-482.868,0,0
348162,59.984,-481.984,0,0
348422,59.7546,-480.987,0,0
348683,59.5632,-479.993,0,0
348943,59.3151,-479.022,0,0
349203,59.1789,-478.122,0,0
349464,59.0238,-477.214,0,0
349724,58.8436,-476.307,0,0
349984,58.6718,-475.42,0,0
350245,58.5451,-474.551,0,0
350505,58.4138,-473.694,0,0
350765,58.2181,-472.821,0,0
351025,58.1374,-471.97,0,0
351286,57.9849,-471.113,0,0
351546,57.8765,-470.24,0,0
351806,57.7577,-469.4,0,0
352067,57.6261,-468.522,0,0
352327,57.5819,-467.705,0,0
352587,57.5107,-466.846,0,0
352848,57.4276,-466.063,0,0
353108,57.3678,-465.254,0,0
353368,57.2772,-464.513,0,0
353629,57.1975,-463.7,0,0
353889,57.0982,-462.912,0,0
354149,56.9743,-462.156,0,0
354410,56.9339,-461.322,0,0
354670,56.8204,-460.559,0,0
354930,56.6927,-459.698,0,0
355191,56.7101,-458.921,0,0
355451,56.6258,-458.146,0,0
355711,56.552,-457.32,0,0
355972,56.4822,-456.58,0,0
356232,56.4588,-455.825,0,0
356492,56.4353,-455.01,0,0
356753,56.3803,-454.259,0,0
357013,56.3467,-453.515,0,0
357273,56.3032,-452.699,0,0
357534,56.3017,-451.922,0,0
357794,56.2207,-451.174,0,0
358054,56.1804,-450.419,0,0
358315,56.1659,-449.639,0,0
358575,56.0967,-448.872,0,0
358835,56.0652,-448.107,0,0
359096,56.0575,-447.302,0,0
359356,56.0879,-446.489,0,0
359616,56.171,-445.716,0,0
359877,56.1543,-444.903,0,0
360137,56.2388,-444.224,0,0
360397,56.2616,-443.479,0,0
360658,56.2826,-442.736,0,0
360918,56.3884,-441.998,0,0
361178,56.422,-441.219,0,0
361438,56.4691,-440.581,0,0
361699,56.5654,-439.895,0,0
361959,56.5607,-439.22,0,0
362219,56.5473,-438.447,0,0
362480,56.54,-437.766,0,0
362740.1,56.5722,-437.052,0,0
363000.425,56.5508,-436.259,0,0
363260.75,56.6001,-435.536,0,0
363521.075,56.651,-434.744,0,0
363781.4,56.7376,-434.007,0,0
364041.725,56.8255,-433.296,0,0
364302.05,56.8977,-432.489,0,0
364562.375,57.005,-431.744,0,0
364822.7,57.159,-431.006,0,0
365083.025,57.2336,-430.28,0,0
365343.35,57.3669,-429.55,0,0
365603.675,57.5191,-428.882,0,0
365864.0,57.6694,-428.133,0,0
366124.325,57.78,-427.492,0,0
366384.65,57.8617,-426.865,0,0
366644.975,57.9608,-426.221,0,0
366905.3,58.0125,-425.507,0,0
367165.625,58.0223,-424.814,0,0
367425.95,58.0726,-424.073,0,0
367686.275,58.136,-423.249,0,0
367946.6,58.1954,-422.445,0,0
368206.925,58.3065,-421.59,0,0
368467.25,58.4699,-420.721,0,0
368727.575,58.6344,-419.887,0,0
368987.9,58.861,-418.996,0,0
369248.225,59.1092,-418.109,0,0
369508.55,59.3493,-417.227,0,0
369768.875,59.7555,-416.416,0,0
370029.2,60.0635,-415.561,0,0
370289.525,60.4448,-414.696,0,0
370549.85,60.8955,-413.858,0,0
370810.175,61.3084,-413.07,0,0
371070.5,61.7893,-412.259,0,0
371330.825,62.3325,-411.515,0,0
371591.15,62.8688,-410.718,0,0
371851.475,63.4916,-410.049,0,0
372111.8,64.1453,-409.376,0,0
372372.125,64.7957,-408.769,0,0
372632.45,65.4872,-408.236,0,0
372892.775,66.147,-407.7,0,0
373153.1,66.8269,-407.28,0,0
373413.425,67.4569,-406.877,0,0
373673.75,68.1058,-406.515,0,0
373934.075,68.702,-406.176,0,0
374194.4,69.3516,-405.841,0,0
374454.725,69.9662,-405.599,0,0
374715.05,70.5236,-405.362,0,0
374975.375,71.0775,-405.103,0,0
375235.7,71.6416,-404.922,0,0
375496.025,72.1728,-404.723,0,0
375756.35,72.6699,-404.515,0,0
376016.675,73.1771,-404.369,0,0
376277.0,73.6598,-404.208,0,0
376537.325,74.2078,-404.108,0,0
376797.65,74.6856,-403.965,0,0
377057.975,75.1434,-403.916,0,0
377318.3,75.6555,-403.86,0,0
377578.625,76.0808,-403.857,0,0
377838.95,76.499,-403.844,0,0
378099.275,76.9148,-403.855,0,0
378359.6,77.2484,-403.867,0,0
378619.925,77.5939,-403.907,0,0
378880,77.8639,-403.947,0,0
379141,78.0909,-403.96,0,0
379401,78.3572,-403.986,0,0
379661,78.5616,-403.959,0,0
379922,78.7369,-403.926,0,0
380182,78.9863,-403.854,0,0
380442,79.3054,-403.758,0,0
380703,79.663,-403.652,0,0
380963,80.0435,-403.544,0,0
381223,80.4745,-403.555,0,0
381483,80.9324,-403.69,0,0
381744,81.3902,-403.827,0,0
382004,81.8103,-404.078,0,0
382264,82.1537,-404.397,0,0
382525,82.4443,-404.734,0,0
382785,82.7486,-405.162,0,0
383045,82.8785,-405.619,0,0
383306,83.0066,-406.113,0,0
383566,83.0141,-406.608,0,0
383826,82.9519,-407.089,0,0
384087,82.7806,-407.597,0,0
384347,82.5616,-408.032,0,0
384607,82.2516,-408.463,0,0
384868,81.8792,-408.777,0,0
385128,81.4866,-409.093,0,0
385388,81.1533,-409.341,0,0
385649,80.7242,-409.567,0,0
385909,80.2962,-409.709,0,0
386169,79.8087,-409.875,0,0
386430,79.3469,-410.056,0,0
386690,78.8653,-410.134,0,0
386950,78.3135,-410.234,0,0
387211,77.7443,-410.204,0,0
387471,77.1892,-410.215,0,0
387731,76.6205,-410.133,0,0
387992,76.0152,-410.014,0,0
388252,75.4741,-409.838,0,0
388512,74.8986,-409.569,0,0
388773,74.4052,-409.277,0,0
389033,73.9338,-408.969,0,0
389293,73.5101,-408.621,0,0
389554,73.0658,-408.314,0,0
389814,72.7357,-407.984,0,0
390074,72.4307,-407.681,0,0
390335,72.0529,-407.379,0,0
390595,71.7871,-407.068,0,0
390855,71.4531,-406.809,0,0
391116,71.1334,-406.533,0,0
391376,70.8157,-406.286,0,0
391636,70.4744,-406.077,0,0
391896,70.1121,-405.854,0,0
392157,69.7271,-405.642,0,0
392417,69.3493,-405.468,0,0
392677,68.9236,-405.192,0,0
392938,68.407,-404.924,0,0
393198,67.9416,-404.639,0,0
393458,67.473,-404.262,0,0
393719,66.9403,-403.966,0,0
393979,66.4579,-403.575,0,0
394239,65.977,-403.17,0,0
394500,65.4659,-402.705,0,0
394760.05,64.9987,-402.264,0,0
395020.375,64.4929,-401.753,0,0
395280.7,64.043,-401.259,0,0
395541.025,63.5583,-400.719,0,0
395801.35,63.1076,-400.203,0,0
396061.675,62.6688,-399.54,0,0
396322.0,62.297,-399.013,0,0
396582.325,61.8742,-398.335,0,0
396842.65,61.4646,-397.682,0,0
397102.975,61.1416,-397.011,0,0
397363.3,60.774,-396.342,0,0
397623.625,60.4207,-395.605,0,0
397883.95,60.173,-394.901,0,0
398144.275,59.8715,-394.228,0,0
398404.6,59.6395,-393.522,0,0
398664.925,59.4502,-392.752,0,0
398925.25,59.2542,-392.046,0,0
399185.575,59.1213,-391.329,0,0
399445.9,58.9785,-390.599,0,0
399706.225,58.8011,-389.939,0,0
399966.55,58.6933,-389.216,0,0
400006.6,58.67,-389.123,0,0