File: Accelerated corrosion test data/2025-10-22_09-25-28/sample_6.csv
Frequency (Hz),Impedance (ohms),Phase (Radians),Temperature (C),Humidity (%)
10000.0,4112.67,-6731.67,0,0
10260.325,3975.49,-6646.79,0,0
10520.65,3844.37,-6561.71,0,0
10780.975,3719.76,-6477.97,0,0
11041.3,3600.75,-6394.66,0,0
11301.625,3487.26,-6313.06,0,0
11561.95,3379,-6232.61,0,0
11822.275,3275.91,-6153,0,0
12082.6,3176.5,-6074.6,0,0
12342.925,3081.77,-5997.5,0,0
12603.25,2992.31,-5918.93,0,0
12863.575,2906.3,-5845.66,0,0
13123.9,2825.26,-5773.16,0,0
13384.225,2745.68,-5703.52,0,0
13644.55,2668.81,-5633.45,0,0
13904.875,2595.46,-5563.95,0,0
14165.2,2525.24,-5495.85,0,0
14425.525,2456.98,-5428.57,0,0
14685.8,2392.38,-5362.18,0,0
14946.175,2331.45,-5298.18,0,0
15206.5,2271.69,-5235.72,0,0
15466.825,2214.45,-5173.62,0,0
15727.15,2159.22,-5112.88,0,0
15987.5,2106.12,-5053.02,0,0
16247.8,2054.74,-4994.8,0,0
16508.125,2005.32,-4937.23,0,0
16768.45,1958,-4880.78,0,0
17028.775,1912.52,-4825.79,0,0
17289.1,1868.26,-4771.5,0,0
17549.425,1825.52,-4718.83,0,0
17809.75,1784.01,-4666.39,0,0
18070.075,1745,-4615.31,0,0
18330.4,1706.29,-4565.13,0,0
18590.725,1668.98,-4515.31,0,0
18851.05,1634.18,-4466.33,0,0
19111.375,1599.29,-4420.03,0,0
19371.7,1566.25,-4372.96,0,0
19632.025,1533.75,-4328.38,0,0
19892.35,1502.14,-4283.49,0,0
20152.675,1471.42,-4239.09,0,0
20413.0,1442.12,-4196.1,0,0
20673.3,1413.38,-4154.04,0,0
20933.65,1385.3,-4112.08,0,0
21193.975,1358.15,-4071.17,0,0
21454.3,1332.7,-4030.67,0,0
21714.625,1306.68,-3990.85,0,0
21974.9,1282.8,-3951.74,0,0
22235.275,1258.81,-3913.5,0,0
22495.6,1235.43,-3875.98,0,0
22755.925,1212.7,-3838.14,0,0
23016.25,1191.71,-3800.25,0,0
23276.6,1173.65,-3764.89,0,0
23536.9,1153.06,-3731.64,0,0
23797.225,1132.61,-3697.8,0,0
24057.55,1112.96,-3665.03,0,0
24317.875,1093.64,-3631.71,0,0
24578.2,1075.16,-3599.43,0,0
24838.525,1057.16,-3566.52,0,0
25098.85,1039.91,-3535.33,0,0
25359.175,1023.53,-3504.39,0,0
25619.5,1006.71,-3474.38,0,0
25879.8,990.228,-3444.48,0,0
26140.1,974.42,-3414.89,0,0
26400.5,958.895,-3385.24,0,0
26660.8,944.778,-3356.25,0,0
26921.1,930.449,-3328.06,0,0
27181.4,916.721,-3300.96,0,0
27441.8,902.861,-3273.07,0,0
27702.1,890.151,-3246.96,0,0
27962.4,876.786,-3221.76,0,0
28222.7,862.806,-3196.27,0,0
28483.1,849.522,-3170.38,0,0
28743.4,836.1,-3144.63,0,0
29003.7,823.647,-3118.86,0,0
29264,811.655,-3093.28,0,0
29524.4,800.281,-3067.52,0,0
29784.7,790.404,-3042.26,0,0
30045,781.054,-3019.23,0,0
30305.3,770.683,-2995.32,0,0
30565.7,762.994,-2973.01,0,0
30826,753.031,-2953.07,0,0
31086.3,741.762,-2932,0,0
31346.6,731.147,-2910.15,0,0
31607,721.071,-2888.22,0,0
31867.3,711.975,-2865.99,0,0
32127.6,702.951,-2845.77,0,0
32387.9,693.707,-2823.75,0,0
32648.3,686.615,-2802.67,0,0
32908.6,679.551,-2783.39,0,0
33168.9,671.575,-2765.29,0,0
33429.2,663.387,-2746.92,0,0
33689.6,654.926,-2728.76,0,0
33949.9,645.335,-2710.97,0,0
34210.2,636.084,-2692.11,0,0
34470.5,627.684,-2672.44,0,0
34730.9,620.237,-2653.76,0,0
34991.2,612.659,-2635.56,0,0
35251.5,605.661,-2617.54,0,0
35511.8,597.976,-2600.01,0,0
35772.2,590.446,-2582.73,0,0
36032.5,582.825,-2565.03,0,0
36292.8,575.904,-2547.13,0,0
36553.1,569.262,-2529.64,0,0
36813.5,562.83,-2512.55,0,0
37073.8,556.31,-2495.29,0,0
37334.1,550.619,-2478.34,0,0
37594.4,544.82,-2461.83,0,0
37854.8,538.929,-2445.67,0,0
38115.1,533.278,-2429.53,0,0
38375.4,527.644,-2413.26,0,0
38635.7,522.588,-2397.11,0,0
38896.1,517.764,-2381.48,0,0
39156.4,513.165,-2365.69,0,0
39416.7,509.104,-2350.59,0,0
39677,505.026,-2335.95,0,0
39937.4,501.091,-2321.74,0,0
40197.7,496.92,-2308.11,0,0
40458,492.87,-2294.03,0,0
40718.3,489.17,-2281.53,0,0
40978.7,484.487,-2268.68,0,0
41239,479.45,-2255.74,0,0
41499.3,475.116,-2242.47,0,0
41759.6,470.957,-2230.12,0,0
42020,466.042,-2218.19,0,0
42280.275,460.543,-2205.68,0,0
42540.6,455.336,-2192.43,0,0
42800.925,450.138,-2179.29,0,0
43061.25,445.314,-2165.79,0,0
43321.575,441.142,-2151.77,0,0
43581.9,438.139,-2138.2,0,0
43842.225,435.139,-2125.36,0,0
44102.55,432.069,-2112.87,0,0
44362.875,429.47,-2100.52,0,0
44623.2,426.715,-2088.73,0,0
44883.525,423.988,-2077.26,0,0
45143.85,421.178,-2066.09,0,0
45404.175,418.443,-2054.46,0,0
45664.5,416.051,-2043.58,0,0
45924.825,413.493,-2032.67,0,0
46185.15,411.534,-2022.59,0,0
46445.475,408.573,-2012.88,0,0
46705.8,405.403,-2002.57,0,0
46966.125,402.938,-1992.54,0,0
47226.45,400.035,-1982.87,0,0
47486.775,397.106,-1973.04,0,0
47747.1,394.598,-1962.86,0,0
48007.425,392.568,-1953.81,0,0
48267.75,389.583,-1944.97,0,0
48528.075,386.598,-1935.9,0,0
48788.4,384.203,-1926.56,0,0
49048.725,381.894,-1918.47,0,0
49309.05,378.726,-1910.86,0,0
49569.375,374.642,-1902.78,0,0
49829.7,370.807,-1894.17,0,0
50090.025,367.298,-1885.81,0,0
50350.35,362.987,-1877.83,0,0
50610.675,358.325,-1868.81,0,0
50871.0,354.231,-1859.53,0,0
51131.325,350.094,-1850.23,0,0
51391.65,346.395,-1840.76,0,0
51651.975,342.764,-1830.92,0,0
51912.3,339.848,-1821.63,0,0
52172.625,336.47,-1812.36,0,0
52432.95,333.529,-1802.59,0,0
52693.275,331.029,-1793.21,0,0
52953.6,328.934,-1784.19,0,0
53213.925,326.667,-1775.83,0,0
53474.25,323.722,-1767.48,0,0
53734.575,320.665,-1758.92,0,0
53994.9,317.735,-1749.82,0,0
54255.225,315.234,-1740.64,0,0
54515.55,313.296,-1731.55,0,0
54775.875,311.541,-1723.08,0,0
55036.2,309.758,-1714.97,0,0
55296.525,307.832,-1706.76,0,0
55556.85,305.813,-1699.04,0,0
55817.175,303.373,-1691.05,0,0
56077.5,301,-1682.82,0,0
56337.825,298.902,-1674.43,0,0
56598.15,297.21,-1665.69,0,0
56858.475,296.222,-1657.23,0,0
57118.8,295.473,-1649.46,0,0
57379.125,294.841,-1642.17,0,0
57639.45,293.973,-1635.31,0,0
57899.775,292.958,-1628.71,0,0
58160.1,291.932,-1622.58,0,0
58420.4,290.339,-1616.77,0,0
58680.7,288.434,-1610.79,0,0
58941.1,286.244,-1604.82,0,0
59201.4,283.871,-1598.62,0,0
59461.7,281.554,-1592.33,0,0
59722,279.014,-1586.18,0,0
59982.4,276.437,-1579.64,0,0
60242.7,273.886,-1573.07,0,0
60503,271.386,-1566.59,0,0
60763.3,268.714,-1559.98,0,0
61023.7,266.06,-1553.35,0,0
61284,263.405,-1546.54,0,0
61544.3,260.477,-1539.56,0,0
61804.6,257.663,-1532.06,0,0
62065,255.329,-1524.11,0,0
62325.3,253.362,-1516.13,0,0
62585.6,252.249,-1507.83,0,0
62845.9,251.794,-1500.13,0,0
63106.3,251.878,-1493,0,0
63366.6,251.834,-1486.88,0,0
63626.9,251.603,-1481.28,0,0
63887.2,251.101,-1476.11,0,0
64147.6,249.734,-1471.21,0,0
64407.9,247.913,-1466.05,0,0
64668.2,245.536,-1460.42,0,0
64928.5,243.432,-1454.29,0,0
65188.9,241.651,-1447.9,0,0
65449.2,240.33,-1441.5,0,0
65709.5,239.315,-1435.52,0,0
65969.8,238.297,-1429.44,0,0
66230.2,237.322,-1424.05,0,0
66490.5,236.123,-1418.52,0,0
66750.8,234.931,-1413.19,0,0
67011.1,233.7,-1407.91,0,0
67271.5,232.233,-1402.63,0,0
67531.8,230.741,-1397.5,0,0
67792.1,229.235,-1391.87,0,0
68052.4,227.84,-1386.45,0,0
68312.8,226.342,-1381.16,0,0
68573.1,224.87,-1375.73,0,0
68833.4,223.765,-1370.24,0,0
69093.7,222.217,-1365.17,0,0
69354.1,220.755,-1359.92,0,0
69614.4,219.372,-1354.73,0,0
69874.7,218.078,-1349.51,0,0
70135,216.526,-1344.44,0,0
70395.4,215.058,-1339.24,0,0
70655.7,213.772,-1334.16,0,0
70916,211.989,-1328.9,0,0
71176.3,210.555,-1323.71,0,0
71436.7,209.062,-1318.46,0,0
71697,207.713,-1313.14,0,0
71957.3,206.403,-1307.92,0,0
72217.6,205.178,-1302.78,0,0
72478,203.967,-1297.57,0,0
72738.3,202.771,-1292.52,0,0
72998.6,201.595,-1287.49,0,0
73258.9,200.376,-1282.48,0,0
73519.3,199.256,-1277.52,0,0
73779.6,198.06,-1272.5,0,0
74039.9,196.969,-1267.58,0,0
74300.225,195.819,-1262.64,0,0
74560.55,194.778,-1257.8,0,0
74820.875,193.677,-1253.09,0,0
75081.2,192.554,-1248.35,0,0
75341.525,191.316,-1243.63,0,0
75601.85,190.108,-1238.85,0,0
75862.175,188.968,-1234.08,0,0
76122.5,187.825,-1229.32,0,0
76382.825,186.62,-1224.6,0,0
76643.15,185.48,-1219.84,0,0
76903.475,184.337,-1215.02,0,0
77163.8,183.235,-1210.36,0,0
77424.125,182.154,-1205.58,0,0
77684.45,181.025,-1200.87,0,0
77944.775,180.004,-1196.16,0,0
78205.1,178.929,-1191.44,0,0
78465.425,177.923,-1186.68,0,0
78725.75,176.949,-1182.02,0,0
78986.075,175.963,-1177.34,0,0
79246.4,174.943,-1172.62,0,0
79506.725,174.025,-1167.99,0,0
79767.05,173.08,-1163.3,0,0
80027.375,172.177,-1158.7,0,0
80287.7,171.26,-1153.92,0,0
80548.025,170.434,-1149.25,0,0
80808.35,169.688,-1144.5,0,0
81068.675,168.959,-1139.77,0,0
81329.0,168.292,-1135.13,0,0
81589.325,167.669,-1130.51,0,0
81849.65,167.113,-1125.96,0,0
82109.975,166.536,-1121.45,0,0
82370.3,166.011,-1117.01,0,0
82630.625,165.505,-1112.55,0,0
82890.95,164.863,-1108.07,0,0
83151.275,164.28,-1103.62,0,0
83411.6,163.772,-1099.14,0,0
83671.925,163.337,-1094.68,0,0
83932.25,162.902,-1090.12,0,0
84192.575,162.517,-1085.75,0,0
84452.9,162.272,-1081.25,0,0
84713.225,162.064,-1076.84,0,0
84973.55,161.881,-1072.48,0,0
85233.875,161.774,-1068.14,0,0
85494.2,161.873,-1063.83,0,0
85754.525,161.901,-1059.77,0,0
86014.85,161.9,-1055.85,0,0
86275.175,161.925,-1051.88,0,0
86535.5,161.977,-1047.77,0,0
86795.825,161.918,-1044.03,0,0
87056.15,161.898,-1040.15,0,0
87316.475,162.001,-1036.32,0,0
87576.8,162.061,-1032.53,0,0
87837.125,162.064,-1028.83,0,0
88097.45,162.023,-1025.13,0,0
88357.775,162.298,-1021.21,0,0
88618.1,162.306,-1017.56,0,0
88878.425,162.648,-1013.87,0,0
89138.75,162.881,-1010.35,0,0
89399.075,163.545,-1007.07,0,0
89659.4,163.981,-1003.83,0,0
89919.725,164.551,-1000.92,0,0
90180,164.485,-998.342,0,0
90440.4,164.356,-995.592,0,0
90700.7,164.318,-993.151,0,0
90961,163.983,-990.443,0,0
91221.3,163.171,-987.743,0,0
91481.7,162.18,-984.665,0,0
91742,161.433,-981.012,0,0
92002.3,161.26,-977.462,0,0
92262.6,161.208,-974.347,0,0
92523,160.995,-971.346,0,0
92783.3,160.611,-968.37,0,0
93043.6,160.143,-965.323,0,0
93303.9,159.582,-962.053,0,0
93564.3,159.202,-958.682,0,0
93824.6,158.872,-955.303,0,0
94084.9,158.889,-951.841,0,0
94345.2,158.991,-948.809,0,0
94605.6,158.875,-945.754,0,0
94865.9,158.685,-942.687,0,0
95126.2,158.483,-939.543,0,0
95386.5,158.707,-936.515,0,0
95646.9,158.793,-933.487,0,0
95907.2,158.955,-930.726,0,0
96167.5,159.031,-928.26,0,0
96427.8,158.91,-925.762,0,0
96688.2,158.629,-923.207,0,0
96948.5,158.278,-920.7,0,0
97208.8,157.884,-918.243,0,0
97469.1,157.232,-915.704,0,0
97729.5,156.502,-912.856,0,0
97989.8,155.966,-909.747,0,0
98250.1,155.63,-906.705,0,0
98510.4,155.409,-903.848,0,0
98770.8,155.091,-900.825,0,0
99031.1,155.007,-897.86,0,0
99291.4,155.046,-895.079,0,0
99551.7,155.068,-892.333,0,0
99812.1,155.052,-889.83,0,0
100072,155.01,-887.287,0,0
100333,154.878,-884.932,0,0
100593,154.825,-882.599,0,0
100853,154.623,-880.392,0,0
101114,154.278,-878.265,0,0
101374,153.812,-876.166,0,0
101634,153.119,-873.902,0,0
101895,152.458,-871.551,0,0
102155,151.835,-869.136,0,0
102415,151.311,-866.674,0,0
102676,150.881,-864.368,0,0
102936,150.244,-862.261,0,0
103196,149.409,-860.154,0,0
103457,148.502,-857.841,0,0
103717,147.562,-855.451,0,0
103977,146.756,-853.097,0,0
104238,145.888,-850.922,0,0
104498,144.622,-848.786,0,0
104758,143.173,-846.544,0,0
105019,141.615,-844.022,0,0
105279,140.002,-841.215,0,0
105539,138.268,-838.4,0,0
105800,136.434,-835.258,0,0
106060,134.635,-831.799,0,0
106320.175,132.891,-827.972,0,0
106580.5,131.441,-823.711,0,0
106840.825,130.425,-819.313,0,0
107101.15,129.837,-814.84,0,0
107361.475,129.547,-810.594,0,0
107621.8,129.401,-806.447,0,0
107882.125,129.382,-802.304,0,0
108142.45,129.602,-798.206,0,0
108402.775,130.032,-794.206,0,0
108663.1,130.575,-790.459,0,0
108923.425,131.167,-786.854,0,0
109183.75,131.738,-783.44,0,0
109444.075,132.442,-779.87,0,0
109704.4,133.229,-776.472,0,0
109964.725,133.929,-773.228,0,0
110225.05,134.73,-769.931,0,0
110485.375,135.72,-766.68,0,0
110745.7,136.95,-763.541,0,0
111006.025,138.144,-760.598,0,0
111266.35,139.491,-757.881,0,0
111526.675,141.154,-755.345,0,0
111787.0,142.669,-753.198,0,0
112047.325,144.125,-751.349,0,0
112307.65,145.483,-749.902,0,0
112567.975,146.441,-748.884,0,0
112828.3,146.972,-747.768,0,0
113088.625,147.022,-746.611,0,0
113348.95,147.048,-745.216,0,0
113609.275,146.966,-743.76,0,0
113869.6,146.779,-742.143,0,0
114129.925,146.617,-740.389,0,0
114390.25,146.544,-738.705,0,0
114650.575,146.254,-737.101,0,0
114910.9,145.789,-735.188,0,0
115171.225,145.543,-733.034,0,0
115431.55,145.606,-730.908,0,0
115691.875,146.124,-729.011,0,0
115952.2,146.474,-727.925,0,0
116212.525,146.239,-726.989,0,0
116472.85,145.537,-725.975,0,0
116733.175,144.665,-724.823,0,0
116993.5,143.479,-723.659,0,0
117253.825,141.894,-722.157,0,0
117514.15,140.16,-720.299,0,0
117774.475,138.294,-717.968,0,0
118034.8,136.671,-715.126,0,0
118295.125,135.358,-712.112,0,0
118555.45,134.227,-709.019,0,0
118815.775,133.288,-705.851,0,0
119076.1,132.422,-702.531,0,0
119336.425,131.877,-699.124,0,0
119596.75,131.54,-695.751,0,0
119857.075,131.373,-692.375,0,0
120117.4,131.413,-689.052,0,0
120377.725,131.641,-685.837,0,0
120638.05,132.062,-682.718,0,0
120898.375,132.596,-679.845,0,0
121158.7,133.346,-677.085,0,0
121419.025,134.169,-674.852,0,0
121679.35,134.641,-673.024,0,0
121939.675,134.653,-671.155,0,0
122200.0,134.505,-669.125,0,0
122460,134.228,-667.015,0,0
122721,133.887,-664.749,0,0
122981,133.602,-662.31,0,0
123241,133.396,-659.813,0,0
123502,133.231,-657.356,0,0
123762,133.114,-654.805,0,0
124022,133.028,-652.325,0,0
124283,132.946,-649.874,0,0
124543,132.875,-647.401,0,0
124803,132.771,-644.984,0,0
125064,132.687,-642.526,0,0
125324,132.486,-640.117,0,0
125584,132.297,-637.549,0,0
125845,132.13,-634.937,0,0
126105,132,-632.328,0,0
126365,131.884,-629.68,0,0
126626,131.775,-626.986,0,0
126886,131.699,-624.258,0,0
127146,131.618,-621.438,0,0
127406,131.65,-618.664,0,0
127667,131.714,-615.73,0,0
127927,131.909,-612.756,0,0
128187,132.226,-609.884,0,0
128448,132.693,-606.966,0,0
128708,133.167,-604.14,0,0
128968,133.767,-601.43,0,0
129229,134.368,-598.759,0,0
129489,134.951,-596.223,0,0
129749,135.513,-593.682,0,0
130010,136.108,-591.183,0,0
130270,136.657,-588.691,0,0
130530,137.259,-586.244,0,0
130791,137.813,-583.836,0,0
131051,138.352,-581.374,0,0
131311,138.944,-578.955,0,0
131572,139.539,-576.507,0,0
131832,140.172,-574.075,0,0
132092,140.848,-571.646,0,0
132353,141.55,-569.266,0,0
132613,142.334,-566.944,0,0
132873,143.041,-564.652,0,0
133134,143.816,-562.401,0,0
133394,144.593,-560.176,0,0
133654,145.372,-558.014,0,0
133915,146.125,-555.92,0,0
134175,146.806,-553.8,0,0
134435,147.505,-551.665,0,0
134696,148.233,-549.461,0,0
134956,149.077,-547.341,0,0
135216,149.868,-545.257,0,0
135477,150.757,-543.263,0,0
135737,151.567,-541.269,0,0
135997,152.436,-539.319,0,0
136258,153.322,-537.42,0,0
136518,154.249,-535.586,0,0
136778,155.147,-533.925,0,0
137039,155.923,-532.323,0,0
137299,156.677,-530.719,0,0
137559,157.316,-529.191,0,0
137819,157.914,-527.656,0,0
138080,158.444,-526.087,0,0
138340.125,158.954,-524.536,0,0
138600.45,159.499,-522.93,0,0
138860.775,159.892,-521.472,0,0
139121.1,160.245,-519.947,0,0
139381.425,160.499,-518.408,0,0
139641.75,160.729,-516.862,0,0
139902.075,160.868,-515.178,0,0
140162.4,161.065,-513.445,0,0
140422.725,161.248,-511.632,0,0
140683.05,161.481,-509.808,0,0
140943.375,161.759,-508,0,0
141203.7,162.146,-506.19,0,0
141464.025,162.499,-504.491,0,0
141724.35,162.732,-502.851,0,0
141984.675,162.854,-501.255,0,0
142245.0,162.886,-499.656,0,0
142505.325,162.747,-497.988,0,0
142765.65,162.558,-496.05,0,0
143025.975,162.391,-493.958,0,0
143286.3,162.29,-491.664,0,0
143546.625,162.233,-489.441,0,0
143806.95,162.546,-487.008,0,0
144067.275,162.96,-484.685,0,0
144327.6,163.444,-482.418,0,0
144587.925,163.992,-480.257,0,0
144848.25,164.59,-478.123,0,0
145108.575,165.13,-476.224,0,0
145368.9,165.692,-474.44,0,0
145629.225,166.062,-472.628,0,0
145889.55,166.39,-470.891,0,0
146149.875,166.612,-469.113,0,0
146410.2,166.808,-467.273,0,0
146670.525,166.966,-465.473,0,0
146930.85,167.032,-463.604,0,0
147191.175,166.971,-461.746,0,0
147451.5,166.828,-459.765,0,0
147711.825,166.696,-457.679,0,0
147972.15,166.425,-455.381,0,0
148232.475,166.275,-453.013,0,0
148492.8,166.185,-450.456,0,0
148753.125,166.172,-447.772,0,0
149013.45,166.243,-445.2,0,0
149273.775,166.349,-442.456,0,0
149534.1,166.59,-439.65,0,0
149794.425,166.965,-436.807,0,0
150054.75,167.434,-434.065,0,0
150315.075,167.93,-431.336,0,0
150575.4,168.418,-428.549,0,0
150835.725,169.02,-425.7,0,0
151096.05,169.673,-422.91,0,0
151356.375,170.336,-420.097,0,0
151616.7,171.055,-417.174,0,0
151877.025,171.924,-414.209,0,0
152137.35,172.976,-411.224,0,0
152397.675,174.252,-408.321,0,0
152658.0,175.645,-405.64,0,0
152918.325,177.158,-403.122,0,0
153178.65,178.594,-400.9,0,0
153438.975,179.928,-398.799,0,0
153699.3,181.046,-396.8,0,0
153959.625,181.947,-394.746,0,0
154219.95,182.756,-392.565,0,0
154480,183.55,-390.346,0,0
154741,184.329,-387.951,0,0
155001,185.147,-385.437,0,0
155261,186.063,-382.774,0,0
155522,187.161,-380.019,0,0
155782,188.551,-377.256,0,0
156042,190.079,-374.693,0,0
156303,191.743,-372.342,0,0
156563,193.303,-370.125,0,0
156823,194.893,-368.075,0,0
157084,196.434,-366.171,0,0
157344,197.807,-364.387,0,0
157604,199.119,-362.683,0,0
157864,200.27,-361.052,0,0
158125,201.144,-359.352,0,0
158385,201.871,-357.483,0,0
158645,202.63,-355.474,0,0
158906,203.435,-353.28,0,0
159166,204.306,-351.038,0,0
159426,205.273,-348.876,0,0
159687,206.149,-346.723,0,0
159947,207.097,-344.49,0,0
160207,207.975,-342.197,0,0
160468,208.848,-339.974,0,0
160728,209.701,-337.614,0,0
160988,210.596,-335.278,0,0
161249,211.497,-332.842,0,0
161509,212.473,-330.332,0,0
161769,213.479,-327.789,0,0
162030,214.443,-325.261,0,0
162290,215.577,-322.713,0,0
162550,216.755,-320.112,0,0
162811,217.91,-317.552,0,0
163071,219.134,-315.021,0,0
163331,220.408,-312.566,0,0
163592,221.621,-310.104,0,0
163852,222.88,-307.653,0,0
164112,224.092,-305.292,0,0
164373,225.158,-302.949,0,0
164633,226.134,-300.532,0,0
164893,227.06,-298.026,0,0
165154,227.911,-295.434,0,0
165414,228.75,-292.634,0,0
165674,229.625,-289.747,0,0
165935,230.564,-286.756,0,0
166195,231.543,-283.647,0,0
166455,232.614,-280.472,0,0
166716,233.716,-277.146,0,0
166976,234.949,-273.815,0,0
167236,236.24,-270.385,0,0
167497,237.66,-266.881,0,0
167757,239.187,-263.32,0,0
168017,240.864,-259.796,0,0
168277,242.671,-256.242,0,0
168538,244.551,-252.722,0,0
168798,246.466,-249.255,0,0
169058,248.441,-245.855,0,0
169319,250.4,-242.391,0,0
169579,252.398,-238.975,0,0
169839,254.403,-235.491,0,0
170100,256.433,-231.99,0,0
170360.075,258.559,-228.435,0,0
170620.4,260.695,-224.855,0,0
170880.725,262.899,-221.339,0,0
171141.05,265.067,-217.743,0,0
171401.375,267.23,-214.137,0,0
171661.7,269.388,-210.372,0,0
171922.025,271.6,-206.5,0,0
172182.35,273.906,-202.582,0,0
172442.675,276.324,-198.559,0,0
172703.0,278.791,-194.48,0,0
172963.325,281.315,-190.311,0,0
173223.65,283.956,-186.026,0,0
173483.975,286.673,-181.7,0,0
173744.3,289.45,-177.221,0,0
174004.625,292.447,-172.686,0,0
174264.95,295.549,-168.032,0,0
174525.275,298.848,-163.297,0,0
174785.6,302.328,-158.57,0,0
175045.925,305.893,-153.756,0,0
175306.25,309.705,-148.897,0,0
175566.575,313.569,-144.031,0,0
175826.9,317.672,-139.083,0,0
176087.225,321.942,-134.052,0,0
176347.55,326.379,-129.045,0,0
176607.875,331.062,-124.014,0,0
176868.2,335.866,-118.889,0,0
177128.525,340.911,-113.804,0,0
177388.85,346.191,-108.723,0,0
177649.175,351.683,-103.657,0,0
177909.5,357.362,-98.6081,0,0
178169.825,363.268,-93.5628,0,0
178430.15,369.353,-88.5745,0,0
178690.475,375.725,-83.5354,0,0
178950.8,382.344,-78.5597,0,0
179211.125,389.214,-73.6495,0,0
179471.45,396.366,-68.8677,0,0
179731.775,403.767,-64.302,0,0
179992.1,411.358,-59.8622,0,0
180252.425,419.082,-55.6353,0,0
180512.75,426.867,-51.4813,0,0
180773.075,434.685,-47.4081,0,0
181033.4,442.658,-43.3881,0,0
181293.725,450.81,-39.3123,0,0
181554.05,459.202,-35.2597,0,0
181814.375,467.775,-31.2819,0,0
182074.7,476.522,-27.3648,0,0
182335.025,485.433,-23.5623,0,0
182595.35,494.561,-19.7998,0,0
182855.675,503.825,-15.8784,0,0
183116.0,513.261,-12.0666,0,0
183376.325,523.149,-8.1671,0,0
183636.65,533.273,-4.22918,0,0
183896.975,543.817,-0.35464,0,0
184157.3,554.72,3.46151,0,0
184417.625,565.994,7.19763,0,0
184677.95,577.617,10.8132,0,0
184938.275,589.754,14.4065,0,0
185198.6,602.33,17.9216,0,0
185458.925,615.405,21.3318,0,0
185719.25,629.077,24.538,0,0
185979.575,643.311,27.5435,0,0
186239.9,658.195,30.2415,0,0
186500,673.596,32.5505,0,0
186761,689.769,34.5262,0,0
187021,706.574,35.9473,0,0
187281,724.007,36.8801,0,0
187542,742.087,37.1989,0,0
187802,760.795,36.7832,0,0
188062,780.083,35.7008,0,0
188322,800.047,33.7763,0,0
188583,820.684,30.8041,0,0
188843,841.846,26.8655,0,0
189103,863.467,21.6598,0,0
189364,885.409,15.2486,0,0
189624,907.45,7.22424,0,0
189884,929.704,-1.89144,0,0
190145,951.8,-12.5219,0,0
190405,973.697,-24.5028,0,0
190665,995.282,-37.8569,0,0
190926,1016.59,-52.4014,0,0
191186,1037.51,-68.4076,0,0
191446,1057.89,-85.6057,0,0
191707,1077.55,-104.283,0,0
191967,1096.54,-124.073,0,0
192227,1114.53,-145.145,0,0
192488,1131.67,-167.399,0,0
192748,1147.72,-190.733,0,0
193008,1162.68,-215.11,0,0
193269,1176.29,-240.506,0,0
193529,1188.72,-266.705,0,0
193789,1199.77,-293.619,0,0
194050,1209.54,-321.15,0,0
194310,1217.8,-349.554,0,0
194570,1224.45,-378.226,0,0
194831,1229.49,-407.286,0,0
195091,1233.39,-436.75,0,0
195351,1235.19,-466.2,0,0
195612,1235.54,-495.786,0,0
195872,1234.59,-525.128,0,0
196132,1231.86,-554.617,0,0
196393,1227.42,-583.382,0,0
196653,1221.53,-611.714,0,0
196913,1214.17,-639.601,0,0
197174,1205.42,-666.702,0,0
197434,1195.6,-693.079,0,0
197694,1184.28,-718.37,0,0
197955,1172.13,-742.833,0,0
198215,1158.9,-766.319,0,0
198475,1144.71,-788.811,0,0
198735,1129.88,-810.22,0,0
198996,1114.05,-830.777,0,0
199256,1097.84,-849.852,0,0
199516,1081.43,-868.018,0,0
199777,1064.07,-885.527,0,0
200037,1046.39,-901.539,0,0
200297,1028.65,-916.712,0,0
200558,1010.45,-931.19,0,0
200818,992.014,-944.736,0,0
201078,973.34,-956.794,0,0
201339,954.365,-967.911,0,0
201599,935.342,-978.263,0,0
201859,916.295,-987.287,0,0
202120,897.437,-995.479,0,0
202380.025,878.657,-1002.94,0,0
202640.35,860.225,-1009.37,0,0
202900.675,841.679,-1014.73,0,0
203161.0,823.699,-1019.34,0,0
203421.325,805.93,-1023.41,0,0
203681.65,788.658,-1026.78,0,0
203941.975,771.697,-1029.41,0,0
204202.3,755.153,-1031.59,0,0
204462.625,738.878,-1033.09,0,0
204722.95,723.265,-1034.19,0,0
204983.275,707.424,-1034.82,0,0
205243.6,692.882,-1035.45,0,0
205503.925,677.801,-1035.1,0,0
205764.25,663.516,-1034.68,0,0
206024.575,649.577,-1033.75,0,0
206284.9,636,-1032.78,0,0
206545.225,622.564,-1031.26,0,0
206805.55,609.771,-1029.55,0,0
207065.875,597.436,-1027.34,0,0
207326.2,584.955,-1025.46,0,0
207586.525,573.21,-1023.04,0,0
207846.85,561.725,-1020.5,0,0
208107.175,550.327,-1017.74,0,0
208367.5,539.414,-1014.73,0,0
208627.825,528.833,-1011.65,0,0
208888.15,518.623,-1008.44,0,0
209148.475,508.408,-1005.28,0,0
209408.8,498.73,-1001.86,0,0
209669.125,489.346,-998.353,0,0
209929.45,480.353,-995.137,0,0
210189.775,471.468,-991.567,0,0
210450.1,462.56,-988.026,0,0
210710.425,454.099,-984.548,0,0
210970.75,445.276,-980.622,0,0
211231.075,437.151,-977.258,0,0
211491.4,428.961,-973.516,0,0
211751.725,420.939,-969.491,0,0
212012.05,413.086,-965.264,0,0
212272.375,405.475,-961.084,0,0
212532.7,398.19,-956.692,0,0
212793.025,391.14,-952.355,0,0
213053.35,384.396,-948.021,0,0
213313.675,377.641,-943.523,0,0
213574.0,371.284,-939.108,0,0
213834.325,364.917,-934.86,0,0
214094.65,358.731,-930.373,0,0
214354.975,352.822,-925.899,0,0
214615.3,346.94,-921.279,0,0
214875.625,341.35,-916.639,0,0
215135.95,335.914,-912.247,0,0
215396.275,330.642,-907.503,0,0
215656.6,325.599,-902.887,0,0
215916.925,320.613,-898.42,0,0
216177.25,316.012,-893.783,0,0
216437.575,311.317,-889.258,0,0
216697.9,306.859,-884.778,0,0
216958.225,302.556,-880.321,0,0
217218.55,298.385,-875.835,0,0
217478.875,294.306,-871.466,0,0
217739.2,290.327,-867.039,0,0
217999.525,286.481,-862.667,0,0
218259.85,282.709,-858.326,0,0
218520,278.931,-853.979,0,0
218780,275.379,-849.592,0,0
219041,271.906,-845.324,0,0
219301,268.55,-840.985,0,0
219561,265.196,-836.768,0,0
219822,262.229,-832.61,0,0
220082,259.078,-828.318,0,0
220342,256.073,-823.848,0,0
220603,253.114,-819.658,0,0
220863,250.249,-815.435,0,0
221123,247.474,-811.266,0,0
221384,244.878,-807.082,0,0
221644,242.286,-802.854,0,0
221904,239.834,-798.543,0,0
222165,237.352,-794.393,0,0
222425,234.99,-790.218,0,0
222685,232.86,-785.838,0,0
222946,230.749,-781.71,0,0
223206,228.81,-777.497,0,0
223466,226.753,-773.259,0,0
223727,224.874,-769.128,0,0
223987,223.248,-764.797,0,0
224247,221.536,-760.657,0,0
224508,220.132,-756.454,0,0
224768,218.64,-752.39,0,0
225028,217.588,-748.151,0,0
225289,216.405,-744.108,0,0
225549,215.283,-740.044,0,0
225809,214.482,-736.122,0,0
226070,213.708,-732.241,0,0
226330,212.938,-728.546,0,0
226590,212.318,-724.884,0,0
226851,211.746,-721.327,0,0
227111,211.157,-717.9,0,0
227371,210.618,-714.482,0,0
227632,210.016,-711.126,0,0
227892,209.454,-707.852,0,0
228152,208.933,-704.494,0,0
228413,208.385,-701.355,0,0
228673,207.81,-698.083,0,0
228933,207.245,-694.887,0,0
229193,206.826,-691.511,0,0
229454,206.461,-688.27,0,0
229714,206.01,-684.877,0,0
229974,205.743,-681.78,0,0
230235,205.42,-678.519,0,0
230495,205.271,-675.246,0,0
230755,205.122,-672.02,0,0
231016,205.074,-668.79,0,0
231276,205.114,-665.499,0,0
231536,205.159,-662.268,0,0
231797,205.282,-659.08,0,0
232057,205.495,-655.884,0,0
232317,205.8,-652.732,0,0
232578,206.159,-649.555,0,0
232838,206.591,-646.438,0,0
233098,207.148,-643.324,0,0
233359,207.759,-640.284,0,0
233619,208.416,-637.245,0,0
233879,209.157,-634.22,0,0
234140,209.984,-631.226,0,0
234400,210.976,-628.327,0,0
234660.3,211.962,-625.469,0,0
234920.625,213.051,-622.604,0,0
235180.95,214.32,-619.931,0,0
235441.275,215.571,-617.165,0,0
235701.6,216.885,-614.48,0,0
235961.925,218.359,-611.95,0,0
236222.25,219.797,-609.438,0,0
236482.575,221.456,-606.966,0,0
236742.9,223.07,-604.588,0,0
237003.225,224.84,-602.264,0,0
237263.55,226.735,-600.09,0,0
237523.875,228.607,-597.93,0,0
237784.2,230.58,-595.92,0,0
238044.525,232.666,-593.946,0,0
238304.85,234.822,-592.107,0,0
238565.175,237.04,-590.285,0,0
238825.5,239.293,-588.722,0,0
239085.825,241.576,-587.195,0,0
239346.15,244.012,-585.862,0,0
239606.475,246.429,-584.563,0,0
239866.8,248.937,-583.423,0,0
240127.125,251.441,-582.356,0,0
240387.45,254.073,-581.579,0,0
240647.775,256.698,-580.892,0,0
240908.1,259.185,-580.257,0,0
241168.425,261.93,-579.855,0,0
241428.75,264.518,-579.596,0,0
241689.075,267.235,-579.545,0,0
241949.4,269.915,-579.433,0,0
242209.725,272.508,-579.648,0,0
242470.05,275.188,-579.957,0,0
242730.375,277.723,-580.446,0,0
242990.7,280.285,-581.073,0,0
243251.025,282.877,-581.881,0,0
243511.35,285.419,-582.806,0,0
243771.675,287.968,-583.931,0,0
244032.0,290.386,-585.315,0,0
244292.325,292.728,-586.836,0,0
244552.65,294.937,-588.578,0,0
244812.975,297.082,-590.597,0,0
245073.3,298.933,-592.628,0,0
245333.625,300.652,-594.851,0,0
245593.95,302.057,-597.184,0,0
245854.275,303.301,-599.591,0,0
246114.6,304.444,-602.042,0,0
246374.925,305.225,-604.443,0,0
246635.25,305.964,-606.87,0,0
246895.575,306.424,-609.204,0,0
247155.9,306.899,-611.558,0,0
247416.225,307.183,-613.826,0,0
247676.55,307.412,-616.238,0,0
247936.875,307.49,-618.466,0,0
248197.2,307.484,-620.717,0,0
248457.525,307.373,-623.02,0,0
248717.85,307.126,-625.135,0,0
248978.175,306.813,-627.114,0,0
249238.5,306.417,-629.154,0,0
249498.825,306.263,-631.101,0,0
249759.15,305.857,-632.947,0,0
250019.475,305.754,-634.633,0,0
250279.8,305.679,-636.745,0,0
250540,305.657,-638.851,0,0
250800,305.581,-641.223,0,0
251061,305.437,-643.756,0,0
251321,305.064,-646.37,0,0
251581,304.524,-649.18,0,0
251842,303.777,-652.058,0,0
252102,302.773,-654.939,0,0
252362,301.679,-657.802,0,0
252623,300.303,-660.606,0,0
252883,298.832,-663.535,0,0
253143,297.123,-666.317,0,0
253404,295.228,-669.158,0,0
253664,293.127,-671.929,0,0
253924,290.829,-674.635,0,0
254185,288.405,-677.222,0,0
254445,285.554,-679.77,0,0
254705,282.812,-682.084,0,0
254966,279.731,-684.222,0,0
255226,276.706,-686.228,0,0
255486,273.31,-688.003,0,0
255747,270.074,-689.655,0,0
256007,266.566,-691.039,0,0
256267,263.142,-692.295,0,0
256528,259.746,-693.344,0,0
256788,256.225,-694.228,0,0
257048,252.747,-694.967,0,0
257309,249.281,-695.437,0,0
257569,245.873,-695.944,0,0
257829,242.438,-696.192,0,0
258090,239.088,-696.34,0,0
258350,235.806,-696.426,0,0
258610,232.462,-696.368,0,0
258871,229.21,-696.162,0,0
259131,226.041,-695.857,0,0
259391,222.967,-695.453,0,0
259651,219.952,-695.08,0,0
259912,216.86,-694.532,0,0
260172,213.859,-694.016,0,0
260432,210.868,-693.311,0,0
260693,208.134,-692.461,0,0
260953,205.348,-691.711,0,0
261213,202.437,-690.818,0,0
261474,199.822,-689.852,0,0
261734,197.169,-688.917,0,0
261994,194.534,-687.79,0,0
262255,192.072,-686.758,0,0
262515,189.569,-685.558,0,0
262775,187.164,-684.478,0,0
263036,184.79,-683.228,0,0
263296,182.546,-682.045,0,0
263556,180.298,-680.827,0,0
263817,178.128,-679.562,0,0
264077,175.954,-678.264,0,0
264337,173.951,-676.961,0,0
264598,171.968,-675.662,0,0
264858,169.896,-674.209,0,0
265118,167.895,-673.079,0,0
265379,166.098,-671.651,0,0
265639,164.245,-670.368,0,0
265899,162.384,-668.906,0,0
266160,160.584,-667.602,0,0
266420,158.889,-666.14,0,0
266680.25,157.191,-664.803,0,0
266940.575,155.597,-663.401,0,0
267200.9,153.935,-662.005,0,0
267461.225,152.394,-660.607,0,0
267721.55,150.864,-659.268,0,0
267981.875,149.29,-657.904,0,0
268242.2,147.834,-656.495,0,0
268502.525,146.326,-655.081,0,0
268762.85,144.887,-653.701,0,0
269023.175,143.441,-652.256,0,0
269283.5,142.132,-650.857,0,0
269543.825,140.665,-649.515,0,0
269804.15,139.345,-648.131,0,0
270064.475,138.114,-646.649,0,0
270324.8,136.837,-645.372,0,0
270585.125,135.51,-643.992,0,0
270845.45,134.274,-642.528,0,0
271105.775,133.104,-641.181,0,0
271366.1,131.839,-639.826,0,0
271626.425,130.698,-638.325,0,0
271886.75,129.528,-637.047,0,0
272147.075,128.359,-635.648,0,0
272407.4,127.185,-634.217,0,0
272667.725,126.143,-632.869,0,0
272928.05,125.049,-631.524,0,0
273188.375,124.034,-630.127,0,0
273448.7,122.966,-628.75,0,0
273709.025,121.905,-627.359,0,0
273969.35,120.891,-625.993,0,0
274229.675,119.924,-624.637,0,0
274490.0,118.958,-623.285,0,0
274750.325,117.944,-621.937,0,0
275010.65,117.002,-620.686,0,0
275270.975,116.102,-619.208,0,0
275531.3,115.192,-617.808,0,0
275791.625,114.276,-616.465,0,0
276051.95,113.456,-615.13,0,0
276312.275,112.57,-613.721,0,0
276572.6,111.689,-612.372,0,0
276832.925,110.856,-611.018,0,0
277093.25,110.085,-609.624,0,0
277353.575,109.244,-608.271,0,0
277613.9,108.45,-606.899,0,0
277874.225,107.665,-605.546,0,0
278134.55,106.907,-604.181,0,0
278394.875,106.191,-602.768,0,0
278655.2,105.454,-601.342,0,0
278915.525,104.78,-599.926,0,0
279175.85,104.115,-598.578,0,0
279436.175,103.463,-597.164,0,0
279696.5,102.934,-595.797,0,0
279956.825,102.397,-594.291,0,0
280217.15,101.832,-592.948,0,0
280477.475,101.435,-591.559,0,0
280737.8,100.986,-590.18,0,0
280998.125,100.639,-588.974,0,0
281258.45,100.296,-587.73,0,0
281518.775,99.9208,-586.508,0,0
281779.1,99.5583,-585.397,0,0
282039.425,99.176,-584.297,0,0
282299.75,98.7541,-583.192,0,0
282560,98.2988,-582.216,0,0
282820,97.8539,-581.086,0,0
283081,97.3675,-579.959,0,0
283341,96.948,-578.864,0,0
283601,96.4721,-577.769,0,0
283862,96.0255,-576.6,0,0
284122,95.5721,-575.446,0,0
284382,95.2038,-574.37,0,0
284643,94.8002,-573.131,0,0
284903,94.5269,-572.082,0,0
285163,94.1603,-571.016,0,0
285424,93.7495,-569.94,0,0
285684,93.6296,-568.817,0,0
285944,93.3252,-567.829,0,0
286205,93.0432,-566.875,0,0
286465,92.7877,-566.049,0,0
286725,92.5596,-565.04,0,0
286986,92.1887,-564.169,0,0
287246,91.9107,-563.357,0,0
287506,91.5336,-562.506,0,0
287767,91.089,-561.704,0,0
288027,90.756,-560.937,0,0
288287,90.2222,-560.038,0,0
288548,89.808,-559.098,0,0
288808,89.3591,-558.303,0,0
289068,88.9196,-557.398,0,0
289329,88.5567,-556.464,0,0
289589,88.0082,-555.431,0,0
289849,87.5444,-554.703,0,0
290109,87.1785,-553.728,0,0
290370,86.8132,-552.699,0,0
290630,86.4453,-551.904,0,0
290890,86.0494,-550.992,0,0
291151,85.5753,-549.975,0,0
291411,85.3703,-549.11,0,0
291671,84.9504,-548.226,0,0
291932,84.5566,-547.328,0,0
292192,84.1997,-546.444,0,0
292452,83.8449,-545.65,0,0
292713,83.4774,-544.816,0,0
292973,83.0555,-543.976,0,0
293233,82.7227,-543.171,0,0
293494,82.2894,-542.304,0,0
293754,81.7921,-541.504,0,0
294014,81.3542,-540.663,0,0
294275,80.9431,-539.874,0,0
294535,80.4615,-538.911,0,0
294795,79.967,-538.127,0,0
295056,79.5244,-537.244,0,0
295316,79.0212,-536.264,0,0
295576,78.6246,-535.346,0,0
295837,78.1457,-534.367,0,0
296097,77.7481,-533.389,0,0
296357,77.3771,-532.438,0,0
296618,76.9976,-531.402,0,0
296878,76.5307,-530.395,0,0
297138,76.2689,-529.356,0,0
297399,75.9059,-528.332,0,0
297659,75.7255,-527.365,0,0
297919,75.4153,-526.365,0,0
298180,75.2704,-525.307,0,0
298440,75.0319,-524.449,0,0
298700.2,74.9623,-523.499,0,0
298960.525,74.7668,-522.624,0,0
299220.85,74.6069,-521.828,0,0
299481.175,74.3987,-521.019,0,0
299741.5,74.1884,-520.231,0,0
300001.825,73.9433,-519.501,0,0
300262.15,73.7848,-518.713,0,0
300522.475,73.5389,-517.94,0,0
300782.8,73.1865,-517.172,0,0
301043.125,72.9017,-516.331,0,0
301303.45,72.6197,-515.566,0,0
301563.775,72.3554,-514.797,0,0
301824.1,72.0884,-513.914,0,0
302084.425,71.7311,-513.139,0,0
302344.75,71.471,-512.348,0,0
302605.075,71.185,-511.51,0,0
302865.4,70.9136,-510.71,0,0
303125.725,70.6386,-509.837,0,0
303386.05,70.3906,-509,0,0
303646.375,70.1355,-508.172,0,0
303906.7,69.8782,-507.345,0,0
304167.025,69.6528,-506.473,0,0
304427.35,69.4679,-505.677,0,0
304687.675,69.2743,-504.857,0,0
304948.0,69.0705,-504.075,0,0
305208.325,68.869,-503.211,0,0
305468.65,68.7112,-502.478,0,0
305728.975,68.5445,-501.729,0,0
305989.3,68.3397,-500.938,0,0
306249.625,68.119,-500.191,0,0
306509.95,67.9009,-499.436,0,0
306770.275,67.7026,-498.679,0,0
307030.6,67.4869,-497.971,0,0
307290.925,67.2658,-497.24,0,0
307551.25,67.0119,-496.508,0,0
307811.575,66.7576,-495.74,0,0
308071.9,66.5683,-494.997,0,0
308332.225,66.3443,-494.215,0,0
308592.55,66.0907,-493.429,0,0
308852.875,65.8749,-492.749,0,0
309113.2,65.6319,-491.97,0,0
309373.525,65.4613,-491.195,0,0
309633.85,65.263,-490.384,0,0
309894.175,65.0832,-489.644,0,0
310154.5,64.9456,-488.994,0,0
310414.825,64.6934,-488.233,0,0
310675.15,64.4725,-487.483,0,0
310935.475,64.3115,-486.759,0,0
311195.8,64.093,-486.062,0,0
311456.125,63.9113,-485.316,0,0
311716.45,63.672,-484.58,0,0
311976.775,63.4876,-483.892,0,0
312237.1,63.3053,-483.133,0,0
312497.425,63.1223,-482.426,0,0
312757.75,62.9062,-481.706,0,0
313018.075,62.7143,-481.011,0,0
313278.4,62.5027,-480.331,0,0
313538.725,62.2886,-479.574,0,0
313799.05,62.1423,-478.898,0,0
314059.375,61.9081,-478.152,0,0
314319.7,61.6931,-477.414,0,0
314580,61.5297,-476.68,0,0
314840,61.3473,-476.013,0,0
315101,61.1663,-475.293,0,0
315361,60.968,-474.556,0,0
315621,60.758,-473.806,0,0
315882,60.6283,-473.136,0,0
316142,60.3938,-472.433,0,0
316402,60.2394,-471.674,0,0
316663,60.0676,-470.993,0,0
316923,59.9414,-470.31,0,0
317183,59.7423,-469.592,0,0
317444,59.5824,-468.882,0,0
317704,59.3776,-468.203,0,0
317964,59.2479,-467.518,0,0
318225,59.0774,-466.75,0,0
318485,58.8846,-466.092,0,0
318745,58.6862,-465.378,0,0
319006,58.5395,-464.723,0,0
319266,58.377,-463.965,0,0
319526,58.2007,-463.285,0,0
319787,58.0228,-462.516,0,0
320047,57.9577,-461.836,0,0
320307,57.7581,-461.149,0,0
320567,57.6454,-460.455,0,0
320828,57.5017,-459.77,0,0
321088,57.3374,-459.078,0,0
321348,57.2018,-458.427,0,0
321609,57.0969,-457.74,0,0
321869,56.9424,-457.073,0,0
322129,56.8234,-456.343,0,0
322390,56.7231,-455.694,0,0
322650,56.5624,-455.044,0,0
322910,56.4618,-454.331,0,0
323171,56.3294,-453.72,0,0
323431,56.2157,-453.055,0,0
323691,56.0382,-452.42,0,0
323952,55.9273,-451.734,0,0
324212,55.8181,-451.128,0,0
324472,55.6594,-450.463,0,0
324733,55.4877,-449.738,0,0
324993,55.3902,-449.163,0,0
325253,55.2332,-448.505,0,0
325514,55.1086,-447.85,0,0
325774,54.9657,-447.225,0,0
326034,54.7664,-446.519,0,0
326295,54.6783,-445.912,0,0
326555,54.5396,-445.21,0,0
326815,54.4229,-444.569,0,0
327076,54.2831,-443.95,0,0
327336,54.0936,-443.293,0,0
327596,53.9535,-442.573,0,0
327857,53.8655,-441.95,0,0
328117,53.7467,-441.263,0,0
328377,53.5816,-440.609,0,0
328638,53.4697,-439.934,0,0
328898,53.4103,-439.25,0,0
329158,53.2543,-438.608,0,0
329419,53.1357,-437.902,0,0
329679,53.0329,-437.265,0,0
329939,52.9765,-436.591,0,0
330200,52.8421,-435.97,0,0
330460,52.7754,-435.299,0,0
330720.15,52.6701,-434.616,0,0
330980.475,52.5817,-434.02,0,0
331240.8,52.4878,-433.343,0,0
331501.125,52.4176,-432.701,0,0
331761.45,52.3683,-432.03,0,0
332021.775,52.2383,-431.412,0,0
332282.1,52.181,-430.767,0,0
332542.425,52.1126,-430.138,0,0
332802.75,52.0244,-429.524,0,0
333063.075,51.978,-428.895,0,0
333323.4,51.8474,-428.273,0,0
333583.725,51.7497,-427.635,0,0
333844.05,51.7233,-427.066,0,0
334104.375,51.6157,-426.397,0,0
334364.7,51.5305,-425.743,0,0
334625.025,51.503,-425.13,0,0
334885.35,51.3726,-424.539,0,0
335145.675,51.3228,-423.934,0,0
335406.0,51.2706,-423.312,0,0
335666.325,51.1671,-422.68,0,0
335926.65,51.1365,-422.084,0,0
336186.975,51.0278,-421.443,0,0
336447.3,51.0061,-420.832,0,0
336707.625,50.9327,-420.237,0,0
336967.95,50.8874,-419.639,0,0
337228.275,50.7868,-418.986,0,0
337488.6,50.7622,-418.418,0,0
337748.925,50.6807,-417.816,0,0
338009.25,50.584,-417.246,0,0
338269.575,50.5016,-416.648,0,0
338529.9,50.4714,-416.01,0,0
338790.225,50.3997,-415.442,0,0
339050.55,50.3405,-414.803,0,0
339310.875,50.2639,-414.204,0,0
339571.2,50.2112,-413.545,0,0
339831.525,50.1649,-412.951,0,0
340091.85,50.1053,-412.351,0,0
340352.175,50.0548,-411.738,0,0
340612.5,49.9601,-411.154,0,0
340872.825,49.926,-410.526,0,0
341133.15,49.9277,-409.902,0,0
341393.475,49.88,-409.284,0,0
341653.8,49.8494,-408.673,0,0
341914.125,49.8085,-408.09,0,0
342174.45,49.7978,-407.462,0,0
342434.775,49.7752,-406.867,0,0
342695.1,49.8068,-406.283,0,0
342955.425,49.7532,-405.706,0,0
343215.75,49.7551,-405.101,0,0
343476.075,49.7828,-404.538,0,0
343736.4,49.7387,-403.973,0,0
343996.725,49.7309,-403.448,0,0
344257.05,49.7199,-402.886,0,0
344517.375,49.6812,-402.289,0,0
344777.7,49.6297,-401.812,0,0
345038.025,49.5915,-401.219,0,0
345298.35,49.5524,-400.67,0,0
345558.675,49.5283,-400.043,0,0
345819.0,49.4877,-399.45,0,0
346079.325,49.4835,-398.881,0,0
346339.65,49.443,-398.304,0,0
346599.975,49.4438,-397.744,0,0
346860,49.4382,-397.149,0,0
347121,49.4375,-396.553,0,0
347381,49.4456,-396.005,0,0
347641,49.4556,-395.388,0,0
347902,49.4691,-394.853,0,0
348162,49.4952,-394.306,0,0
348422,49.4657,-393.714,0,0
348683,49.5124,-393.166,0,0
348943,49.5336,-392.619,0,0
349203,49.5598,-392.094,0,0
349464,49.6248,-391.561,0,0
349724,49.6257,-391,0,0
349984,49.6991,-390.454,0,0
350245,49.7042,-389.967,0,0
350505,49.7293,-389.419,0,0
350765,49.7717,-388.9,0,0
351025,49.8049,-388.372,0,0
351286,49.843,-387.9,0,0
351546,49.8709,-387.379,0,0
351806,49.9056,-386.868,0,0
352067,49.9254,-386.385,0,0
352327,49.9909,-385.91,0,0
352587,50.0083,-385.42,0,0
352848,50.052,-384.919,0,0
353108,50.0486,-384.422,0,0
353368,50.0855,-383.955,0,0
353629,50.0996,-383.5,0,0
353889,50.1228,-383.071,0,0
354149,50.1569,-382.62,0,0
354410,50.1604,-382.128,0,0
354670,50.1463,-381.7,0,0
354930,50.1754,-381.237,0,0
355191,50.1468,-380.831,0,0
355451,50.1769,-380.353,0,0
355711,50.1594,-379.928,0,0
355972,50.1623,-379.472,0,0
356232,50.1255,-379.042,0,0
356492,50.0806,-378.569,0,0
356753,50.0522,-378.11,0,0
357013,50.045,-377.663,0,0
357273,49.9737,-377.252,0,0
357534,49.942,-376.765,0,0
357794,49.9214,-376.322,0,0
358054,49.8626,-375.869,0,0
358315,49.8531,-375.376,0,0
358575,49.7811,-374.881,0,0
358835,49.767,-374.42,0,0
359096,49.7143,-373.998,0,0
359356,49.719,-373.536,0,0
359616,49.6881,-373.047,0,0
359877,49.6637,-372.569,0,0
360137,49.6016,-372.131,0,0
360397,49.5995,-371.626,0,0
360658,49.5137,-371.177,0,0
360918,49.5286,-370.725,0,0
361178,49.4234,-370.239,0,0
361438,49.3985,-369.751,0,0
361699,49.3412,-369.274,0,0
361959,49.3432,-368.807,0,0
362219,49.3033,-368.331,0,0
362480,49.2842,-367.835,0,0
362740.1,49.2376,-367.38,0,0
363000.425,49.2044,-366.879,0,0
363260.75,49.1685,-366.35,0,0
363521.075,49.1158,-365.88,0,0
363781.4,49.1359,-365.398,0,0
364041.725,49.0796,-364.877,0,0
364302.05,49.0838,-364.42,0,0
364562.375,49.0603,-363.946,0,0
364822.7,49.0479,-363.463,0,0
365083.025,49.0015,-362.961,0,0
365343.35,49.0149,-362.466,0,0
365603.675,49.0226,-361.982,0,0
365864.0,48.9792,-361.491,0,0
366124.325,48.993,-361.053,0,0
366384.65,48.9969,-360.548,0,0
366644.975,48.9926,-360.048,0,0
366905.3,49.0039,-359.589,0,0
367165.625,48.9925,-359.128,0,0
367425.95,48.987,-358.641,0,0
367686.275,48.9907,-358.171,0,0
367946.6,48.9726,-357.717,0,0
368206.925,48.972,-357.28,0,0
368467.25,48.976,-356.81,0,0
368727.575,48.9568,-356.356,0,0
368987.9,48.9719,-355.878,0,0
369248.225,48.9751,-355.354,0,0
369508.55,48.9232,-354.926,0,0
369768.875,48.9356,-354.447,0,0
370029.2,48.9115,-353.987,0,0
370289.525,48.9187,-353.479,0,0
370549.85,48.9242,-353.03,0,0
370810.175,48.9303,-352.561,0,0
371070.5,48.9416,-352.065,0,0
371330.825,48.9754,-351.583,0,0
371591.15,48.9997,-351.14,0,0
371851.475,48.9934,-350.7,0,0
372111.8,49.0532,-350.235,0,0
372372.125,49.0707,-349.768,0,0
372632.45,49.1215,-349.366,0,0
372892.775,49.1827,-348.946,0,0
373153.1,49.1633,-348.51,0,0
373413.425,49.2251,-348.119,0,0
373673.75,49.2008,-347.717,0,0
373934.075,49.2316,-347.293,0,0
374194.4,49.221,-346.891,0,0
374454.725,49.1797,-346.503,0,0
374715.05,49.1826,-346.143,0,0
374975.375,49.1308,-345.73,0,0
375235.7,49.0627,-345.346,0,0
375496.025,49.0344,-344.916,0,0
375756.35,48.9498,-344.518,0,0
376016.675,48.8719,-344.09,0,0
376277.0,48.8117,-343.66,0,0
376537.325,48.7447,-343.213,0,0
376797.65,48.6443,-342.738,0,0
377057.975,48.5786,-342.298,0,0
377318.3,48.5438,-341.84,0,0
377578.625,48.482,-341.364,0,0
377838.95,48.4385,-340.909,0,0
378099.275,48.3884,-340.417,0,0
378359.6,48.3112,-339.956,0,0
378619.925,48.2686,-339.46,0,0
378880,48.194,-338.979,0,0
379141,48.1678,-338.493,0,0
379401,48.1013,-338.017,0,0
379661,48.0597,-337.52,0,0
379922,48.0231,-337.028,0,0
380182,47.9977,-336.526,0,0
380442,47.9208,-336.004,0,0
380703,47.9184,-335.508,0,0
380963,47.8936,-335.015,0,0
381223,47.873,-334.465,0,0
381483,47.8416,-333.961,0,0
381744,47.8398,-333.389,0,0
382004,47.83,-332.87,0,0
382264,47.8388,-332.353,0,0
382525,47.8945,-331.827,0,0
382785,47.9593,-331.32,0,0
383045,47.9787,-330.819,0,0
383306,48.0216,-330.36,0,0
383566,48.0943,-329.915,0,0
383826,48.0999,-329.519,0,0
384087,48.165,-329.067,0,0
384347,48.1681,-328.615,0,0
384607,48.1131,-328.13,0,0
384868,48.1262,-327.687,0,0
385128,48.0767,-327.217,0,0
385388,48.0498,-326.758,0,0
385649,48.0156,-326.282,0,0
385909,48.0457,-325.82,0,0
386169,47.9892,-325.321,0,0
386430,48.0274,-324.813,0,0
386690,47.9942,-324.371,0,0
386950,47.9732,-323.878,0,0
387211,47.9806,-323.379,0,0
387471,47.9593,-322.868,0,0
387731,47.9609,-322.412,0,0
387992,47.9449,-321.88,0,0
388252,47.9578,-321.415,0,0
388512,47.954,-320.874,0,0
388773,47.9472,-320.405,0,0
389033,47.9413,-319.897,0,0
389293,47.9343,-319.401,0,0
389554,47.9518,-318.883,0,0
389814,47.9527,-318.368,0,0
390074,47.9681,-317.882,0,0
390335,47.9748,-317.345,0,0
390595,47.9797,-316.833,0,0
390855,48.0059,-316.338,0,0
391116,48.0435,-315.816,0,0
391376,48.0443,-315.315,0,0
391636,48.0672,-314.811,0,0
391896,48.0722,-314.31,0,0
392157,48.1003,-313.808,0,0
392417,48.0857,-313.281,0,0
392677,48.1438,-312.772,0,0
392938,48.1561,-312.267,0,0
393198,48.1656,-311.757,0,0
393458,48.1709,-311.219,0,0
393719,48.2242,-310.721,0,0
393979,48.2478,-310.186,0,0
394239,48.2801,-309.662,0,0
394500,48.3075,-309.133,0,0
394760.05,48.3275,-308.629,0,0
395020.375,48.3961,-308.117,0,0
395280.7,48.4202,-307.573,0,0
395541.025,48.4422,-307.051,0,0
395801.35,48.5071,-306.521,0,0
396061.675,48.5117,-305.993,0,0
396322.0,48.5753,-305.451,0,0
396582.325,48.5933,-304.936,0,0
396842.65,48.6366,-304.418,0,0
397102.975,48.6842,-303.873,0,0
397363.3,48.7321,-303.361,0,0
397623.625,48.7926,-302.808,0,0
397883.95,48.8292,-302.268,0,0
398144.275,48.8954,-301.74,0,0
398404.6,48.9453,-301.175,0,0
398664.925,48.9848,-300.664,0,0
398925.25,49.0641,-300.108,0,0
399185.575,49.1177,-299.575,0,0
399445.9,49.186,-299.026,0,0
399706.225,49.2359,-298.473,0,0
399966.55,49.3091,-297.928,0,0
400006.6,49.3194,-297.831,0,0