File: Accelerated corrosion test data/2025-10-22_09-25-28/sample_7.csv
Frequency (Hz),Impedance (ohms),Phase (Radians),Temperature (C),Humidity (%)
10000.0,272.042,-12107.5,0,0
10260.325,269.691,-11816.3,0,0
10520.65,256.591,-11515.7,0,0
10780.975,251.37,-11234.1,0,0
11041.3,248.877,-10966.4,0,0
11301.625,245.777,-10709.9,0,0
11561.95,248.009,-10460.5,0,0
11822.275,258.481,-10229.1,0,0
12082.6,267.247,-10014.5,0,0
12342.925,323.758,-9837.83,0,0
12603.25,257.87,-9665.34,0,0
12863.575,270.973,-9460.05,0,0
13123.9,237.387,-9289.76,0,0
13384.225,229.718,-9111.57,0,0
13644.55,223.215,-8926.66,0,0
13904.875,207.39,-8765.52,0,0
14165.2,203.613,-8594.41,0,0
14425.525,206.557,-8455.03,0,0
14685.8,200.95,-8300.12,0,0
14946.175,197.012,-8153.81,0,0
15206.5,195.34,-8024.14,0,0
15466.825,183.206,-7880.97,0,0
15727.15,183.312,-7753.19,0,0
15987.5,179.316,-7624.38,0,0
16247.8,177.496,-7504.87,0,0
16508.125,170.306,-7382.87,0,0
16768.45,169.608,-7264.23,0,0
17028.775,168.494,-7153.1,0,0
17289.1,166.257,-7046.22,0,0
17549.425,165.695,-6936.48,0,0
17809.75,166.53,-6826.41,0,0
18070.075,167.203,-6730.54,0,0
18330.4,173.097,-6624.37,0,0
18590.725,195.335,-6531.99,0,0
18851.05,189.834,-6468.86,0,0
19111.375,186.538,-6388.42,0,0
19371.7,210.158,-6301.4,0,0
19632.025,174.123,-6248.02,0,0
19892.35,157.301,-6147.93,0,0
20152.675,166.501,-6064.02,0,0
20413.0,166.831,-5982.99,0,0
20673.3,172.477,-5907,0,0
20933.65,183.907,-5850.78,0,0
21193.975,162.497,-5794.26,0,0
21454.3,152.43,-5718.86,0,0
21714.625,155.822,-5647.88,0,0
21974.9,145.175,-5586.83,0,0
22235.275,138.685,-5517.43,0,0
22495.6,137.365,-5450.78,0,0
22755.925,132.535,-5388.85,0,0
23016.25,129.009,-5325.34,0,0
23276.6,126.776,-5262.62,0,0
23536.9,126.908,-5201.68,0,0
23797.225,126.77,-5145.78,0,0
24057.55,123.549,-5089.01,0,0
24317.875,121.228,-5032.12,0,0
24578.2,122.076,-4976.04,0,0
24838.525,120.458,-4922.58,0,0
25098.85,120.159,-4871.1,0,0
25359.175,118.373,-4818.82,0,0
25619.5,117.205,-4767.94,0,0
25879.8,117.885,-4716.59,0,0
26140.1,116.677,-4665.35,0,0
26400.5,120.528,-4616.51,0,0
26660.8,120.543,-4571.44,0,0
26921.1,120.454,-4522.53,0,0
27181.4,124.811,-4472.44,0,0
27441.8,130.376,-4426.59,0,0
27702.1,138.119,-4378.91,0,0
27962.4,150.813,-4331.98,0,0
28222.7,177.873,-4296.83,0,0
28483.1,190.984,-4284.4,0,0
28743.4,198.392,-4271.52,0,0
29003.7,175.335,-4258.99,0,0
29264,153.004,-4227.1,0,0
29524.4,139.851,-4185.55,0,0
29784.7,132.16,-4144.97,0,0
30045,126.804,-4102.29,0,0
30305.3,126.752,-4063.88,0,0
30565.7,129.138,-4026.66,0,0
30826,131.416,-3995.23,0,0
31086.3,131.258,-3964.71,0,0
31346.6,128.151,-3935.57,0,0
31607,129.768,-3907.32,0,0
31867.3,121.093,-3878.67,0,0
32127.6,117.033,-3846.97,0,0
32387.9,113.671,-3815.87,0,0
32648.3,111.273,-3786.14,0,0
32908.6,107.352,-3756.35,0,0
33168.9,103.877,-3726.67,0,0
33429.2,100.51,-3696.31,0,0
33689.6,97.9315,-3666.32,0,0
33949.9,96.047,-3636.69,0,0
34210.2,94.3727,-3608.09,0,0
34470.5,92.5982,-3579.22,0,0
34730.9,91.0038,-3550.68,0,0
34991.2,90.4568,-3523.11,0,0
35251.5,89.7372,-3496.33,0,0
35511.8,88.2762,-3469.07,0,0
35772.2,87.963,-3442.67,0,0
36032.5,87.8182,-3416.68,0,0
36292.8,87.1366,-3391.52,0,0
36553.1,86.2445,-3366.58,0,0
36813.5,85.4054,-3341.71,0,0
37073.8,85.213,-3316.74,0,0
37334.1,85.1802,-3292.57,0,0
37594.4,84.9996,-3269.19,0,0
37854.8,84.6379,-3245.77,0,0
38115.1,84.2648,-3221.82,0,0
38375.4,85.0006,-3198.09,0,0
38635.7,85.8754,-3175.11,0,0
38896.1,87.3702,-3152.45,0,0
39156.4,89.8937,-3130.48,0,0
39416.7,92.8993,-3109.63,0,0
39677,96.9286,-3090.86,0,0
39937.4,99.7035,-3075.29,0,0
40197.7,99.4392,-3060.07,0,0
40458,96.7684,-3045.3,0,0
40718.3,92.8232,-3027.24,0,0
40978.7,89.4196,-3009.11,0,0
41239,86.4694,-2989.51,0,0
41499.3,84.4115,-2969.83,0,0
41759.6,83.17,-2950.33,0,0
42020,81.9323,-2931.99,0,0
42280.275,79.9674,-2912.68,0,0
42540.6,79.0149,-2892.99,0,0
42800.925,79.7094,-2874.33,0,0
43061.25,79.3871,-2856.69,0,0
43321.575,79.8251,-2838.97,0,0
43581.9,78.8015,-2822.05,0,0
43842.225,78.2775,-2804.02,0,0
44102.55,79.0969,-2786.39,0,0
44362.875,80.7153,-2769.42,0,0
44623.2,81.7372,-2755.55,0,0
44883.525,80.55,-2740.99,0,0
45143.85,80.065,-2725.66,0,0
45404.175,78.1101,-2710.16,0,0
45664.5,79.0456,-2692.98,0,0
45924.825,79.7295,-2679.92,0,0
46185.15,78.477,-2666.93,0,0
46445.475,76.7744,-2652.4,0,0
46705.8,74.2338,-2638.72,0,0
46966.125,72.027,-2623.01,0,0
47226.45,70.6482,-2607.18,0,0
47486.775,70.2143,-2591.53,0,0
47747.1,70.1685,-2577.57,0,0
48007.425,69.5663,-2562.63,0,0
48267.75,68.9695,-2548.4,0,0
48528.075,68.3102,-2534.73,0,0
48788.4,67.7011,-2520.44,0,0
49048.725,67.091,-2506.55,0,0
49309.05,67.034,-2492.55,0,0
49569.375,66.4246,-2478.95,0,0
49829.7,66.0049,-2465.63,0,0
50090.025,65.648,-2452.23,0,0
50350.35,65.3811,-2439.28,0,0
50610.675,64.8284,-2426.28,0,0
50871.0,64.6902,-2413.22,0,0
51131.325,64.38,-2400.53,0,0
51391.65,64.1781,-2387.95,0,0
51651.975,63.8183,-2375.37,0,0
51912.3,63.5448,-2363.17,0,0
52172.625,63.3844,-2350.88,0,0
52432.95,63.188,-2338.78,0,0
52693.275,63.0603,-2326.79,0,0
52953.6,63.0528,-2314.91,0,0
53213.925,63.018,-2303.55,0,0
53474.25,62.8109,-2292.22,0,0
53734.575,62.4121,-2280.96,0,0
53994.9,62.0122,-2269.69,0,0
54255.225,61.6099,-2258.32,0,0
54515.55,61.4452,-2247.38,0,0
54775.875,61.0343,-2236.34,0,0
55036.2,60.7162,-2225.13,0,0
55296.525,60.2775,-2214.29,0,0
55556.85,60.2495,-2203.45,0,0
55817.175,60.0367,-2192.84,0,0
56077.5,59.7213,-2182.06,0,0
56337.825,59.6814,-2171.6,0,0
56598.15,59.6206,-2161.24,0,0
56858.475,59.4917,-2150.91,0,0
57118.8,59.2698,-2140.77,0,0
57379.125,59.0184,-2130.77,0,0
57639.45,58.7331,-2120.71,0,0
57899.775,58.636,-2110.76,0,0
58160.1,58.5587,-2100.68,0,0
58420.4,58.5526,-2090.8,0,0
58680.7,58.9715,-2081.31,0,0
58941.1,58.8619,-2072.01,0,0
59201.4,58.6062,-2062.68,0,0
59461.7,58.5689,-2053.15,0,0
59722,59.0076,-2044.09,0,0
59982.4,58.6782,-2035.2,0,0
60242.7,58.7227,-2026.26,0,0
60503,58.61,-2017.63,0,0
60763.3,58.3549,-2009.27,0,0
61023.7,57.6932,-2000.3,0,0
61284,57.4331,-1991.55,0,0
61544.3,56.9695,-1982.86,0,0
61804.6,56.6002,-1974.25,0,0
62065,56.1114,-1965.6,0,0
62325.3,55.8346,-1956.81,0,0
62585.6,55.5519,-1948.26,0,0
62845.9,55.3447,-1939.73,0,0
63106.3,55.1854,-1931.28,0,0
63366.6,55.0115,-1922.85,0,0
63626.9,54.9759,-1914.67,0,0
63887.2,54.7016,-1906.6,0,0
64147.6,54.3768,-1898.41,0,0
64407.9,54.2228,-1890.18,0,0
64668.2,54.1711,-1882.02,0,0
64928.5,54.0907,-1874.03,0,0
65188.9,54.2883,-1866.15,0,0
65449.2,54.3985,-1858.49,0,0
65709.5,54.3999,-1850.97,0,0
65969.8,54.3269,-1843.61,0,0
66230.2,54.0883,-1836.33,0,0
66490.5,53.7723,-1828.99,0,0
66750.8,53.3282,-1821.69,0,0
67011.1,52.7254,-1814.13,0,0
67271.5,52.3505,-1806.86,0,0
67531.8,52.2305,-1799.24,0,0
67792.1,52.0313,-1791.93,0,0
68052.4,51.6169,-1784.57,0,0
68312.8,51.4528,-1777.34,0,0
68573.1,51.3404,-1769.89,0,0
68833.4,51.1367,-1762.76,0,0
69093.7,50.9785,-1755.89,0,0
69354.1,51.0377,-1748.7,0,0
69614.4,50.8738,-1741.69,0,0
69874.7,50.7891,-1734.8,0,0
70135,50.6875,-1727.74,0,0
70395.4,50.5992,-1721.08,0,0
70655.7,50.6458,-1714.21,0,0
70916,50.5688,-1707.6,0,0
71176.3,50.5092,-1701.18,0,0
71436.7,50.3074,-1694.65,0,0
71697,50.2478,-1688.17,0,0
71957.3,49.8439,-1681.75,0,0
72217.6,49.7808,-1675.21,0,0
72478,49.5166,-1668.81,0,0
72738.3,49.3151,-1662.29,0,0
72998.6,49.0937,-1655.91,0,0
73258.9,48.9737,-1649.49,0,0
73519.3,48.8116,-1643.22,0,0
73779.6,48.672,-1636.84,0,0
74039.9,48.5895,-1630.62,0,0
74300.225,48.4251,-1624.46,0,0
74560.55,48.3758,-1618.34,0,0
74820.875,48.2188,-1612.21,0,0
75081.2,48.0214,-1606.15,0,0
75341.525,48.1037,-1600.09,0,0
75601.85,47.9121,-1594.08,0,0
75862.175,47.7957,-1588.09,0,0
76122.5,47.7429,-1582.27,0,0
76382.825,47.5848,-1576.3,0,0
76643.15,47.5847,-1570.48,0,0
76903.475,47.4519,-1564.61,0,0
77163.8,47.4735,-1558.84,0,0
77424.125,47.3715,-1553.05,0,0
77684.45,47.3892,-1547.36,0,0
77944.775,47.3186,-1541.76,0,0
78205.1,47.207,-1536.18,0,0
78465.425,47.1579,-1530.51,0,0
78725.75,47.1318,-1524.97,0,0
78986.075,47.1318,-1519.5,0,0
79246.4,47.0404,-1514,0,0
79506.725,47.0119,-1508.56,0,0
79767.05,46.9379,-1503.22,0,0
80027.375,46.8922,-1497.8,0,0
80287.7,46.9191,-1492.44,0,0
80548.025,46.7982,-1487.19,0,0
80808.35,46.655,-1481.92,0,0
81068.675,46.6342,-1476.67,0,0
81329.0,46.4729,-1471.49,0,0
81589.325,46.4673,-1466.28,0,0
81849.65,46.3711,-1461.03,0,0
82109.975,46.2432,-1455.81,0,0
82370.3,46.1977,-1450.64,0,0
82630.625,46.3207,-1445.43,0,0
82890.95,46.3245,-1440.39,0,0
83151.275,46.256,-1435.44,0,0
83411.6,46.1352,-1430.37,0,0
83671.925,46.1722,-1425.31,0,0
83932.25,46.2116,-1420.35,0,0
84192.575,46.2729,-1415.35,0,0
84452.9,46.3596,-1410.44,0,0
84713.225,46.4505,-1405.68,0,0
84973.55,46.5119,-1401.02,0,0
85233.875,46.44,-1396.18,0,0
85494.2,46.3236,-1391.38,0,0
85754.525,46.34,-1386.73,0,0
86014.85,46.3098,-1381.94,0,0
86275.175,46.3513,-1377.2,0,0
86535.5,46.3938,-1372.59,0,0
86795.825,46.3034,-1368.02,0,0
87056.15,46.3243,-1363.3,0,0
87316.475,46.4755,-1358.63,0,0
87576.8,46.4688,-1354.19,0,0
87837.125,46.4223,-1349.72,0,0
88097.45,46.3762,-1345.3,0,0
88357.775,46.3452,-1341.03,0,0
88618.1,46.2112,-1336.45,0,0
88878.425,46.1461,-1331.91,0,0
89138.75,45.9813,-1327.53,0,0
89399.075,45.7951,-1323.04,0,0
89659.4,45.8754,-1318.27,0,0
89919.725,45.8872,-1313.96,0,0
90180,45.8436,-1309.55,0,0
90440.4,45.7742,-1305.1,0,0
90700.7,45.9902,-1300.68,0,0
90961,45.9632,-1296.31,0,0
91221.3,46.0742,-1291.9,0,0
91481.7,46.1547,-1287.35,0,0
91742,46.208,-1283.16,0,0
92002.3,46.1616,-1278.91,0,0
92262.6,46.3063,-1274.41,0,0
92523,46.4207,-1270.19,0,0
92783.3,46.5095,-1265.88,0,0
93043.6,46.6364,-1261.47,0,0
93303.9,46.9683,-1257,0,0
93564.3,47.4768,-1252.57,0,0
93824.6,48.247,-1248.26,0,0
94084.9,49.2472,-1244.34,0,0
94345.2,50.1584,-1241,0,0
94605.6,50.5409,-1238.1,0,0
94865.9,50.2709,-1234.9,0,0
95126.2,50.0928,-1231.31,0,0
95386.5,49.9107,-1227.83,0,0
95646.9,49.4907,-1224.41,0,0
95907.2,48.8565,-1220.59,0,0
96167.5,48.544,-1216.52,0,0
96427.8,48.4262,-1212.52,0,0
96688.2,48.2492,-1208.42,0,0
96948.5,48.2697,-1204.32,0,0
97208.8,48.4556,-1200.33,0,0
97469.1,48.5114,-1196.54,0,0
97729.5,48.4588,-1192.61,0,0
97989.8,48.6804,-1188.72,0,0
98250.1,48.853,-1185.01,0,0
98510.4,48.9979,-1181.17,0,0
98770.8,49.1725,-1177.6,0,0
99031.1,49.0972,-1174.08,0,0
99291.4,48.835,-1170.43,0,0
99551.7,48.6788,-1166.56,0,0
99812.1,48.4858,-1162.56,0,0
100072,48.5423,-1158.36,0,0
100333,48.9693,-1154.27,0,0
100593,49.5157,-1150.53,0,0
100853,49.7383,-1146.88,0,0
101114,50.1678,-1143.2,0,0
101374,50.3688,-1139.67,0,0
101634,50.5374,-1135.91,0,0
101895,50.8699,-1132.05,0,0
102155,51.4273,-1128.3,0,0
102415,52.0206,-1124.73,0,0
102676,52.797,-1121.34,0,0
102936,53.3012,-1118.31,0,0
103196,53.4713,-1115.01,0,0
103457,53.8719,-1111.57,0,0
103717,54.6205,-1108.22,0,0
103977,55.2458,-1105.49,0,0
104238,55.2786,-1102.75,0,0
104498,55.2473,-1099.62,0,0
104758,55.4001,-1096.44,0,0
105019,55.6489,-1093.48,0,0
105279,55.4984,-1090.58,0,0
105539,55.2989,-1087.41,0,0
105800,55.2503,-1084.04,0,0
106060,55.2665,-1080.89,0,0
106320.175,55.1713,-1077.5,0,0
106580.5,55.1978,-1074.17,0,0
106840.825,55.3164,-1070.71,0,0
107101.15,55.5676,-1067.38,0,0
107361.475,55.6852,-1064.29,0,0
107621.8,55.6922,-1060.87,0,0
107882.125,55.8613,-1057.51,0,0
108142.45,56.0402,-1054.21,0,0
108402.775,56.2886,-1050.92,0,0
108663.1,56.5032,-1047.63,0,0
108923.425,56.8088,-1044.45,0,0
109183.75,56.8973,-1041.3,0,0
109444.075,56.9662,-1037.96,0,0
109704.4,57.1209,-1034.57,0,0
109964.725,57.3177,-1031.1,0,0
110225.05,57.4203,-1027.64,0,0
110485.375,57.7865,-1023.91,0,0
110745.7,58.5193,-1020.17,0,0
111006.025,59.3482,-1016.88,0,0
111266.35,60.0207,-1013.61,0,0
111526.675,60.7174,-1010.33,0,0
111787.0,61.2863,-1007.07,0,0
112047.325,61.9235,-1003.57,0,0
112307.65,63.0044,-1000.17,0,0
112567.975,64.2361,-997.045,0,0
112828.3,65.22,-993.927,0,0
113088.625,66.4101,-990.881,0,0
113348.95,67.6701,-988.067,0,0
113609.275,68.6487,-985.385,0,0
113869.6,69.523,-982.555,0,0
114129.925,70.7422,-979.621,0,0
114390.25,72.0397,-976.767,0,0
114650.575,73.582,-974.175,0,0
114910.9,74.9064,-971.795,0,0
115171.225,76.2087,-969.332,0,0
115431.55,77.7675,-966.826,0,0
115691.875,79.4989,-964.521,0,0
115952.2,81.3603,-962.499,0,0
116212.525,83.163,-960.901,0,0
116472.85,85.0248,-959.476,0,0
116733.175,86.7273,-958.663,0,0
116993.5,87.7749,-958.11,0,0
117253.825,88.3541,-957.135,0,0
117514.15,89.3026,-955.884,0,0
117774.475,90.3236,-955.004,0,0
118034.8,91.0919,-954.403,0,0
118295.125,91.5241,-953.607,0,0
118555.45,92.4454,-952.669,0,0
118815.775,93.5527,-952.576,0,0
119076.1,94.1032,-953.128,0,0
119336.425,93.6778,-953.895,0,0
119596.75,92.4807,-954.3,0,0
119857.075,91.2416,-954.108,0,0
120117.4,89.957,-953.889,0,0
120377.725,88.3674,-953.869,0,0
120638.05,85.8468,-953.769,0,0
120898.375,83.1311,-952.424,0,0
121158.7,80.7238,-950.82,0,0
121419.025,78.0617,-948.727,0,0
121679.35,75.9335,-945.994,0,0
121939.675,74.3459,-943.37,0,0
122200.0,72.8617,-940.817,0,0
122460,71.4353,-938.356,0,0
122721,69.8739,-935.772,0,0
122981,68.5583,-932.928,0,0
123241,67.4466,-930.268,0,0
123502,66.1815,-927.691,0,0
123762,64.8093,-924.766,0,0
124022,63.8813,-921.65,0,0
124283,63.2073,-918.915,0,0
124543,62.2239,-916.338,0,0
124803,61.2564,-913.473,0,0
125064,60.5289,-910.648,0,0
125324,59.6489,-908.053,0,0
125584,58.5893,-905.325,0,0
125845,57.6432,-902.329,0,0
126105,56.8039,-899.383,0,0
126365,55.9778,-896.422,0,0
126626,55.1478,-893.305,0,0
126886,54.493,-890.172,0,0
127146,53.8514,-886.982,0,0
127406,53.3036,-883.702,0,0
127667,52.9597,-880.402,0,0
127927,52.8128,-877.349,0,0
128187,52.7431,-874.46,0,0
128448,52.4581,-871.727,0,0
128708,52.0447,-868.85,0,0
128968,51.7816,-865.942,0,0
129229,51.5207,-863.106,0,0
129489,51.2568,-860.245,0,0
129749,50.9644,-857.498,0,0
130010,50.4931,-854.703,0,0
130270,50.193,-851.617,0,0
130530,50.0288,-848.716,0,0
130791,49.7361,-845.935,0,0
131051,49.3425,-842.979,0,0
131311,49.0349,-839.898,0,0
131572,48.8372,-836.802,0,0
131832,48.7399,-833.76,0,0
132092,48.6097,-830.798,0,0
132353,48.3987,-827.694,0,0
132613,48.3098,-824.477,0,0
132873,48.4227,-821.239,0,0
133134,48.5507,-818.112,0,0
133394,48.7164,-814.967,0,0
133654,48.9797,-811.75,0,0
133915,49.4039,-808.598,0,0
134175,49.9497,-805.523,0,0
134435,50.6211,-802.429,0,0
134696,51.5697,-799.627,0,0
134956,52.2514,-797.101,0,0
135216,52.8189,-794.627,0,0
135477,53.3878,-791.936,0,0
135737,54.2204,-789.295,0,0
135997,55.3698,-786.796,0,0
136258,56.5611,-784.967,0,0
136518,57.3417,-783.704,0,0
136778,57.548,-782.487,0,0
137039,57.2843,-781.103,0,0
137299,56.6516,-779.507,0,0
137559,55.8813,-777.482,0,0
137819,55.2244,-775.105,0,0
138080,54.6432,-772.587,0,0
138340.125,54.1811,-769.978,0,0
138600.45,53.8384,-767.26,0,0
138860.775,53.5504,-764.592,0,0
139121.1,53.1784,-761.841,0,0
139381.425,52.9372,-758.859,0,0
139641.75,53.0258,-755.93,0,0
139902.075,53.124,-753.131,0,0
140162.4,53.2458,-750.403,0,0
140422.725,53.3438,-747.786,0,0
140683.05,53.3374,-745.191,0,0
140943.375,53.2402,-742.476,0,0
141203.7,53.1991,-739.707,0,0
141464.025,53.0903,-736.863,0,0
141724.35,53.1126,-733.83,0,0
141984.675,53.2863,-730.774,0,0
142245.0,53.5979,-727.761,0,0
142505.325,54.0114,-724.776,0,0
142765.65,54.5169,-721.887,0,0
143025.975,54.9966,-719.074,0,0
143286.3,55.5437,-716.323,0,0
143546.625,56.1885,-713.541,0,0
143806.95,56.9102,-711.03,0,0
144067.275,57.5041,-708.666,0,0
144327.6,57.9316,-706.365,0,0
144587.925,58.2145,-704.006,0,0
144848.25,58.5273,-701.561,0,0
145108.575,58.7691,-699.113,0,0
145368.9,58.979,-696.651,0,0
145629.225,59.1596,-694.061,0,0
145889.55,59.4537,-691.478,0,0
146149.875,59.6645,-688.91,0,0
146410.2,59.9606,-686.17,0,0
146670.525,60.4432,-683.515,0,0
146930.85,60.9852,-681.072,0,0
147191.175,61.3537,-678.761,0,0
147451.5,61.5518,-676.469,0,0
147711.825,61.5677,-674.029,0,0
147972.15,61.6574,-671.427,0,0
148232.475,61.88,-668.878,0,0
148492.8,61.9165,-666.428,0,0
148753.125,61.8232,-663.822,0,0
149013.45,61.7439,-661.129,0,0
149273.775,61.6189,-658.327,0,0
149534.1,61.5511,-655.368,0,0
149794.425,61.5141,-652.427,0,0
150054.75,61.4494,-649.375,0,0
150315.075,61.4007,-646.2,0,0
150575.4,61.4043,-642.924,0,0
150835.725,61.51,-639.502,0,0
151096.05,61.7134,-636.041,0,0
151356.375,62.0057,-632.501,0,0
151616.7,62.4059,-628.903,0,0
151877.025,63.0066,-625.267,0,0
152137.35,63.6461,-621.731,0,0
152397.675,64.2973,-618.182,0,0
152658.0,65.0303,-614.557,0,0
152918.325,65.8564,-610.964,0,0
153178.65,66.7677,-607.341,0,0
153438.975,67.7229,-603.744,0,0
153699.3,68.7246,-600.131,0,0
153959.625,69.766,-596.466,0,0
154219.95,70.8987,-592.771,0,0
154480,72.1429,-589.064,0,0
154741,73.462,-585.313,0,0
155001,74.864,-581.557,0,0
155261,76.4005,-577.745,0,0
155522,78.1371,-573.976,0,0
155782,79.9953,-570.263,0,0
156042,81.9269,-566.624,0,0
156303,83.9844,-563.044,0,0
156563,86.1426,-559.511,0,0
156823,88.4094,-556.061,0,0
157084,90.7677,-552.65,0,0
157344,93.333,-549.317,0,0
157604,96.0788,-546.252,0,0
157864,98.8666,-543.464,0,0
158125,101.562,-540.923,0,0
158385,104.145,-538.551,0,0
158645,106.738,-536.368,0,0
158906,109.201,-534.529,0,0
159166,111.232,-532.885,0,0
159426,112.803,-531.25,0,0
159687,114.016,-529.357,0,0
159947,115.093,-527.255,0,0
160207,115.864,-524.953,0,0
160468,116.449,-522.317,0,0
160728,117.001,-519.214,0,0
160988,117.596,-515.791,0,0
161249,118.163,-511.911,0,0
161509,118.949,-507.462,0,0
161769,120.274,-502.514,0,0
162030,122.248,-497.532,0,0
162290,124.544,-492.695,0,0
162550,127.047,-487.813,0,0
162811,129.808,-482.886,0,0
163071,132.797,-477.847,0,0
163331,136.202,-472.688,0,0
163592,140.14,-467.563,0,0
163852,144.556,-462.768,0,0
164112,149.11,-458.376,0,0
164373,153.59,-454.316,0,0
164633,157.834,-450.124,0,0
164893,162.15,-445.723,0,0
165154,166.729,-441.231,0,0
165414,171.209,-436.434,0,0
165674,176.24,-430.958,0,0
165935,182.106,-425.134,0,0
166195,189.054,-419.526,0,0
166455,196.684,-414.33,0,0
166716,204.861,-409.451,0,0
166976,213.504,-404.951,0,0
167236,222.644,-400.561,0,0
167497,232.83,-396.309,0,0
167757,244.105,-392.999,0,0
168017,255.891,-390.727,0,0
168277,268.036,-389.384,0,0
168538,280.66,-388.8,0,0
168798,293.752,-389.464,0,0
169058,307.063,-391.377,0,0
169319,320.359,-394.516,0,0
169579,333.349,-399.239,0,0
169839,345.348,-404.868,0,0
170100,357.136,-410.735,0,0
170360.075,369.336,-417.3,0,0
170620.4,381.672,-425.442,0,0
170880.725,393.404,-435.728,0,0
171141.05,403.293,-447.471,0,0
171401.375,411.683,-459.196,0,0
171661.7,419.792,-471.261,0,0
171922.025,427.321,-484.498,0,0
172182.35,433.772,-498.783,0,0
172442.675,439.12,-514.444,0,0
172703.0,442.183,-531.61,0,0
172963.325,442.269,-548.651,0,0
173223.65,441.011,-565.307,0,0
173483.975,437.345,-582.571,0,0
173744.3,430.434,-599.101,0,0
174004.625,420.565,-613.723,0,0
174264.95,408.385,-625.452,0,0
174525.275,395.571,-633.448,0,0
174785.6,382.894,-638.962,0,0
175045.925,370.531,-641.35,0,0
175306.25,360.416,-641.276,0,0
175566.575,352.358,-640.782,0,0
175826.9,344.654,-639.81,0,0
176087.225,338.08,-637.204,0,0
176347.55,333.79,-633.85,0,0
176607.875,331.477,-630.862,0,0
176868.2,330.729,-629.01,0,0
177128.525,330.099,-628.359,0,0
177388.85,329.386,-627.45,0,0
177649.175,330.148,-626.067,0,0
177909.5,333.135,-625.619,0,0
178169.825,337.824,-627.688,0,0
178430.15,342.541,-633.512,0,0
178690.475,344.662,-642.611,0,0
178950.8,343.134,-652.503,0,0
179211.125,338.601,-661.442,0,0
179471.45,332.254,-668.147,0,0
179731.775,326.344,-672.738,0,0
179992.1,321.352,-677.492,0,0
180252.425,315.765,-682.536,0,0
180512.75,309.554,-687.345,0,0
180773.075,302.553,-692.088,0,0
181033.4,294.409,-696.018,0,0
181293.725,285.81,-698.701,0,0
181554.05,277.425,-699.969,0,0
181814.375,270.275,-701.2,0,0
182074.7,262.452,-703.608,0,0
182335.025,252.729,-705.341,0,0
182595.35,241.876,-705.298,0,0
182855.675,230.935,-702.9,0,0
183116.0,221.288,-698.354,0,0
183376.325,213.611,-693.021,0,0
183636.65,207.395,-688.071,0,0
183896.975,201.47,-683.701,0,0
184157.3,195.429,-678.94,0,0
184417.625,190.306,-673.426,0,0
184677.95,186.321,-668.286,0,0
184938.275,182.737,-663.96,0,0
185198.6,178.645,-660.268,0,0
185458.925,173.912,-656.024,0,0
185719.25,169.407,-651.042,0,0
185979.575,165.223,-645.56,0,0
186239.9,161.864,-639.546,0,0
186500,159.442,-633.785,0,0
186761,157.24,-628.413,0,0
187021,155.222,-622.949,0,0
187281,153.794,-617.467,0,0
187542,152.871,-612.314,0,0
187802,152.26,-607.679,0,0
188062,151.779,-603.51,0,0
188322,151.214,-599.868,0,0
188583,150.419,-596.618,0,0
188843,149.04,-593.799,0,0
189103,146.831,-590.6,0,0
189364,144.445,-586.629,0,0
189624,142.395,-582.156,0,0
189884,140.682,-577.547,0,0
190145,139.052,-572.905,0,0
190405,137.579,-567.987,0,0
190665,136.366,-562.981,0,0
190926,135.248,-557.822,0,0
191186,134.521,-552.326,0,0
191446,134.473,-546.848,0,0
191707,134.787,-541.959,0,0
191967,134.877,-537.464,0,0
192227,134.676,-532.915,0,0
192488,134.375,-528.012,0,0
192748,134.299,-522.738,0,0
193008,134.698,-517.289,0,0
193269,135.563,-511.94,0,0
193529,136.728,-506.834,0,0
193789,138.048,-501.98,0,0
194050,139.331,-497.316,0,0
194310,140.575,-492.589,0,0
194570,142.05,-487.688,0,0
194831,143.928,-482.908,0,0
195091,145.996,-478.458,0,0
195351,148.055,-474.257,0,0
195612,150.053,-470.1,0,0
195872,152.263,-466.008,0,0
196132,154.501,-462.16,0,0
196393,156.68,-458.375,0,0
196653,158.789,-454.567,0,0
196913,161.113,-450.77,0,0
197174,163.65,-447.164,0,0
197434,166.234,-443.878,0,0
197694,168.569,-440.865,0,0
197955,170.751,-438.008,0,0
198215,172.504,-435.096,0,0
198475,174.054,-431.853,0,0
198735,175.657,-428.322,0,0
198996,177.434,-424.671,0,0
199256,179.286,-421.044,0,0
199516,181.121,-417.283,0,0
199777,182.862,-413.302,0,0
200037,184.925,-408.964,0,0
200297,187.285,-404.588,0,0
200558,189.83,-400.283,0,0
200818,192.585,-395.884,0,0
201078,195.386,-391.545,0,0
201339,198.305,-387.074,0,0
201599,201.437,-382.356,0,0
201859,205.022,-377.615,0,0
202120,208.757,-372.935,0,0
202380.025,212.873,-368.22,0,0
202640.35,217.272,-363.558,0,0
202900.675,222.074,-358.962,0,0
203161.0,227.078,-354.599,0,0
203421.325,232.241,-350.362,0,0
203681.65,237.666,-346.229,0,0
203941.975,243.248,-342.111,0,0
204202.3,249.195,-338.107,0,0
204462.625,255.343,-334.258,0,0
204722.95,261.877,-330.298,0,0
204983.275,268.946,-326.556,0,0
205243.6,276.675,-323.093,0,0
205503.925,284.94,-320.276,0,0
205764.25,293.676,-318.335,0,0
206024.575,302.356,-317.437,0,0
206284.9,310.652,-317.467,0,0
206545.225,318.135,-318.12,0,0
206805.55,324.813,-318.806,0,0
207065.875,330.914,-319.257,0,0
207326.2,336.752,-319.217,0,0
207586.525,342.69,-318.755,0,0
207846.85,348.641,-318.172,0,0
208107.175,354.886,-317.053,0,0
208367.5,361.444,-315.664,0,0
208627.825,368.6,-313.911,0,0
208888.15,376.768,-311.957,0,0
209148.475,386.065,-310.292,0,0
209408.8,396.166,-309.374,0,0
209669.125,407.041,-309.111,0,0
209929.45,418.678,-309.551,0,0
210189.775,431.242,-311.216,0,0
210450.1,444.7,-314.277,0,0
210710.425,458.454,-320.102,0,0
210970.75,470.661,-328.27,0,0
211231.075,481.019,-337.034,0,0
211491.4,490.741,-346.174,0,0
211751.725,499.95,-356.437,0,0
212012.05,507.334,-368.081,0,0
212272.375,512.322,-379.551,0,0
212532.7,515.907,-389.713,0,0
212793.025,519.445,-398.791,0,0
213053.35,523.264,-407.897,0,0
213313.675,526.497,-417.306,0,0
213574.0,529.087,-426.371,0,0
213834.325,531.624,-435.114,0,0
214094.65,534.059,-443.895,0,0
214354.975,536.497,-452.984,0,0
214615.3,538.346,-462.573,0,0
214875.625,539.209,-472.27,0,0
215135.95,539.395,-481.508,0,0
215396.275,539.294,-490.311,0,0
215656.6,538.885,-498.795,0,0
215916.925,538.565,-506.828,0,0
216177.25,538.692,-515.092,0,0
216437.575,538.821,-524.034,0,0
216697.9,538.178,-533.862,0,0
216958.225,536.357,-543.893,0,0
217218.55,533.457,-553.624,0,0
217478.875,529.805,-562.806,0,0
217739.2,525.976,-571.485,0,0
217999.525,522.024,-580.397,0,0
218259.85,516.948,-589.965,0,0
218520,510.068,-599.186,0,0
218780,501.627,-607.114,0,0
219041,492.436,-613.26,0,0
219301,483.097,-617.686,0,0
219561,474.074,-620.894,0,0
219822,465.153,-622.954,0,0
220082,456.678,-623.881,0,0
220342,448.798,-623.787,0,0
220603,441.826,-622.923,0,0
220863,435.697,-621.65,0,0
221123,430.004,-620.087,0,0
221384,424.944,-618.1,0,0
221644,420.764,-615.658,0,0
221904,417.498,-613.275,0,0
222165,414.81,-611.089,0,0
222425,412.568,-608.903,0,0
222685,411.13,-607.046,0,0
222946,409.833,-605.818,0,0
223206,408.6,-604.78,0,0
223466,407.372,-603.796,0,0
223727,406.361,-602.905,0,0
223987,405.392,-602.274,0,0
224247,404.189,-601.737,0,0
224508,403.011,-600.941,0,0
224768,401.864,-599.861,0,0
225028,401.014,-598.393,0,0
225289,400.728,-596.665,0,0
225549,401.034,-595.021,0,0
225809,401.924,-593.478,0,0
226070,403.376,-592.341,0,0
226330,405.269,-591.639,0,0
226590,407.416,-591.568,0,0
226851,409.497,-592.064,0,0
227111,411.402,-592.799,0,0
227371,413.443,-593.543,0,0
227632,415.846,-594.605,0,0
227892,418.666,-596.2,0,0
228152,421.485,-598.648,0,0
228413,423.955,-601.744,0,0
228673,426.127,-605.285,0,0
228933,427.943,-609.324,0,0
229193,429.151,-613.788,0,0
229454,429.715,-618.315,0,0
229714,429.832,-622.485,0,0
229974,430.171,-626.423,0,0
230235,430.849,-630.64,0,0
230495,431.399,-635.795,0,0
230755,431.1,-641.548,0,0
231016,429.779,-647.228,0,0
231276,427.85,-652.428,0,0
231536,425.909,-657.136,0,0
231797,424.182,-661.762,0,0
232057,422.446,-666.737,0,0
232317,420.484,-671.95,0,0
232578,418.334,-677.569,0,0
232838,415.526,-683.648,0,0
233098,412.119,-689.816,0,0
233359,408.005,-696.272,0,0
233619,402.844,-702.969,0,0
233879,396.011,-709.331,0,0
234140,388.114,-714.397,0,0
234400,379.818,-718.209,0,0
234660.3,371.371,-721.019,0,0
234920.625,363.112,-722.946,0,0
235180.95,354.765,-724.168,0,0
235441.275,346.606,-724.348,0,0
235701.6,338.797,-723.851,0,0
235961.925,331.43,-722.848,0,0
236222.25,324.359,-721.576,0,0
236482.575,317.642,-719.827,0,0
236742.9,311.396,-717.77,0,0
237003.225,305.423,-715.855,0,0
237263.55,298.965,-713.796,0,0
237523.875,292.28,-710.787,0,0
237784.2,286.216,-706.492,0,0
238044.525,281.261,-701.731,0,0
238304.85,277.44,-696.775,0,0
238565.175,274.366,-691.888,0,0
238825.5,272.124,-687.243,0,0
239085.825,270.556,-682.941,0,0
239346.15,269.584,-679.173,0,0
239606.475,269.004,-675.794,0,0
239866.8,268.967,-673.215,0,0
240127.125,269.076,-671.485,0,0
240387.45,268.805,-670.907,0,0
240647.775,267.677,-670.776,0,0
240908.1,265.763,-670.582,0,0
241168.425,263.419,-670.343,0,0
241428.75,260.688,-670.04,0,0
241689.075,257.209,-669.454,0,0
241949.4,253.289,-668.135,0,0
242209.725,249.306,-666.039,0,0
242470.05,245.508,-663.218,0,0
242730.375,242.166,-659.752,0,0
242990.7,239.414,-655.896,0,0
243251.025,237.293,-651.987,0,0
243511.35,235.547,-648.079,0,0
243771.675,234.069,-644.023,0,0
244032.0,233.159,-639.665,0,0
244292.325,233.136,-635.327,0,0
244552.65,234.091,-631.496,0,0
244812.975,235.455,-628.749,0,0
245073.3,236.785,-626.923,0,0
245333.625,237.616,-625.769,0,0
245593.95,237.978,-624.993,0,0
245854.275,237.741,-624.204,0,0
246114.6,237.274,-623.442,0,0
246374.925,236.327,-622.579,0,0
246635.25,235.056,-621.489,0,0
246895.575,233.729,-619.918,0,0
247155.9,232.491,-618.047,0,0
247416.225,231.4,-616.125,0,0
247676.55,230.378,-614.018,0,0
247936.875,229.407,-611.9,0,0
248197.2,228.477,-609.553,0,0
248457.525,227.521,-607.089,0,0
248717.85,226.87,-604.211,0,0
248978.175,226.508,-601.38,0,0
249238.5,226.388,-598.49,0,0
249498.825,226.456,-595.527,0,0
249759.15,226.792,-592.654,0,0
250019.475,227.472,-589.706,0,0
250279.8,228.339,-586.909,0,0
250540,229.331,-584.177,0,0
250800,230.632,-581.507,0,0
251061,232.255,-578.946,0,0
251321,233.991,-576.72,0,0
251581,235.824,-574.649,0,0
251842,237.702,-572.507,0,0
252102,239.988,-570.493,0,0
252362,242.731,-568.75,0,0
252623,245.679,-567.498,0,0
252883,248.721,-566.71,0,0
253143,251.798,-566.434,0,0
253404,254.753,-566.604,0,0
253664,257.547,-567.159,0,0
253924,260.127,-568.063,0,0
254185,262.526,-569.389,0,0
254445,264.547,-571.039,0,0
254705,266.169,-572.759,0,0
254966,267.453,-574.623,0,0
255226,268.452,-576.412,0,0
255486,269.242,-578.403,0,0
255747,269.66,-580.548,0,0
256007,269.656,-582.654,0,0
256267,269.286,-584.55,0,0
256528,268.694,-586.233,0,0
256788,267.924,-587.758,0,0
257048,266.985,-589.155,0,0
257309,265.736,-590.285,0,0
257569,264.382,-591.079,0,0
257829,263.048,-591.477,0,0
258090,261.955,-591.603,0,0
258350,261.028,-591.558,0,0
258610,260.346,-591.504,0,0
258871,259.785,-591.61,0,0
259131,259.271,-591.756,0,0
259391,258.671,-592.025,0,0
259651,258.009,-592.318,0,0
259912,257.268,-592.613,0,0
260172,256.277,-592.975,0,0
260432,255.015,-592.95,0,0
260693,253.83,-592.594,0,0
260953,252.786,-592.094,0,0
261213,251.832,-591.388,0,0
261474,251.066,-590.502,0,0
261734,250.477,-589.509,0,0
261994,250.121,-588.396,0,0
262255,249.997,-587.222,0,0
262515,250.268,-585.953,0,0
262775,250.9,-584.895,0,0
263036,251.82,-584.022,0,0
263296,252.978,-583.518,0,0
263556,254.259,-583.393,0,0
263817,255.444,-583.607,0,0
264077,256.506,-584.08,0,0
264337,257.516,-584.818,0,0
264598,258.326,-585.787,0,0
264858,258.926,-586.902,0,0
265118,259.246,-588.013,0,0
265379,259.411,-589.018,0,0
265639,259.518,-590.045,0,0
265899,259.557,-591.061,0,0
266160,259.66,-591.997,0,0
266420,259.837,-593.042,0,0
266680.25,260.027,-594.285,0,0
266940.575,260.097,-595.733,0,0
267200.9,259.966,-597.438,0,0
267461.225,259.504,-599.288,0,0
267721.55,258.682,-601.117,0,0
267981.875,257.501,-602.842,0,0
268242.2,255.923,-604.36,0,0
268502.525,254.113,-605.443,0,0
268762.85,252.395,-606.16,0,0
269023.175,250.723,-606.63,0,0
269283.5,249.016,-606.898,0,0
269543.825,247.333,-606.773,0,0
269804.15,245.941,-606.233,0,0
270064.475,244.91,-605.446,0,0
270324.8,244.359,-604.478,0,0
270585.125,244.463,-603.65,0,0
270845.45,244.922,-603.027,0,0
271105.775,245.703,-602.644,0,0
271366.1,246.891,-602.506,0,0
271626.425,248.571,-602.705,0,0
271886.75,250.813,-603.621,0,0
272147.075,253.3,-605.617,0,0
272407.4,255.584,-608.839,0,0
272667.725,257.112,-613.135,0,0
272928.05,257.603,-618.028,0,0
273188.375,257.1,-623.164,0,0
273448.7,255.85,-628.376,0,0
273709.025,253.688,-633.723,0,0
273969.35,250.653,-638.955,0,0
274229.675,246.72,-643.854,0,0
274490.0,242.061,-648.373,0,0
274750.325,236.764,-652.431,0,0
275010.65,230.808,-655.955,0,0
275270.975,224.328,-658.932,0,0
275531.3,217.164,-661.008,0,0
275791.625,209.815,-662.087,0,0
276051.95,202.305,-662.254,0,0
276312.275,194.927,-661.575,0,0
276572.6,187.635,-660.096,0,0
276832.925,180.657,-657.775,0,0
277093.25,174.126,-654.688,0,0
277353.575,168.19,-650.998,0,0
277613.9,162.86,-646.878,0,0
277874.225,158.133,-642.503,0,0
278134.55,153.939,-637.899,0,0
278394.875,150.268,-633.08,0,0
278655.2,147.236,-628.155,0,0
278915.525,144.841,-623.249,0,0
279175.85,142.971,-618.564,0,0
279436.175,141.507,-614.115,0,0
279696.5,140.229,-609.952,0,0
279956.825,139.128,-605.843,0,0
280217.15,138.208,-601.784,0,0
280477.475,137.688,-597.842,0,0
280737.8,137.495,-594.164,0,0
280998.125,137.57,-590.921,0,0
281258.45,137.546,-588.103,0,0
281518.775,137.333,-585.533,0,0
281779.1,136.888,-583.021,0,0
282039.425,136.367,-580.464,0,0
282299.75,135.792,-577.846,0,0
282560,135.175,-575.128,0,0
282820,134.507,-572.472,0,0
283081,133.713,-569.523,0,0
283341,133.145,-566.268,0,0
283601,132.865,-562.759,0,0
283862,132.938,-559.257,0,0
284122,133.27,-555.755,0,0
284382,133.971,-552.467,0,0
284643,134.895,-549.22,0,0
284903,136.09,-546.108,0,0
285163,137.515,-543.256,0,0
285424,139.049,-540.795,0,0
285684,140.774,-538.588,0,0
285944,142.305,-536.643,0,0
286205,143.935,-535.041,0,0
286465,145.378,-533.539,0,0
286725,146.859,-532.276,0,0
286986,148.259,-531.126,0,0
287246,149.487,-530.138,0,0
287506,150.513,-529.358,0,0
287767,151.313,-528.772,0,0
288027,151.812,-528.015,0,0
288287,152.139,-527.24,0,0
288548,152.384,-526.278,0,0
288808,152.449,-525.092,0,0
289068,152.594,-523.789,0,0
289329,152.587,-522.324,0,0
289589,152.888,-520.734,0,0
289849,153.086,-519.086,0,0
290109,153.36,-517.313,0,0
290370,153.747,-515.179,0,0
290630,154.405,-513.097,0,0
290890,155.447,-511.025,0,0
291151,156.591,-509.057,0,0
291411,157.957,-507.326,0,0
291671,159.305,-505.66,0,0
291932,160.593,-504.141,0,0
292192,161.924,-502.568,0,0
292452,163.353,-501.105,0,0
292713,164.841,-499.626,0,0
292973,166.262,-498.216,0,0
293233,167.843,-496.861,0,0
293494,169.496,-495.49,0,0
293754,171.165,-494.208,0,0
294014,172.901,-493.041,0,0
294275,174.613,-491.886,0,0
294535,176.391,-490.714,0,0
294795,178.214,-489.581,0,0
295056,180.29,-488.364,0,0
295316,182.307,-487.421,0,0
295576,184.551,-486.423,0,0
295837,186.741,-485.603,0,0
296097,189.106,-484.839,0,0
296357,191.434,-484.1,0,0
296618,193.902,-483.412,0,0
296878,196.407,-482.841,0,0
297138,199.048,-482.363,0,0
297399,201.92,-481.95,0,0
297659,204.839,-481.817,0,0
297919,207.782,-481.815,0,0
298180,210.878,-482.068,0,0
298440,213.89,-482.478,0,0
298700.2,216.84,-483.008,0,0
298960.525,219.818,-483.63,0,0
299220.85,222.872,-484.27,0,0
299481.175,226.004,-485.098,0,0
299741.5,229.541,-485.996,0,0
300001.825,232.993,-487.265,0,0
300262.15,236.63,-488.77,0,0
300522.475,240.254,-490.593,0,0
300782.8,244.035,-492.689,0,0
301043.125,247.909,-495.302,0,0
301303.45,251.793,-498.276,0,0
301563.775,255.644,-501.764,0,0
301824.1,259.44,-505.962,0,0
302084.425,262.907,-510.832,0,0
302344.75,265.925,-516.227,0,0
302605.075,268.384,-522.095,0,0
302865.4,270.055,-528.471,0,0
303125.725,270.954,-535.04,0,0
303386.05,271.071,-541.703,0,0
303646.375,270.396,-548.26,0,0
303906.7,269.007,-554.592,0,0
304167.025,267.049,-560.549,0,0
304427.35,264.686,-566.106,0,0
304687.675,262.02,-571.343,0,0
304948.0,259.072,-576.285,0,0
305208.325,255.918,-581.063,0,0
305468.65,252.415,-585.627,0,0
305728.975,248.514,-589.876,0,0
305989.3,244.297,-593.801,0,0
306249.625,239.818,-597.267,0,0
306509.95,235.174,-600.269,0,0
306770.275,230.444,-602.834,0,0
307030.6,225.689,-604.99,0,0
307290.925,220.969,-606.801,0,0
307551.25,216.317,-608.313,0,0
307811.575,211.631,-609.58,0,0
308071.9,206.974,-610.566,0,0
308332.225,202.286,-611.303,0,0
308592.55,197.587,-611.702,0,0
308852.875,192.943,-611.782,0,0
309113.2,188.38,-611.468,0,0
309373.525,183.962,-610.84,0,0
309633.85,179.793,-609.932,0,0
309894.175,175.871,-608.734,0,0
310154.5,172.308,-607.344,0,0
310414.825,169.042,-605.948,0,0
310675.15,166.006,-604.511,0,0
310935.475,163.183,-603.136,0,0
311195.8,160.484,-601.764,0,0
311456.125,157.892,-600.435,0,0
311716.45,155.432,-599.137,0,0
311976.775,153.028,-597.856,0,0
312237.1,150.655,-596.608,0,0
312497.425,148.306,-595.361,0,0
312757.75,145.938,-594.092,0,0
313018.075,143.549,-592.751,0,0
313278.4,141.183,-591.304,0,0
313538.725,138.866,-589.733,0,0
313799.05,136.664,-588.049,0,0
314059.375,134.54,-586.311,0,0
314319.7,132.525,-584.48,0,0
314580,130.602,-582.573,0,0
314840,128.869,-580.537,0,0
315101,127.228,-578.497,0,0
315361,125.838,-576.459,0,0
315621,124.563,-574.452,0,0
315882,123.423,-572.435,0,0
316142,122.432,-570.5,0,0
316402,121.572,-568.594,0,0
316663,120.839,-566.814,0,0
316923,120.13,-565.175,0,0
317183,119.396,-563.584,0,0
317444,118.69,-562.034,0,0
317704,118.018,-560.496,0,0
317964,117.392,-558.949,0,0
318225,116.848,-557.45,0,0
318485,116.347,-556.003,0,0
318745,115.862,-554.611,0,0
319006,115.404,-553.233,0,0
319266,115.001,-551.908,0,0
319526,114.648,-550.609,0,0
319787,114.327,-549.377,0,0
320047,114.03,-548.255,0,0
320307,113.735,-547.114,0,0
320567,113.43,-546.061,0,0
320828,113.149,-545.019,0,0
321088,112.828,-544.048,0,0
321348,112.521,-543.115,0,0
321609,112.182,-542.197,0,0
321869,111.865,-541.259,0,0
322129,111.545,-540.356,0,0
322390,111.238,-539.481,0,0
322650,110.929,-538.651,0,0
322910,110.616,-537.834,0,0
323171,110.295,-537.066,0,0
323431,109.95,-536.312,0,0
323691,109.57,-535.564,0,0
323952,109.169,-534.804,0,0
324212,108.795,-534.021,0,0
324472,108.411,-533.255,0,0
324733,108.004,-532.447,0,0
324993,107.62,-531.639,0,0
325253,107.316,-530.796,0,0
325514,107.045,-529.989,0,0
325774,106.831,-529.205,0,0
326034,106.683,-528.454,0,0
326295,106.558,-527.804,0,0
326555,106.446,-527.222,0,0
326815,106.305,-526.706,0,0
327076,106.162,-526.271,0,0
327336,105.96,-525.896,0,0
327596,105.715,-525.601,0,0
327857,105.365,-525.337,0,0
328117,104.98,-525.08,0,0
328377,104.511,-524.821,0,0
328638,103.988,-524.537,0,0
328898,103.449,-524.246,0,0
329158,102.855,-523.95,0,0
329419,102.254,-523.612,0,0
329679,101.637,-523.272,0,0
329939,100.997,-522.932,0,0
330200,100.311,-522.559,0,0
330460,99.6426,-522.236,0,0
330720.15,98.9579,-521.857,0,0
330980.475,98.1787,-521.58,0,0
331240.8,97.4147,-521.294,0,0
331501.125,96.5773,-520.962,0,0
331761.45,95.6575,-520.571,0,0
332021.775,94.7667,-520.237,0,0
332282.1,93.7418,-519.829,0,0
332542.425,92.6825,-519.344,0,0
332802.75,91.6442,-518.831,0,0
333063.075,90.485,-518.234,0,0
333323.4,89.4509,-517.536,0,0
333583.725,88.299,-516.897,0,0
333844.05,87.228,-516.031,0,0
334104.375,86.1167,-515.2,0,0
334364.7,85.108,-514.35,0,0
334625.025,84.056,-513.498,0,0
334885.35,83.0532,-512.52,0,0
335145.675,82.0889,-511.543,0,0
335406.0,81.0864,-510.551,0,0
335666.325,80.054,-509.509,0,0
335926.65,79.0857,-508.475,0,0
336186.975,78.1983,-507.356,0,0
336447.3,77.2747,-506.234,0,0
336707.625,76.3999,-505.041,0,0
336967.95,75.491,-503.802,0,0
337228.275,74.6675,-502.588,0,0
337488.6,73.8221,-501.319,0,0
337748.925,73.1236,-500.016,0,0
338009.25,72.4275,-498.69,0,0
338269.575,71.7656,-497.445,0,0
338529.9,71.0928,-496.113,0,0
338790.225,70.5322,-494.787,0,0
339050.55,69.8855,-493.504,0,0
339310.875,69.3469,-492.172,0,0
339571.2,68.8725,-490.872,0,0
339831.525,68.32,-489.554,0,0
340091.85,67.7863,-488.258,0,0
340352.175,67.3248,-486.884,0,0
340612.5,66.8573,-485.584,0,0
340872.825,66.4354,-484.194,0,0
341133.15,65.9937,-482.805,0,0
341393.475,65.6361,-481.426,0,0
341653.8,65.3091,-479.946,0,0
341914.125,65.02,-478.523,0,0
342174.45,64.7525,-477.1,0,0
342434.775,64.6145,-475.658,0,0
342695.1,64.3886,-474.259,0,0
342955.425,64.2756,-472.827,0,0
343215.75,64.2392,-471.418,0,0
343476.075,64.2454,-470.065,0,0
343736.4,64.2794,-468.657,0,0
343996.725,64.333,-467.314,0,0
344257.05,64.4742,-466.049,0,0
344517.375,64.6449,-464.771,0,0
344777.7,64.8803,-463.584,0,0
345038.025,65.0698,-462.469,0,0
345298.35,65.3084,-461.395,0,0
345558.675,65.5942,-460.402,0,0
345819.0,65.8933,-459.431,0,0
346079.325,66.0298,-458.622,0,0
346339.65,66.2467,-457.793,0,0
346599.975,66.3479,-457.009,0,0
346860,66.3684,-456.335,0,0
347121,66.3477,-455.629,0,0
347381,66.3256,-454.912,0,0
347641,66.2044,-454.175,0,0
347902,65.9813,-453.392,0,0
348162,65.7721,-452.575,0,0
348422,65.5065,-451.737,0,0
348683,65.2707,-450.819,0,0
348943,64.9761,-449.765,0,0
349203,64.7331,-448.809,0,0
349464,64.5469,-447.744,0,0
349724,64.3253,-446.655,0,0
349984,64.186,-445.547,0,0
350245,64.0626,-444.483,0,0
350505,63.861,-443.38,0,0
350765,63.7492,-442.189,0,0
351025,63.6416,-440.989,0,0
351286,63.5338,-439.659,0,0
351546,63.4751,-438.348,0,0
351806,63.6039,-436.98,0,0
352067,63.808,-435.659,0,0
352327,64.0049,-434.379,0,0
352587,64.2972,-433.16,0,0
352848,64.6484,-431.912,0,0
353108,65.0921,-430.706,0,0
353368,65.4725,-429.631,0,0
353629,65.9203,-428.59,0,0
353889,66.3847,-427.539,0,0
354149,66.8947,-426.548,0,0
354410,67.3848,-425.665,0,0
354670,67.8945,-424.806,0,0
354930,68.4465,-423.961,0,0
355191,68.9822,-423.227,0,0
355451,69.4997,-422.568,0,0
355711,69.9912,-421.988,0,0
355972,70.4526,-421.501,0,0
356232,70.8329,-421.014,0,0
356492,71.1674,-420.627,0,0
356753,71.3314,-420.244,0,0
357013,71.4993,-419.858,0,0
357273,71.5167,-419.484,0,0
357534,71.4931,-419.05,0,0
357794,71.3226,-418.603,0,0
358054,71.1106,-418.063,0,0
358315,70.8595,-417.438,0,0
358575,70.5815,-416.706,0,0
358835,70.2852,-415.849,0,0
359096,70.0406,-414.897,0,0
359356,69.8541,-413.949,0,0
359616,69.7209,-412.861,0,0
359877,69.5893,-411.745,0,0
360137,69.5691,-410.643,0,0
360397,69.6114,-409.491,0,0
360658,69.7104,-408.292,0,0
360918,69.8204,-407.079,0,0
361178,70.0405,-405.849,0,0
361438,70.3392,-404.673,0,0
361699,70.6691,-403.481,0,0
361959,71.0445,-402.306,0,0
362219,71.4756,-401.191,0,0
362480,71.9664,-400.108,0,0
362740.1,72.4217,-399.05,0,0
363000.425,72.9258,-398.026,0,0
363260.75,73.4565,-397.03,0,0
363521.075,74.0224,-395.987,0,0
363781.4,74.6309,-394.974,0,0
364041.725,75.2509,-393.997,0,0
364302.05,75.9185,-393.06,0,0
364562.375,76.6551,-392.139,0,0
364822.7,77.3803,-391.295,0,0
365083.025,78.1536,-390.453,0,0
365343.35,78.949,-389.745,0,0
365603.675,79.7878,-389.044,0,0
365864.0,80.5505,-388.472,0,0
366124.325,81.3372,-387.942,0,0
366384.65,81.9888,-387.46,0,0
366644.975,82.6562,-386.958,0,0
366905.3,83.2905,-386.441,0,0
367165.625,83.9744,-385.916,0,0
367425.95,84.6056,-385.402,0,0
367686.275,85.2732,-384.946,0,0
367946.6,86.0134,-384.52,0,0
368206.925,86.6639,-384.143,0,0
368467.25,87.351,-383.777,0,0
368727.575,87.9999,-383.517,0,0
368987.9,88.6521,-383.219,0,0
369248.225,89.2563,-382.972,0,0
369508.55,89.8765,-382.807,0,0
369768.875,90.4598,-382.663,0,0
370029.2,90.9595,-382.579,0,0
370289.525,91.451,-382.628,0,0
370549.85,91.7915,-382.649,0,0
370810.175,92.0256,-382.644,0,0
371070.5,92.1837,-382.667,0,0
371330.825,92.1961,-382.611,0,0
371591.15,92.1266,-382.472,0,0
371851.475,91.9851,-382.21,0,0
372111.8,91.9068,-381.837,0,0
372372.125,91.8249,-381.355,0,0
372632.45,91.8076,-380.81,0,0
372892.775,91.8072,-380.203,0,0
373153.1,91.886,-379.57,0,0
373413.425,92.0296,-378.892,0,0
373673.75,92.2098,-378.192,0,0
373934.075,92.4774,-377.544,0,0
374194.4,92.7519,-376.871,0,0
374454.725,93.0916,-376.239,0,0
374715.05,93.48,-375.654,0,0
374975.375,93.8941,-375.083,0,0
375235.7,94.3153,-374.562,0,0
375496.025,94.7305,-374.056,0,0
375756.35,95.1004,-373.617,0,0
376016.675,95.5099,-373.229,0,0
376277.0,95.8576,-372.849,0,0
376537.325,96.1473,-372.511,0,0
376797.65,96.3722,-372.102,0,0
377057.975,96.5801,-371.692,0,0
377318.3,96.7285,-371.258,0,0
377578.625,96.8935,-370.724,0,0
377838.95,97.0812,-370.184,0,0
378099.275,97.2838,-369.592,0,0
378359.6,97.4966,-368.99,0,0
378619.925,97.759,-368.295,0,0
378880,98.0445,-367.603,0,0
379141,98.4415,-366.921,0,0
379401,98.8552,-366.272,0,0
379661,99.3057,-365.685,0,0
379922,99.757,-365.175,0,0
380182,100.193,-364.588,0,0
380442,100.59,-364.038,0,0
380703,101.019,-363.468,0,0
380963,101.377,-362.925,0,0
381223,101.804,-362.341,0,0
381483,102.256,-361.72,0,0
381744,102.748,-361.117,0,0
382004,103.234,-360.577,0,0
382264,103.767,-359.969,0,0
382525,104.297,-359.397,0,0
382785,104.88,-358.864,0,0
383045,105.413,-358.36,0,0
383306,105.98,-357.873,0,0
383566,106.55,-357.398,0,0
383826,107.071,-356.933,0,0
384087,107.588,-356.469,0,0
384347,108.118,-355.987,0,0
384607,108.666,-355.521,0,0
384868,109.271,-355.005,0,0
385128,109.821,-354.542,0,0
385388,110.403,-354.099,0,0
385649,110.991,-353.677,0,0
385909,111.572,-353.281,0,0
386169,112.137,-352.864,0,0
386430,112.644,-352.469,0,0
386690,113.16,-352.083,0,0
386950,113.627,-351.654,0,0
387211,114.106,-351.203,0,0
387471,114.515,-350.69,0,0
387731,114.947,-350.145,0,0
387992,115.382,-349.467,0,0
388252,115.908,-348.709,0,0
388512,116.563,-347.929,0,0
388773,117.298,-347.118,0,0
389033,118.193,-346.319,0,0
389293,119.156,-345.57,0,0
389554,120.227,-344.963,0,0
389814,121.31,-344.402,0,0
390074,122.389,-343.943,0,0
390335,123.462,-343.523,0,0
390595,124.527,-343.155,0,0
390855,125.642,-342.806,0,0
391116,126.725,-342.441,0,0
391376,127.917,-342.186,0,0
391636,129.045,-341.991,0,0
391896,130.2,-341.855,0,0
392157,131.289,-341.789,0,0
392417,132.36,-341.756,0,0
392677,133.378,-341.736,0,0
392938,134.372,-341.742,0,0
393198,135.308,-341.716,0,0
393458,136.207,-341.736,0,0
393719,137.067,-341.714,0,0
393979,137.871,-341.617,0,0
394239,138.707,-341.432,0,0
394500,139.591,-341.165,0,0
394760.05,140.546,-340.888,0,0
395020.375,141.578,-340.564,0,0
395280.7,142.677,-340.236,0,0
395541.025,143.858,-339.886,0,0
395801.35,145.114,-339.574,0,0
396061.675,146.483,-339.233,0,0
396322.0,147.965,-338.95,0,0
396582.325,149.557,-338.668,0,0
396842.65,151.226,-338.428,0,0
397102.975,153.026,-338.278,0,0
397363.3,155.047,-338.236,0,0
397623.625,157.122,-338.247,0,0
397883.95,159.31,-338.472,0,0
398144.275,161.695,-338.851,0,0
398404.6,164.135,-339.425,0,0
398664.925,166.675,-340.262,0,0
398925.25,169.292,-341.358,0,0
399185.575,171.921,-342.829,0,0
399445.9,174.498,-344.588,0,0
399706.225,176.891,-346.707,0,0
399966.55,179.177,-349.132,0,0
400006.6,179.543,-349.508,0,0