File: Accelerated corrosion test data/2025-10-22_09-25-28/sample_3.csv
Frequency (Hz),Impedance (ohms),Phase (Radians),Temperature (C),Humidity (%)
10000.0,251.804,-11907.1,0,0
10260.325,245.617,-11606.5,0,0
10520.65,240.223,-11321.5,0,0
10780.975,236.307,-11048.2,0,0
11041.3,229.893,-10794.1,0,0
11301.625,224.171,-10546.7,0,0
11561.95,219.416,-10310.5,0,0
11822.275,215.175,-10084.2,0,0
12082.6,212.236,-9869.12,0,0
12342.925,211.282,-9661.56,0,0
12603.25,203.724,-9465.38,0,0
12863.575,199.916,-9273.43,0,0
13123.9,200.181,-9088.08,0,0
13384.225,192.675,-8919.06,0,0
13644.55,189.521,-8748.69,0,0
13904.875,186.089,-8583.3,0,0
14165.2,185.199,-8426.8,0,0
14425.525,182.133,-8274.52,0,0
14685.8,178.896,-8127.97,0,0
14946.175,176.864,-7986.55,0,0
15206.5,174.525,-7844.36,0,0
15466.825,186.502,-7706.18,0,0
15727.15,191.808,-7604.46,0,0
15987.5,171.522,-7489.3,0,0
16247.8,168.037,-7359.76,0,0
16508.125,161.747,-7245.23,0,0
16768.45,171.009,-7125.04,0,0
17028.775,158.165,-7024.62,0,0
17289.1,164.114,-6911.1,0,0
17549.425,156.268,-6817.48,0,0
17809.75,157.059,-6712.91,0,0
18070.075,161.41,-6626.33,0,0
18330.4,152.094,-6528.68,0,0
18590.725,148.96,-6437.78,0,0
18851.05,146.256,-6346.18,0,0
19111.375,145.684,-6257.19,0,0
19371.7,145.696,-6170.96,0,0
19632.025,148.338,-6085.95,0,0
19892.35,147.135,-6011.25,0,0
20152.675,149.221,-5926.4,0,0
20413.0,166.684,-5854.36,0,0
20673.3,161.896,-5786.96,0,0
20933.65,163.932,-5730.34,0,0
21193.975,161.561,-5665.52,0,0
21454.3,145.301,-5604,0,0
21714.625,139.641,-5527.83,0,0
21974.9,144.499,-5461.89,0,0
22235.275,138.702,-5402,0,0
22495.6,135.802,-5339.67,0,0
22755.925,129.213,-5279.35,0,0
23016.25,128.401,-5219.01,0,0
23276.6,129.153,-5156.54,0,0
23536.9,129.611,-5110.46,0,0
23797.225,121.362,-5051.26,0,0
24057.55,119.51,-4993.08,0,0
24317.875,119.792,-4937.14,0,0
24578.2,116.877,-4887.3,0,0
24838.525,118.209,-4833.39,0,0
25098.85,115.466,-4785.06,0,0
25359.175,113.684,-4734.8,0,0
25619.5,113.808,-4687.09,0,0
25879.8,111.037,-4640.5,0,0
26140.1,109.006,-4592.31,0,0
26400.5,108.451,-4544.91,0,0
26660.8,108.106,-4498.83,0,0
26921.1,109.271,-4454.44,0,0
27181.4,109.367,-4414.05,0,0
27441.8,107.619,-4369.73,0,0
27702.1,108.694,-4330.4,0,0
27962.4,105.865,-4288.56,0,0
28222.7,104.18,-4245.24,0,0
28483.1,111.617,-4202.61,0,0
28743.4,115.061,-4167.8,0,0
29003.7,117.044,-4139.8,0,0
29264,108.876,-4105.09,0,0
29524.4,108.522,-4067.19,0,0
29784.7,104.946,-4031.58,0,0
30045,102.397,-3997.93,0,0
30305.3,101.623,-3959.72,0,0
30565.7,102.184,-3926.19,0,0
30826,101.787,-3893.84,0,0
31086.3,102.951,-3860.26,0,0
31346.6,99.383,-3829.97,0,0
31607,97.9927,-3795.22,0,0
31867.3,98.5857,-3760.85,0,0
32127.6,102.48,-3726.89,0,0
32387.9,111.926,-3698.96,0,0
32648.3,114.569,-3682.33,0,0
32908.6,104.335,-3657.37,0,0
33168.9,101.435,-3629.87,0,0
33429.2,99.5219,-3602.59,0,0
33689.6,93.2881,-3574.37,0,0
33949.9,90.965,-3543.8,0,0
34210.2,91.068,-3515.48,0,0
34470.5,90.1852,-3489.7,0,0
34730.9,88.0121,-3462.94,0,0
34991.2,86.3706,-3435.96,0,0
35251.5,85.7721,-3409.53,0,0
35511.8,85.1453,-3384.05,0,0
35772.2,84.3939,-3358.7,0,0
36032.5,83.7424,-3333.56,0,0
36292.8,82.703,-3309,0,0
36553.1,82.5596,-3285.03,0,0
36813.5,81.5287,-3261.4,0,0
37073.8,81.033,-3237.95,0,0
37334.1,80.2249,-3214.59,0,0
37594.4,79.8621,-3191.62,0,0
37854.8,79.4164,-3169.16,0,0
38115.1,78.963,-3147.15,0,0
38375.4,78.4456,-3125,0,0
38635.7,78.1481,-3103.52,0,0
38896.1,77.6143,-3082.27,0,0
39156.4,77.4131,-3061.08,0,0
39416.7,76.8561,-3040.73,0,0
39677,76.2599,-3020.38,0,0
39937.4,75.8944,-2999.97,0,0
40197.7,75.3096,-2980.06,0,0
40458,74.9425,-2960.26,0,0
40718.3,74.7181,-2940.45,0,0
40978.7,74.3537,-2920.92,0,0
41239,74.32,-2901.78,0,0
41499.3,74.6966,-2883.45,0,0
41759.6,74.5019,-2864.93,0,0
42020,73.9629,-2847.32,0,0
42280.275,73.6551,-2829.17,0,0
42540.6,73.3496,-2811.42,0,0
42800.925,73.1474,-2793.79,0,0
43061.25,72.8112,-2777.19,0,0
43321.575,72.0978,-2759.4,0,0
43581.9,71.8668,-2742.16,0,0
43842.225,71.8409,-2725.08,0,0
44102.55,72.2098,-2708.39,0,0
44362.875,72.3074,-2692.72,0,0
44623.2,71.6924,-2676.37,0,0
44883.525,70.9624,-2660.55,0,0
45143.85,71.2047,-2644.82,0,0
45404.175,70.7,-2629.44,0,0
45664.5,70.4836,-2613.4,0,0
45924.825,70.8817,-2597.88,0,0
46185.15,70.0143,-2583.57,0,0
46445.475,69.5439,-2568.26,0,0
46705.8,69.8606,-2552.72,0,0
46966.125,70.2236,-2538.37,0,0
47226.45,69.7338,-2524.31,0,0
47486.775,69.7569,-2509.54,0,0
47747.1,70.1469,-2495.1,0,0
48007.425,70.6196,-2482.19,0,0
48267.75,70.5439,-2468.53,0,0
48528.075,69.8136,-2455.45,0,0
48788.4,69.1251,-2442.14,0,0
49048.725,68.584,-2428.94,0,0
49309.05,67.9001,-2415.26,0,0
49569.375,67.9299,-2401.85,0,0
49829.7,67.7358,-2389.19,0,0
50090.025,67.0459,-2376.25,0,0
50350.35,66.5386,-2363.19,0,0
50610.675,66.245,-2350.18,0,0
50871.0,66.2165,-2337.38,0,0
51131.325,66.2404,-2324.7,0,0
51391.65,65.937,-2312.24,0,0
51651.975,66.1127,-2299.88,0,0
51912.3,66.0381,-2287.76,0,0
52172.625,65.8489,-2275.61,0,0
52432.95,65.9255,-2263.49,0,0
52693.275,65.9563,-2251.4,0,0
52953.6,66.2649,-2239.57,0,0
53213.925,66.8161,-2227.71,0,0
53474.25,67.588,-2216.74,0,0
53734.575,68.0149,-2205.89,0,0
53994.9,68.0619,-2194.92,0,0
54255.225,68.8904,-2183.96,0,0
54515.55,69.8584,-2174.49,0,0
54775.875,69.1383,-2165.44,0,0
55036.2,68.4748,-2154.98,0,0
55296.525,68.0134,-2145.67,0,0
55556.85,66.6572,-2135.66,0,0
55817.175,65.1089,-2125.38,0,0
56077.5,64.0283,-2114.55,0,0
56337.825,63.1984,-2104.02,0,0
56598.15,62.5073,-2093.26,0,0
56858.475,61.663,-2082.66,0,0
57118.8,61.1093,-2071.73,0,0
57379.125,60.9696,-2061.12,0,0
57639.45,60.9162,-2050.62,0,0
57899.775,61.0043,-2040.19,0,0
58160.1,61.0787,-2030.12,0,0
58420.4,60.8387,-2020.18,0,0
58680.7,60.9337,-2010.09,0,0
58941.1,61.0287,-2000.09,0,0
59201.4,61.228,-1990.16,0,0
59461.7,61.5684,-1980.51,0,0
59722,61.752,-1970.89,0,0
59982.4,62.0957,-1961.43,0,0
60242.7,62.3873,-1952.11,0,0
60503,62.5545,-1942.8,0,0
60763.3,62.8641,-1933.55,0,0
61023.7,63.1504,-1924.21,0,0
61284,63.4627,-1915.19,0,0
61544.3,63.8874,-1905.81,0,0
61804.6,64.4657,-1897.19,0,0
62065,64.7382,-1888.14,0,0
62325.3,65.4073,-1879.1,0,0
62585.6,65.9842,-1870.49,0,0
62845.9,66.379,-1861.59,0,0
63106.3,67.1708,-1852.3,0,0
63366.6,68.6128,-1843.77,0,0
63626.9,69.5777,-1835.07,0,0
63887.2,70.8573,-1826.75,0,0
64147.6,72.1194,-1817.8,0,0
64407.9,74.7854,-1809.1,0,0
64668.2,77.4531,-1801.54,0,0
64928.5,80.1271,-1794.03,0,0
65188.9,84.0012,-1787.98,0,0
65449.2,86.8743,-1782.96,0,0
65709.5,89.15,-1779.43,0,0
65969.8,91.5517,-1776.14,0,0
66230.2,91.3507,-1775.6,0,0
66490.5,85.6294,-1774.14,0,0
66750.8,80.2507,-1766.8,0,0
67011.1,77.7655,-1757.91,0,0
67271.5,75.6334,-1749.78,0,0
67531.8,74.957,-1741.34,0,0
67792.1,74.476,-1733.03,0,0
68052.4,74.8859,-1725.12,0,0
68312.8,76.1449,-1718.14,0,0
68573.1,75.996,-1711.8,0,0
68833.4,76.2202,-1704.94,0,0
69093.7,77.1626,-1698.64,0,0
69354.1,77.5099,-1693.01,0,0
69614.4,77.2084,-1687.75,0,0
69874.7,76.672,-1682.3,0,0
70135,75.8333,-1676.59,0,0
70395.4,75.0842,-1670.42,0,0
70655.7,73.9755,-1664.74,0,0
70916,72.8353,-1658.76,0,0
71176.3,71.5925,-1652.04,0,0
71436.7,70.6273,-1645.13,0,0
71697,70.1028,-1638.28,0,0
71957.3,69.9869,-1631.33,0,0
72217.6,70.3391,-1624.94,0,0
72478,70.4493,-1618.93,0,0
72738.3,70.5628,-1613.11,0,0
72998.6,70.3921,-1607.66,0,0
73258.9,69.8781,-1601.99,0,0
73519.3,69.442,-1596.27,0,0
73779.6,69.1547,-1590.67,0,0
74039.9,68.5909,-1585.26,0,0
74300.225,67.8335,-1579.68,0,0
74560.55,67.0811,-1574.03,0,0
74820.875,66.293,-1568.43,0,0
75081.2,65.5166,-1562.74,0,0
75341.525,64.7172,-1556.96,0,0
75601.85,63.852,-1551.11,0,0
75862.175,63.0815,-1545.28,0,0
76122.5,62.3304,-1539.43,0,0
76382.825,61.6893,-1533.57,0,0
76643.15,61.1102,-1527.68,0,0
76903.475,60.4658,-1521.86,0,0
77163.8,59.9949,-1516.03,0,0
77424.125,59.3835,-1510.23,0,0
77684.45,58.8173,-1504.53,0,0
77944.775,58.2567,-1498.79,0,0
78205.1,57.7552,-1492.99,0,0
78465.425,57.2687,-1487.28,0,0
78725.75,56.8161,-1481.46,0,0
78986.075,56.3376,-1475.79,0,0
79246.4,55.9193,-1470.05,0,0
79506.725,55.5482,-1464.38,0,0
79767.05,55.2052,-1458.68,0,0
80027.375,54.8582,-1453.03,0,0
80287.7,54.6653,-1447.46,0,0
80548.025,54.376,-1441.86,0,0
80808.35,54.1979,-1436.41,0,0
81068.675,53.9864,-1430.91,0,0
81329.0,53.7756,-1425.43,0,0
81589.325,53.5861,-1420,0,0
81849.65,53.4034,-1414.58,0,0
82109.975,53.2456,-1409.22,0,0
82370.3,53.1307,-1403.81,0,0
82630.625,53.011,-1398.54,0,0
82890.95,52.8907,-1393.24,0,0
83151.275,52.8192,-1388,0,0
83411.6,52.7291,-1382.84,0,0
83671.925,52.639,-1377.65,0,0
83932.25,52.6209,-1372.45,0,0
84192.575,52.5695,-1367.41,0,0
84452.9,52.5038,-1362.31,0,0
84713.225,52.4284,-1357.32,0,0
84973.55,52.3368,-1352.15,0,0
85233.875,52.3541,-1347.16,0,0
85494.2,52.3546,-1342.15,0,0
85754.525,52.3759,-1337.19,0,0
86014.85,52.4224,-1332.3,0,0
86275.175,52.4347,-1327.4,0,0
86535.5,52.3881,-1322.55,0,0
86795.825,52.4247,-1317.64,0,0
87056.15,52.4042,-1312.82,0,0
87316.475,52.4702,-1307.91,0,0
87576.8,52.6937,-1303.11,0,0
87837.125,52.8297,-1298.33,0,0
88097.45,52.8499,-1293.64,0,0
88357.775,52.9988,-1288.75,0,0
88618.1,53.055,-1283.94,0,0
88878.425,53.2658,-1279.16,0,0
89138.75,53.724,-1274.38,0,0
89399.075,54.2807,-1269.72,0,0
89659.4,54.5991,-1265.24,0,0
89919.725,55.0506,-1260.78,0,0
90180,55.3035,-1256.43,0,0
90440.4,55.8418,-1252.25,0,0
90700.7,56.1046,-1247.81,0,0
90961,56.5526,-1243.56,0,0
91221.3,56.9491,-1239.37,0,0
91481.7,57.374,-1235.23,0,0
91742,57.6459,-1231.09,0,0
92002.3,58.0932,-1227,0,0
92262.6,58.5249,-1222.81,0,0
92523,59.1756,-1218.87,0,0
92783.3,59.6244,-1215.12,0,0
93043.6,59.9672,-1211.38,0,0
93303.9,60.5361,-1207.4,0,0
93564.3,61.5443,-1204.11,0,0
93824.6,62.0526,-1200.99,0,0
94084.9,62.2504,-1198.36,0,0
94345.2,61.9398,-1195.7,0,0
94605.6,61.255,-1192.56,0,0
94865.9,60.6905,-1189.4,0,0
95126.2,59.8034,-1186.32,0,0
95386.5,58.4306,-1182.78,0,0
95646.9,57.1913,-1178.48,0,0
95907.2,56.4007,-1174.21,0,0
96167.5,55.7654,-1169.83,0,0
96427.8,55.4728,-1165.3,0,0
96688.2,55.3681,-1161.05,0,0
96948.5,55.3057,-1156.76,0,0
97208.8,55.2277,-1152.66,0,0
97469.1,55.1212,-1148.63,0,0
97729.5,55.0663,-1144.65,0,0
97989.8,55.0046,-1140.6,0,0
98250.1,54.9462,-1136.63,0,0
98510.4,55.0018,-1132.62,0,0
98770.8,55.1076,-1128.71,0,0
99031.1,55.0465,-1124.89,0,0
99291.4,54.9191,-1121.04,0,0
99551.7,54.8646,-1117.13,0,0
99812.1,54.8043,-1113.2,0,0
100072,54.781,-1109.31,0,0
100333,54.7845,-1105.39,0,0
100593,54.686,-1101.54,0,0
100853,54.5778,-1097.51,0,0
101114,54.6203,-1093.34,0,0
101374,54.7413,-1089.27,0,0
101634,54.9296,-1085.22,0,0
101895,55.2322,-1081.04,0,0
102155,55.6411,-1076.99,0,0
102415,56.1538,-1072.85,0,0
102676,57.0643,-1068.85,0,0
102936,57.8867,-1065.24,0,0
103196,58.6999,-1061.74,0,0
103457,59.3319,-1058.39,0,0
103717,59.8908,-1054.89,0,0
103977,60.7453,-1051.36,0,0
104238,61.8114,-1048.29,0,0
104498,62.597,-1045.64,0,0
104758,63.0249,-1043.07,0,0
105019,63.1125,-1040.44,0,0
105279,63.2305,-1037.45,0,0
105539,63.4244,-1034.57,0,0
105800,63.513,-1031.87,0,0
106060,63.4541,-1029.16,0,0
106320.175,63.1849,-1026.34,0,0
106580.5,62.8471,-1023.36,0,0
106840.825,62.6669,-1020.32,0,0
107101.15,62.2803,-1017.36,0,0
107361.475,61.8656,-1014.17,0,0
107621.8,61.5178,-1010.97,0,0
107882.125,61.1717,-1007.71,0,0
108142.45,60.8124,-1004.43,0,0
108402.775,60.3416,-1001.11,0,0
108663.1,59.9331,-997.599,0,0
108923.425,59.5742,-993.867,0,0
109183.75,59.4273,-990.098,0,0
109444.075,59.42,-986.41,0,0
109704.4,59.4558,-982.883,0,0
109964.725,59.4322,-979.194,0,0
110225.05,59.4651,-975.545,0,0
110485.375,59.5842,-971.783,0,0
110745.7,59.8564,-968.016,0,0
111006.025,60.4008,-964.322,0,0
111266.35,60.9156,-960.975,0,0
111526.675,61.4339,-957.515,0,0
111787.0,61.917,-954.134,0,0
112047.325,62.5097,-950.948,0,0
112307.65,62.821,-947.806,0,0
112567.975,63.1776,-944.641,0,0
112828.3,63.5689,-941.445,0,0
113088.625,63.8769,-938.278,0,0
113348.95,64.0383,-935.28,0,0
113609.275,64.3767,-932.119,0,0
113869.6,64.4955,-928.811,0,0
114129.925,64.8265,-925.598,0,0
114390.25,65.0079,-922.512,0,0
114650.575,65.2287,-919.075,0,0
114910.9,65.5301,-915.581,0,0
115171.225,65.8517,-912.184,0,0
115431.55,66.3698,-908.571,0,0
115691.875,67.0902,-905.278,0,0
115952.2,67.5611,-901.98,0,0
116212.525,68.1338,-898.489,0,0
116472.85,68.8323,-895.093,0,0
116733.175,69.7698,-891.692,0,0
116993.5,70.5515,-888.343,0,0
117253.825,71.5103,-885.011,0,0
117514.15,72.48,-881.609,0,0
117774.475,73.825,-878.072,0,0
118034.8,75.6233,-874.927,0,0
118295.125,77.3988,-872.364,0,0
118555.45,78.884,-870.131,0,0
118815.775,79.8576,-867.948,0,0
119076.1,80.8531,-865.2,0,0
119336.425,82.2722,-862.458,0,0
119596.75,84.159,-859.968,0,0
119857.075,86.2326,-858.115,0,0
120117.4,88.1939,-856.985,0,0
120377.725,89.5342,-856.636,0,0
120638.05,89.848,-856.285,0,0
120898.375,89.597,-855.648,0,0
121158.7,88.7895,-854.707,0,0
121419.025,87.5993,-853.09,0,0
121679.35,86.4701,-850.769,0,0
121939.675,85.7191,-848.003,0,0
122200.0,85.4017,-845.068,0,0
122460,85.276,-842.19,0,0
122721,85.4259,-839.209,0,0
122981,85.8215,-836.458,0,0
123241,86.2637,-833.902,0,0
123502,86.6647,-831.393,0,0
123762,87.0021,-828.979,0,0
124022,87.4192,-826.531,0,0
124283,87.851,-824.158,0,0
124543,88.2776,-821.865,0,0
124803,88.678,-819.629,0,0
125064,89.0014,-817.391,0,0
125324,89.5061,-815.131,0,0
125584,89.9432,-812.982,0,0
125845,90.3891,-811.022,0,0
126105,90.7306,-809.187,0,0
126365,90.8621,-807.407,0,0
126626,90.7982,-805.395,0,0
126886,90.7949,-803.412,0,0
127146,90.7702,-801.41,0,0
127406,90.6955,-799.334,0,0
127667,90.6371,-797.308,0,0
127927,90.4672,-795.296,0,0
128187,90.2235,-793.253,0,0
128448,89.8845,-791.114,0,0
128708,89.5255,-788.777,0,0
128968,89.2555,-786.353,0,0
129229,89.0723,-783.887,0,0
129489,88.9416,-781.495,0,0
129749,88.7683,-778.96,0,0
130010,88.6675,-776.296,0,0
130270,88.8775,-773.688,0,0
130530,89.1165,-771.305,0,0
130791,89.3928,-769.033,0,0
131051,89.6281,-766.994,0,0
131311,89.5612,-765.005,0,0
131572,89.4299,-762.942,0,0
131832,89.1265,-760.825,0,0
132092,88.7784,-758.54,0,0
132353,88.5858,-756.152,0,0
132613,88.42,-753.789,0,0
132873,88.2267,-751.546,0,0
133134,87.9516,-749.312,0,0
133394,87.6471,-746.965,0,0
133654,87.2924,-744.588,0,0
133915,86.8813,-742.122,0,0
134175,86.5169,-739.494,0,0
134435,86.3838,-736.912,0,0
134696,86.1891,-734.423,0,0
134956,85.8047,-731.927,0,0
135216,85.4784,-729.3,0,0
135477,85.1877,-726.599,0,0
135737,84.9944,-723.999,0,0
135997,84.6935,-721.352,0,0
136258,84.297,-718.739,0,0
136518,83.8068,-715.846,0,0
136778,83.5432,-712.792,0,0
137039,83.3842,-709.695,0,0
137299,83.3554,-706.578,0,0
137559,83.5526,-703.518,0,0
137819,83.8449,-700.546,0,0
138080,84.1701,-697.823,0,0
138340.125,84.3756,-695.082,0,0
138600.45,84.6592,-692.395,0,0
138860.775,84.9156,-689.949,0,0
139121.1,84.9713,-687.499,0,0
139381.425,84.9349,-685.07,0,0
139641.75,84.6959,-682.58,0,0
139902.075,84.3864,-679.778,0,0
140162.4,84.348,-676.926,0,0
140422.725,84.3169,-674.253,0,0
140683.05,84.1515,-671.615,0,0
140943.375,83.8564,-668.918,0,0
141203.7,83.4847,-666.102,0,0
141464.025,83.0866,-663.117,0,0
141724.35,82.7358,-659.978,0,0
141984.675,82.5028,-656.763,0,0
142245.0,82.3564,-653.529,0,0
142505.325,82.2072,-650.293,0,0
142765.65,82.0859,-646.981,0,0
143025.975,82.0072,-643.591,0,0
143286.3,81.9785,-640.18,0,0
143546.625,81.9991,-636.765,0,0
143806.95,82.0619,-633.288,0,0
144067.275,82.0961,-629.75,0,0
144327.6,82.2786,-626.172,0,0
144587.925,82.4597,-622.527,0,0
144848.25,82.8054,-618.888,0,0
145108.575,83.1894,-615.231,0,0
145368.9,83.6361,-611.651,0,0
145629.225,84.008,-608.106,0,0
145889.55,84.2997,-604.427,0,0
146149.875,84.6716,-600.558,0,0
146410.2,85.2925,-596.647,0,0
146670.525,85.9825,-592.885,0,0
146930.85,86.5937,-589.056,0,0
147191.175,87.296,-585.13,0,0
147451.5,88.076,-581.152,0,0
147711.825,88.9601,-577.126,0,0
147972.15,89.9908,-573.12,0,0
148232.475,91.0995,-569.169,0,0
148492.8,92.1986,-565.206,0,0
148753.125,93.3059,-561.164,0,0
149013.45,94.5531,-557.018,0,0
149273.775,95.9387,-552.744,0,0
149534.1,97.5704,-548.472,0,0
149794.425,99.4737,-544.249,0,0
150054.75,101.573,-540.22,0,0
150315.075,103.735,-536.352,0,0
150575.4,105.91,-532.543,0,0
150835.725,108.211,-528.832,0,0
151096.05,110.595,-525.242,0,0
151356.375,113.03,-521.737,0,0
151616.7,115.581,-518.363,0,0
151877.025,118.248,-515.194,0,0
152137.35,120.843,-512.332,0,0
152397.675,123.247,-509.593,0,0
152658.0,125.498,-506.904,0,0
152918.325,127.64,-504.141,0,0
153178.65,129.842,-501.383,0,0
153438.975,131.951,-498.779,0,0
153699.3,133.904,-496.098,0,0
153959.625,135.84,-493.281,0,0
154219.95,137.88,-490.507,0,0
154480,139.835,-487.867,0,0
154741,141.491,-485.165,0,0
155001,143.121,-481.921,0,0
155261,145.094,-478.586,0,0
155522,147.34,-475.431,0,0
155782,149.601,-472.394,0,0
156042,151.689,-469.351,0,0
156303,153.755,-466.311,0,0
156563,155.692,-462.99,0,0
156823,157.942,-459.159,0,0
157084,161.042,-455.312,0,0
157344,164.626,-452.338,0,0
157604,168.033,-449.821,0,0
157864,171.379,-447.686,0,0
158125,174.254,-446.212,0,0
158385,176.287,-444.842,0,0
158645,177.597,-443.045,0,0
158906,178.732,-440.765,0,0
159166,179.403,-438.184,0,0
159426,179.818,-434.427,0,0
159687,181.014,-429.976,0,0
159947,182.346,-425.419,0,0
160207,184.3,-419.961,0,0
160468,187.452,-414.717,0,0
160728,190.72,-410.133,0,0
160988,193.626,-405.557,0,0
161249,196.414,-400.157,0,0
161509,200.384,-394.137,0,0
161769,205.433,-388.733,0,0
162030,210.584,-383.979,0,0
162290,215.344,-379.389,0,0
162550,220.345,-374.106,0,0
162811,226.057,-368.867,0,0
163071,232.327,-363.501,0,0
163331,239.336,-358.297,0,0
163592,247.02,-352.987,0,0
163852,255.905,-348.133,0,0
164112,265.589,-344.386,0,0
164373,275.619,-341.575,0,0
164633,285.662,-339.51,0,0
164893,295.952,-337.988,0,0
165154,306.701,-337.164,0,0
165414,317.838,-337.372,0,0
165674,329.001,-338.714,0,0
165935,339.77,-341.252,0,0
166195,350.359,-344.276,0,0
166455,361.305,-348.515,0,0
166716,371.418,-354.702,0,0
166976,379.913,-361.908,0,0
167236,386.676,-369.073,0,0
167497,393.028,-375.967,0,0
167757,398.771,-383.398,0,0
168017,403.493,-390.828,0,0
168277,407.599,-397.998,0,0
168538,410.906,-405.656,0,0
168798,413.187,-412.683,0,0
169058,415.715,-419.336,0,0
169319,417.766,-426.741,0,0
169579,418.465,-434.383,0,0
169839,417.819,-441.686,0,0
170100,415.818,-447.816,0,0
170360.075,413.327,-452.237,0,0
170620.4,411.238,-455.291,0,0
170880.725,410.173,-457.908,0,0
171141.05,409.01,-460.609,0,0
171401.375,407.763,-462.329,0,0
171661.7,407.55,-463.669,0,0
171922.025,407.421,-465.36,0,0
172182.35,407.19,-466.483,0,0
172442.675,407.818,-466.908,0,0
172703.0,409.749,-467.693,0,0
172963.325,412.282,-469.739,0,0
173223.65,414.311,-472.999,0,0
173483.975,415.207,-476.616,0,0
173744.3,415.164,-479.511,0,0
174004.625,415.319,-481.44,0,0
174264.95,416.442,-482.854,0,0
174525.275,418.749,-485.029,0,0
174785.6,420.888,-489.008,0,0
175045.925,421.379,-493.22,0,0
175306.25,421.842,-496.055,0,0
175566.575,423.673,-499.302,0,0
175826.9,425.617,-504.293,0,0
176087.225,426.354,-510.526,0,0
176347.55,425.882,-517.224,0,0
176607.875,424.022,-524.428,0,0
176868.2,420.004,-531.598,0,0
177128.525,414.019,-537.403,0,0
177388.85,407.158,-541.053,0,0
177649.175,400.694,-542.83,0,0
177909.5,394.783,-543.996,0,0
178169.825,388.603,-544.581,0,0
178430.15,382.118,-543.809,0,0
178690.475,376.384,-541.062,0,0
178950.8,372.387,-537.474,0,0
179211.125,369.789,-533.866,0,0
179471.45,368.275,-530.874,0,0
179731.775,366.832,-528.251,0,0
179992.1,365.854,-525.379,0,0
180252.425,365.787,-522.792,0,0
180512.75,365.87,-520.896,0,0
180773.075,366.174,-518.935,0,0
181033.4,366.886,-517.233,0,0
181293.725,368.077,-515.991,0,0
181554.05,369.589,-515.536,0,0
181814.375,370.95,-516.025,0,0
182074.7,371.686,-517.068,0,0
182335.025,371.878,-518.16,0,0
182595.35,372.072,-519.44,0,0
182855.675,371.71,-521.266,0,0
183116.0,370.727,-523.124,0,0
183376.325,369.256,-525.314,0,0
183636.65,366.307,-527.432,0,0
183896.975,362.536,-528.289,0,0
184157.3,358.881,-528.059,0,0
184417.625,355.917,-527.3,0,0
184677.95,352.873,-526.995,0,0
184938.275,349.091,-526.206,0,0
185198.6,345.189,-524.527,0,0
185458.925,341.565,-522.146,0,0
185719.25,338.092,-519.359,0,0
185979.575,334.669,-515.776,0,0
186239.9,331.945,-511.326,0,0
186500,330.303,-506.451,0,0
186761,329.7,-501.771,0,0
187021,329.744,-497.69,0,0
187281,329.781,-494.198,0,0
187542,329.689,-490.728,0,0
187802,329.754,-487.245,0,0
188062,330.019,-483.941,0,0
188322,330.108,-480.84,0,0
188583,330.049,-477.644,0,0
188843,329.85,-474.042,0,0
189103,329.967,-469.912,0,0
189364,330.786,-465.507,0,0
189624,332.188,-461.256,0,0
189884,334.116,-457.303,0,0
190145,336.303,-453.832,0,0
190405,338.56,-450.901,0,0
190665,340.615,-448.43,0,0
190926,342.205,-446.023,0,0
191186,343.466,-443.258,0,0
191446,345.097,-440.302,0,0
191707,346.788,-437.493,0,0
191967,348.298,-434.701,0,0
192227,349.768,-431.638,0,0
192488,351.195,-428.273,0,0
192748,352.905,-424.419,0,0
193008,355.204,-420.354,0,0
193269,358.099,-416.366,0,0
193529,361.35,-412.616,0,0
193789,364.832,-409.006,0,0
194050,368.504,-405.543,0,0
194310,372.558,-402.048,0,0
194570,376.998,-398.924,0,0
194831,381.437,-396.05,0,0
195091,385.993,-393.063,0,0
195351,391.199,-389.929,0,0
195612,397.287,-387.089,0,0
195872,404.431,-385.262,0,0
196132,411.674,-384.821,0,0
196393,418.344,-385.599,0,0
196653,424.325,-387.015,0,0
196913,429.685,-388.889,0,0
197174,434.293,-391.151,0,0
197434,438.23,-393.59,0,0
197694,441.359,-396.027,0,0
197955,443.887,-398.048,0,0
198215,445.948,-399.662,0,0
198475,447.927,-400.973,0,0
198735,449.56,-402.098,0,0
198996,451.117,-402.686,0,0
199256,452.84,-402.812,0,0
199516,454.711,-402.888,0,0
199777,456.508,-402.917,0,0
200037,458.074,-402.878,0,0
200297,459.499,-402.408,0,0
200558,460.619,-401.433,0,0
200818,462.096,-399.476,0,0
201078,464.355,-396.952,0,0
201339,467.467,-394.395,0,0
201599,471.152,-391.894,0,0
201859,475.559,-389.388,0,0
202120,480.743,-387.15,0,0
202380.025,486.803,-385.541,0,0
202640.35,493.235,-385.255,0,0
202900.675,498.991,-386.031,0,0
203161.0,503.879,-386.514,0,0
203421.325,509.049,-386.518,0,0
203681.65,514.999,-386.624,0,0
203941.975,521.389,-387.233,0,0
204202.3,528.063,-389.074,0,0
204462.625,534.333,-392.082,0,0
204722.95,539.355,-395.654,0,0
204983.275,543.625,-399.181,0,0
205243.6,547.327,-402.803,0,0
205503.925,550.174,-406.154,0,0
205764.25,552.571,-408.973,0,0
206024.575,554.419,-411.377,0,0
206284.9,555.599,-412.797,0,0
206545.225,556.947,-412.337,0,0
206805.55,559.955,-410.751,0,0
207065.875,564.443,-409.368,0,0
207326.2,569.955,-408.682,0,0
207586.525,575.771,-408.624,0,0
207846.85,581.989,-408.666,0,0
208107.175,589.152,-409.105,0,0
208367.5,597,-410.65,0,0
208627.825,604.651,-413.402,0,0
208888.15,611.934,-416.832,0,0
209148.475,618.713,-420.603,0,0
209408.8,625.192,-424.596,0,0
209669.125,631.811,-428.77,0,0
209929.45,638.403,-433.425,0,0
210189.775,644.879,-438.591,0,0
210450.1,650.971,-444.067,0,0
210710.425,656.754,-449.757,0,0
210970.75,662.554,-455.748,0,0
211231.075,668.168,-462.052,0,0
211491.4,673.402,-468.675,0,0
211751.725,678.182,-475.392,0,0
212012.05,682.889,-482.103,0,0
212272.375,687.468,-488.967,0,0
212532.7,692.239,-496.179,0,0
212793.025,697.007,-503.489,0,0
213053.35,701.708,-511.744,0,0
213313.675,705.747,-520.771,0,0
213574.0,708.881,-530.21,0,0
213834.325,710.994,-539.522,0,0
214094.65,712.501,-548.45,0,0
214354.975,713.678,-556.873,0,0
214615.3,715.154,-564.902,0,0
214875.625,716.483,-573.102,0,0
215135.95,718.081,-581.629,0,0
215396.275,719.264,-590.424,0,0
215656.6,719.94,-599.515,0,0
215916.925,719.987,-608.586,0,0
216177.25,719.923,-617.662,0,0
216437.575,719.296,-626.742,0,0
216697.9,718.302,-635.387,0,0
216958.225,717.176,-644.027,0,0
217218.55,715.679,-652.654,0,0
217478.875,714.024,-660.938,0,0
217739.2,712.391,-669.599,0,0
217999.525,710.22,-678.167,0,0
218259.85,707.596,-686.775,0,0
218520,704.6,-694.93,0,0
218780,701.317,-702.679,0,0
219041,698.054,-710.273,0,0
219301,694.721,-717.541,0,0
219561,691.412,-724.681,0,0
219822,688.13,-731.558,0,0
220082,685.147,-738.7,0,0
220342,682.21,-746.024,0,0
220603,679.098,-753.865,0,0
220863,675.505,-762.033,0,0
221123,671.541,-770.193,0,0
221384,666.809,-778.955,0,0
221644,661.715,-787.876,0,0
221904,655.368,-796.79,0,0
222165,647.774,-805.202,0,0
222425,639.244,-812.923,0,0
222685,630.319,-819.622,0,0
222946,620.711,-825.559,0,0
223206,610.562,-830.269,0,0
223466,600.533,-833.35,0,0
223727,591.132,-835.401,0,0
223987,582.411,-836.81,0,0
224247,574.264,-837.649,0,0
224508,566.547,-838.132,0,0
224768,559.43,-837.965,0,0
225028,553.306,-837.446,0,0
225289,547.941,-836.848,0,0
225549,543.219,-836.463,0,0
225809,539.03,-836.653,0,0
226070,535.174,-837.194,0,0
226330,531.506,-837.991,0,0
226590,528.112,-839.216,0,0
226851,524.84,-840.816,0,0
227111,521.42,-843.134,0,0
227371,517.603,-846.127,0,0
227632,512.797,-849.256,0,0
227892,507.347,-851.998,0,0
228152,501.513,-853.895,0,0
228413,496.135,-855.336,0,0
228673,490.954,-856.717,0,0
228933,485.686,-857.943,0,0
229193,480.636,-859.195,0,0
229454,475.535,-860.499,0,0
229714,470.626,-861.756,0,0
229974,465.396,-863.224,0,0
230235,459.834,-864.792,0,0
230495,454.161,-865.921,0,0
230755,448.295,-866.9,0,0
231016,442.317,-867.233,0,0
231276,436.521,-867.487,0,0
231536,430.803,-867.526,0,0
231797,425.272,-867.28,0,0
232057,419.863,-866.858,0,0
232317,414.708,-866.296,0,0
232578,409.725,-865.837,0,0
232838,404.817,-865.354,0,0
233098,399.928,-864.924,0,0
233359,394.95,-864.283,0,0
233619,390.214,-863.589,0,0
233879,385.432,-862.87,0,0
234140,380.957,-862.098,0,0
234400,376.495,-861.431,0,0
234660.3,372.185,-860.848,0,0
234920.625,367.666,-860.314,0,0
235180.95,363.153,-859.814,0,0
235441.275,358.486,-859.318,0,0
235701.6,353.471,-858.837,0,0
235961.925,348.47,-858.13,0,0
236222.25,343.247,-857.009,0,0
236482.575,338.252,-855.747,0,0
236742.9,333.384,-854.281,0,0
237003.225,328.476,-852.78,0,0
237263.55,323.645,-851.304,0,0
237523.875,318.689,-849.624,0,0
237784.2,313.765,-847.73,0,0
238044.525,308.914,-845.565,0,0
238304.85,304.207,-843.163,0,0
238565.175,299.607,-840.636,0,0
238825.5,295.172,-838.182,0,0
239085.825,290.873,-835.429,0,0
239346.15,286.57,-832.675,0,0
239606.475,282.573,-829.654,0,0
239866.8,278.57,-826.414,0,0
240127.125,274.786,-823.356,0,0
240387.45,271.399,-820.412,0,0
240647.775,267.691,-817.282,0,0
240908.1,263.946,-813.895,0,0
241168.425,260.506,-810.277,0,0
241428.75,257.282,-806.352,0,0
241689.075,254.421,-802.42,0,0
241949.4,251.932,-798.292,0,0
242209.725,249.759,-794.32,0,0
242470.05,248.094,-790.408,0,0
242730.375,246.446,-786.648,0,0
242990.7,245.343,-783.123,0,0
243251.025,244.455,-780.05,0,0
243511.35,243.304,-777.363,0,0
243771.675,242.151,-774.84,0,0
244032.0,240.843,-772.537,0,0
244292.325,239.269,-770.129,0,0
244552.65,237.635,-767.813,0,0
244812.975,235.776,-765.141,0,0
245073.3,234.499,-762.458,0,0
245333.625,232.818,-759.796,0,0
245593.95,231.392,-757.011,0,0
245854.275,230.15,-754.193,0,0
246114.6,229.059,-751.562,0,0
246374.925,228.005,-748.774,0,0
246635.25,227.04,-746.213,0,0
246895.575,226.097,-743.696,0,0
247155.9,225.051,-741.265,0,0
247416.225,224.058,-738.681,0,0
247676.55,223.019,-736.136,0,0
247936.875,222.178,-733.479,0,0
248197.2,221.504,-730.726,0,0
248457.525,221.025,-727.921,0,0
248717.85,220.899,-725.269,0,0
248978.175,220.993,-722.831,0,0
249238.5,221.18,-720.818,0,0
249498.825,221.223,-719.192,0,0
249759.15,220.976,-717.676,0,0
250019.475,220.759,-716.149,0,0
250279.8,220.443,-714.674,0,0
250540,220.169,-713.37,0,0
250800,219.641,-712.204,0,0
251061,218.872,-710.99,0,0
251321,218.075,-709.762,0,0
251581,217.159,-708.5,0,0
251842,216.137,-707.199,0,0
252102,214.949,-705.828,0,0
252362,213.646,-704.427,0,0
252623,212.207,-702.74,0,0
252883,210.871,-700.872,0,0
253143,209.495,-698.99,0,0
253404,208.061,-696.935,0,0
253664,206.608,-694.734,0,0
253924,205.162,-692.182,0,0
254185,203.989,-689.444,0,0
254445,203.005,-686.602,0,0
254705,202.152,-683.651,0,0
254966,201.441,-680.674,0,0
255226,200.998,-677.617,0,0
255486,200.536,-674.393,0,0
255747,200.483,-671.039,0,0
256007,200.596,-667.635,0,0
256267,201.226,-664.239,0,0
256528,202.189,-661.07,0,0
256788,203.287,-658.225,0,0
257048,204.461,-655.364,0,0
257309,205.847,-652.773,0,0
257569,207.221,-650.26,0,0
257829,208.684,-647.823,0,0
258090,210.31,-645.494,0,0
258350,212.067,-643.267,0,0
258610,213.885,-641.101,0,0
258871,216,-639.229,0,0
259131,218.156,-637.19,0,0
259391,220.617,-635.401,0,0
259651,223.373,-633.807,0,0
259912,226.363,-632.507,0,0
260172,229.528,-631.64,0,0
260432,232.992,-631.063,0,0
260693,236.628,-631.04,0,0
260953,240.355,-631.744,0,0
261213,243.95,-633.207,0,0
261474,247.052,-635.492,0,0
261734,249.412,-638.172,0,0
261994,251.188,-640.998,0,0
262255,252.531,-643.904,0,0
262515,253.362,-647.005,0,0
262775,253.652,-650.023,0,0
263036,253.494,-652.967,0,0
263296,253.004,-655.729,0,0
263556,252.137,-658.393,0,0
263817,251.012,-660.886,0,0
264077,249.526,-663.078,0,0
264337,248.04,-665.183,0,0
264598,246.324,-667.066,0,0
264858,244.499,-668.767,0,0
265118,242.435,-670.524,0,0
265379,240.132,-672.234,0,0
265639,237.62,-673.634,0,0
265899,234.769,-674.839,0,0
266160,231.753,-675.677,0,0
266420,228.598,-676.093,0,0
266680.25,225.415,-676.241,0,0
266940.575,222.161,-675.905,0,0
267200.9,219.036,-675.234,0,0
267461.225,216.159,-674.257,0,0
267721.55,213.435,-673.078,0,0
267981.875,210.872,-671.808,0,0
268242.2,208.383,-670.391,0,0
268502.525,206.017,-668.709,0,0
268762.85,203.786,-666.922,0,0
269023.175,201.897,-664.858,0,0
269283.5,200.256,-662.835,0,0
269543.825,198.714,-660.75,0,0
269804.15,197.411,-658.704,0,0
270064.475,196.123,-656.506,0,0
270324.8,195.231,-654.382,0,0
270585.125,194.461,-652.282,0,0
270845.45,193.898,-650.198,0,0
271105.775,193.5,-648.335,0,0
271366.1,193.128,-646.646,0,0
271626.425,192.66,-644.962,0,0
271886.75,192.306,-643.287,0,0
272147.075,192.016,-641.758,0,0
272407.4,191.518,-640.383,0,0
272667.725,190.981,-638.821,0,0
272928.05,190.442,-637.188,0,0
273188.375,189.952,-635.376,0,0
273448.7,189.614,-633.473,0,0
273709.025,189.451,-631.554,0,0
273969.35,189.455,-629.57,0,0
274229.675,189.621,-627.738,0,0
274490.0,189.788,-625.883,0,0
274750.325,190.024,-624.011,0,0
275010.65,190.537,-622.035,0,0
275270.975,191.182,-620.088,0,0
275531.3,192.07,-618.267,0,0
275791.625,193.125,-616.621,0,0
276051.95,194.327,-615.057,0,0
276312.275,195.673,-613.624,0,0
276572.6,197.174,-612.452,0,0
276832.925,198.775,-611.497,0,0
277093.25,200.374,-610.797,0,0
277353.575,201.948,-610.319,0,0
277613.9,203.578,-609.957,0,0
277874.225,205.188,-609.808,0,0
278134.55,206.841,-609.822,0,0
278394.875,208.491,-610.11,0,0
278655.2,210.051,-610.702,0,0
278915.525,211.428,-611.521,0,0
279175.85,212.718,-612.593,0,0
279436.175,213.745,-613.784,0,0
279696.5,214.653,-615.185,0,0
279956.825,215.248,-616.645,0,0
280217.15,215.563,-618.349,0,0
280477.475,215.54,-619.98,0,0
280737.8,215.253,-621.531,0,0
280998.125,214.892,-623.036,0,0
281258.45,214.267,-624.509,0,0
281518.775,213.441,-625.94,0,0
281779.1,212.399,-627.262,0,0
282039.425,211.174,-628.388,0,0
282299.75,209.883,-629.362,0,0
282560,208.505,-630.196,0,0
282820,207.077,-630.894,0,0
283081,205.566,-631.465,0,0
283341,203.995,-631.874,0,0
283601,202.426,-632.151,0,0
283862,200.832,-632.32,0,0
284122,199.242,-632.357,0,0
284382,197.652,-632.395,0,0
284643,196.008,-632.187,0,0
284903,194.521,-631.834,0,0
285163,192.926,-631.414,0,0
285424,191.549,-630.889,0,0
285684,190.15,-630.348,0,0
285944,188.791,-629.726,0,0
286205,187.501,-629.023,0,0
286465,186.264,-628.188,0,0
286725,185.157,-627.343,0,0
286986,184.113,-626.456,0,0
287246,183.135,-625.582,0,0
287506,182.216,-624.663,0,0
287767,181.416,-623.713,0,0
288027,180.638,-622.777,0,0
288287,179.886,-621.815,0,0
288548,179.294,-620.741,0,0
288808,178.864,-619.721,0,0
289068,178.563,-618.773,0,0
289329,178.346,-617.95,0,0
289589,178.189,-617.328,0,0
289849,178.099,-616.815,0,0
290109,177.88,-616.445,0,0
290370,177.587,-616.16,0,0
290630,177.157,-615.96,0,0
290890,176.748,-615.775,0,0
291151,176.184,-615.6,0,0
291411,175.463,-615.474,0,0
291671,174.679,-615.269,0,0
291932,173.738,-615.009,0,0
292192,172.694,-614.595,0,0
292452,171.635,-613.984,0,0
292713,170.594,-613.211,0,0
292973,169.676,-612.315,0,0
293233,168.832,-611.359,0,0
293494,168.102,-610.269,0,0
293754,167.437,-609.11,0,0
294014,166.936,-607.908,0,0
294275,166.682,-606.632,0,0
294535,166.6,-605.412,0,0
294795,166.749,-604.29,0,0
295056,167.038,-603.313,0,0
295316,167.385,-602.561,0,0
295576,167.813,-601.925,0,0
295837,168.205,-601.515,0,0
296097,168.612,-601.248,0,0
296357,168.954,-601.131,0,0
296618,169.202,-601.151,0,0
296878,169.361,-601.254,0,0
297138,169.393,-601.468,0,0
297399,169.354,-601.712,0,0
297659,169.212,-601.997,0,0
297919,168.953,-602.301,0,0
298180,168.641,-602.608,0,0
298440,168.257,-602.917,0,0
298700.2,167.793,-603.217,0,0
298960.525,167.268,-603.562,0,0
299220.85,166.641,-603.911,0,0
299481.175,165.941,-604.291,0,0
299741.5,165.084,-604.584,0,0
300001.825,164.197,-604.843,0,0
300262.15,163.256,-605.09,0,0
300522.475,162.226,-605.274,0,0
300782.8,161.134,-605.392,0,0
301043.125,159.976,-605.45,0,0
301303.45,158.77,-605.46,0,0
301563.775,157.54,-605.318,0,0
301824.1,156.256,-605.168,0,0
302084.425,154.968,-604.91,0,0
302344.75,153.634,-604.527,0,0
302605.075,152.38,-604.069,0,0
302865.4,151.175,-603.511,0,0
303125.725,149.99,-602.946,0,0
303386.05,148.839,-602.35,0,0
303646.375,147.706,-601.701,0,0
303906.7,146.598,-601.035,0,0
304167.025,145.461,-600.323,0,0
304427.35,144.395,-599.561,0,0
304687.675,143.339,-598.725,0,0
304948.0,142.322,-597.885,0,0
305208.325,141.443,-596.969,0,0
305468.65,140.528,-596.056,0,0
305728.975,139.708,-595.151,0,0
305989.3,138.871,-594.225,0,0
306249.625,138.073,-593.327,0,0
306509.95,137.308,-592.325,0,0
306770.275,136.59,-591.385,0,0
307030.6,135.935,-590.392,0,0
307290.925,135.341,-589.385,0,0
307551.25,134.795,-588.427,0,0
307811.575,134.241,-587.464,0,0
308071.9,133.796,-586.497,0,0
308332.225,133.404,-585.551,0,0
308592.55,133.041,-584.667,0,0
308852.875,132.739,-583.809,0,0
309113.2,132.482,-583.054,0,0
309373.525,132.227,-582.309,0,0
309633.85,131.997,-581.628,0,0
309894.175,131.746,-581.063,0,0
310154.5,131.465,-580.541,0,0
310414.825,131.142,-580.138,0,0
310675.15,130.787,-579.722,0,0
310935.475,130.32,-579.377,0,0
311195.8,129.784,-579.038,0,0
311456.125,129.132,-578.734,0,0
311716.45,128.438,-578.374,0,0
311976.775,127.653,-577.952,0,0
312237.1,126.794,-577.491,0,0
312497.425,125.905,-576.955,0,0
312757.75,124.922,-576.345,0,0
313018.075,123.951,-575.633,0,0
313278.4,122.972,-574.765,0,0
313538.725,122.045,-573.831,0,0
313799.05,121.108,-572.806,0,0
314059.375,120.314,-571.686,0,0
314319.7,119.553,-570.515,0,0
314580,118.855,-569.307,0,0
314840,118.232,-568.077,0,0
315101,117.833,-566.777,0,0
315361,117.348,-565.342,0,0
315621,117.109,-564.172,0,0
315882,116.909,-562.897,0,0
316142,116.848,-561.652,0,0
316402,116.778,-560.494,0,0
316663,116.819,-559.468,0,0
316923,116.838,-558.472,0,0
317183,116.916,-557.527,0,0
317444,116.912,-556.604,0,0
317704,117.049,-555.757,0,0
317964,117.116,-554.936,0,0
318225,117.261,-554.07,0,0
318485,117.259,-553.37,0,0
318745,117.44,-552.65,0,0
319006,117.533,-552.07,0,0
319266,117.554,-551.516,0,0
319526,117.602,-550.996,0,0
319787,117.568,-550.394,0,0
320047,117.453,-549.862,0,0
320307,117.44,-549.239,0,0
320567,117.312,-548.453,0,0
320828,117.383,-547.82,0,0
321088,117.459,-547.063,0,0
321348,117.619,-546.369,0,0
321609,117.921,-545.802,0,0
321869,118.215,-545.247,0,0
322129,118.595,-544.828,0,0
322390,119.011,-544.423,0,0
322650,119.322,-544.172,0,0
322910,119.702,-544.086,0,0
323171,120.002,-544.103,0,0
323431,120.285,-544.129,0,0
323691,120.423,-544.365,0,0
323952,120.46,-544.612,0,0
324212,120.453,-544.869,0,0
324472,120.32,-545.186,0,0
324733,120.072,-545.529,0,0
324993,119.767,-545.887,0,0
325253,119.286,-546.114,0,0
325514,118.79,-546.45,0,0
325774,118.18,-546.65,0,0
326034,117.504,-546.901,0,0
326295,116.791,-547.033,0,0
326555,115.972,-547.214,0,0
326815,115.094,-547.235,0,0
327076,114.207,-547.305,0,0
327336,113.286,-547.13,0,0
327596,112.287,-546.96,0,0
327857,111.301,-546.782,0,0
328117,110.332,-546.441,0,0
328377,109.394,-546.104,0,0
328638,108.408,-545.741,0,0
328898,107.55,-545.235,0,0
329158,106.649,-544.795,0,0
329419,105.809,-544.233,0,0
329679,104.92,-543.8,0,0
329939,104.121,-543.343,0,0
330200,103.288,-542.826,0,0
330460,102.396,-542.334,0,0
330720.15,101.653,-541.78,0,0
330980.475,100.667,-541.231,0,0
331240.8,99.837,-540.722,0,0
331501.125,98.9196,-540.092,0,0
331761.45,98.0581,-539.455,0,0
332021.775,97.1213,-538.862,0,0
332282.1,96.2334,-538.158,0,0
332542.425,95.3522,-537.395,0,0
332802.75,94.4392,-536.669,0,0
333063.075,93.5466,-535.814,0,0
333323.4,92.6864,-535.043,0,0
333583.725,91.8205,-534.181,0,0
333844.05,90.9819,-533.35,0,0
334104.375,90.0955,-532.408,0,0
334364.7,89.2445,-531.45,0,0
334625.025,88.4545,-530.379,0,0
334885.35,87.6475,-529.382,0,0
335145.675,86.8168,-528.321,0,0
335406.0,86.0408,-527.18,0,0
335666.325,85.3374,-526.114,0,0
335926.65,84.5855,-524.944,0,0
336186.975,83.9788,-523.708,0,0
336447.3,83.3793,-522.388,0,0
336707.625,82.9916,-521.222,0,0
336967.95,82.4812,-519.935,0,0
337228.275,82.0284,-518.679,0,0
337488.6,81.6377,-517.473,0,0
337748.925,81.2595,-516.264,0,0
338009.25,80.9622,-515.105,0,0
338269.575,80.6068,-513.894,0,0
338529.9,80.3225,-512.804,0,0
338790.225,79.9212,-511.624,0,0
339050.55,79.5672,-510.365,0,0
339310.875,79.2529,-509.063,0,0
339571.2,78.9447,-507.74,0,0
339831.525,78.7772,-506.318,0,0
340091.85,78.6195,-504.952,0,0
340352.175,78.5398,-503.525,0,0
340612.5,78.5692,-502.159,0,0
340872.825,78.7218,-500.795,0,0
341133.15,78.8872,-499.409,0,0
341393.475,79.1736,-498.068,0,0
341653.8,79.5257,-496.823,0,0
341914.125,80.0602,-495.571,0,0
342174.45,80.571,-494.363,0,0
342434.775,81.1385,-493.433,0,0
342695.1,81.726,-492.526,0,0
342955.425,82.3139,-491.723,0,0
343215.75,82.887,-491.042,0,0
343476.075,83.4614,-490.452,0,0
343736.4,84.0146,-489.959,0,0
343996.725,84.4976,-489.52,0,0
344257.05,84.8977,-489.106,0,0
344517.375,85.2482,-488.768,0,0
344777.7,85.5492,-488.549,0,0
345038.025,85.7518,-488.193,0,0
345298.35,85.8799,-487.992,0,0
345558.675,85.9058,-487.786,0,0
345819.0,85.9567,-487.509,0,0
346079.325,85.942,-487.289,0,0
346339.65,85.8037,-486.976,0,0
346599.975,85.692,-486.66,0,0
346860,85.5206,-486.353,0,0
347121,85.2632,-485.985,0,0
347381,85.0086,-485.515,0,0
347641,84.6698,-485.034,0,0
347902,84.3905,-484.491,0,0
348162,84.0911,-483.858,0,0
348422,83.7936,-483.168,0,0
348683,83.5988,-482.472,0,0
348943,83.3326,-481.734,0,0
349203,83.217,-480.923,0,0
349464,83.1113,-480.053,0,0
349724,83.0902,-479.151,0,0
349984,83.1503,-478.291,0,0
350245,83.285,-477.44,0,0
350505,83.4841,-476.629,0,0
350765,83.7498,-475.896,0,0
351025,84.1138,-475.185,0,0
351286,84.4959,-474.663,0,0
351546,84.8503,-474.177,0,0
351806,85.1706,-473.789,0,0
352067,85.4712,-473.441,0,0
352327,85.729,-473.092,0,0
352587,85.9684,-472.873,0,0
352848,86.1621,-472.699,0,0
353108,86.3064,-472.547,0,0
353368,86.3054,-472.46,0,0
353629,86.2082,-472.313,0,0
353889,86.0965,-472.207,0,0
354149,85.8936,-471.98,0,0
354410,85.7184,-471.738,0,0
354670,85.4595,-471.537,0,0
354930,85.225,-471.236,0,0
355191,84.9722,-470.946,0,0
355451,84.6763,-470.607,0,0
355711,84.3944,-470.251,0,0
355972,84.0213,-469.913,0,0
356232,83.65,-469.452,0,0
356492,83.275,-469.002,0,0
356753,82.8864,-468.458,0,0
357013,82.5926,-467.819,0,0
357273,82.2728,-467.223,0,0
357534,81.9854,-466.555,0,0
357794,81.7783,-465.831,0,0
358054,81.5675,-465.101,0,0
358315,81.4734,-464.398,0,0
358575,81.3896,-463.653,0,0
358835,81.3607,-462.992,0,0
359096,81.3564,-462.298,0,0
359356,81.3509,-461.718,0,0
359616,81.3723,-461.138,0,0
359877,81.3834,-460.601,0,0
360137,81.4117,-460.052,0,0
360397,81.4313,-459.586,0,0
360658,81.4129,-459.126,0,0
360918,81.2892,-458.688,0,0
361178,81.1719,-458.217,0,0
361438,81.017,-457.739,0,0
361699,80.9092,-457.201,0,0
361959,80.6985,-456.648,0,0
362219,80.537,-455.98,0,0
362480,80.4102,-455.338,0,0
362740.1,80.2932,-454.528,0,0
363000.425,80.2586,-453.806,0,0
363260.75,80.3429,-453.021,0,0
363521.075,80.4414,-452.287,0,0
363781.4,80.6567,-451.612,0,0
364041.725,80.8895,-450.92,0,0
364302.05,81.1492,-450.345,0,0
364562.375,81.471,-449.761,0,0
364822.7,81.8493,-449.307,0,0
365083.025,82.1994,-448.938,0,0
365343.35,82.5108,-448.586,0,0
365603.675,82.8285,-448.363,0,0
365864.0,83.099,-448.191,0,0
366124.325,83.3412,-448.091,0,0
366384.65,83.5284,-448.044,0,0
366644.975,83.5906,-448.038,0,0
366905.3,83.577,-448.101,0,0
367165.625,83.4116,-448.149,0,0
367425.95,83.1547,-448.216,0,0
367686.275,82.7925,-448.205,0,0
367946.6,82.3893,-448.095,0,0
368206.925,81.8701,-447.897,0,0
368467.25,81.2585,-447.551,0,0
368727.575,80.6376,-447.076,0,0
368987.9,80.1383,-446.503,0,0
369248.225,79.6705,-445.761,0,0
369508.55,79.2904,-444.905,0,0
369768.875,79.0976,-444.108,0,0
370029.2,79.0318,-443.149,0,0
370289.525,79.0433,-442.386,0,0
370549.85,79.1767,-441.592,0,0
370810.175,79.4105,-440.855,0,0
371070.5,79.7023,-440.258,0,0
371330.825,79.9759,-439.768,0,0
371591.15,80.2277,-439.337,0,0
371851.475,80.5068,-439.105,0,0
372111.8,80.733,-438.966,0,0
372372.125,80.8544,-438.716,0,0
372632.45,80.8955,-438.652,0,0
372892.775,80.8334,-438.581,0,0
373153.1,80.6475,-438.518,0,0
373413.425,80.4138,-438.373,0,0
373673.75,80.0987,-438.212,0,0
373934.075,79.7447,-437.931,0,0
374194.4,79.3517,-437.668,0,0
374454.725,78.9698,-437.232,0,0
374715.05,78.615,-436.778,0,0
374975.375,78.2414,-436.285,0,0
375235.7,77.9069,-435.706,0,0
375496.025,77.5813,-435.091,0,0
375756.35,77.3185,-434.493,0,0
376016.675,77.0971,-433.831,0,0
376277.0,76.8517,-433.131,0,0
376537.325,76.7301,-432.445,0,0
376797.65,76.5451,-431.751,0,0
377057.975,76.4689,-431.045,0,0
377318.3,76.4084,-430.33,0,0
377578.625,76.3514,-429.608,0,0
377838.95,76.4268,-428.893,0,0
378099.275,76.4507,-428.181,0,0
378359.6,76.5985,-427.412,0,0
378619.925,76.8337,-426.765,0,0
378880,77.1004,-426.13,0,0
379141,77.3669,-425.581,0,0
379401,77.6941,-425.166,0,0
379661,77.9123,-424.815,0,0
379922,78.1988,-424.469,0,0
380182,78.3518,-424.22,0,0
380442,78.5066,-423.983,0,0
380703,78.6419,-423.787,0,0
380963,78.6143,-423.562,0,0
381223,78.621,-423.294,0,0
381483,78.5704,-423.041,0,0
381744,78.5441,-422.793,0,0
382004,78.5129,-422.536,0,0
382264,78.469,-422.179,0,0
382525,78.4274,-421.91,0,0
382785,78.4117,-421.658,0,0
383045,78.349,-421.462,0,0
383306,78.2613,-421.214,0,0
383566,78.0835,-421.006,0,0
383826,77.9137,-420.769,0,0
384087,77.6396,-420.554,0,0
384347,77.368,-420.254,0,0
384607,77.1302,-419.937,0,0
384868,76.8719,-419.568,0,0
385128,76.6,-419.16,0,0
385388,76.3072,-418.743,0,0
385649,75.9561,-418.29,0,0
385909,75.6839,-417.895,0,0
386169,75.4162,-417.397,0,0
386430,75.1123,-416.855,0,0
386690,74.794,-416.367,0,0
386950,74.4672,-415.813,0,0
387211,74.173,-415.171,0,0
387471,73.8382,-414.524,0,0
387731,73.5513,-413.885,0,0
387992,73.3104,-413.124,0,0
388252,73.079,-412.368,0,0
388512,72.9162,-411.531,0,0
388773,72.8029,-410.769,0,0
389033,72.6604,-409.952,0,0
389293,72.5831,-409.058,0,0
389554,72.5619,-408.232,0,0
389814,72.5652,-407.37,0,0
390074,72.6202,-406.429,0,0
390335,72.7585,-405.515,0,0
390595,72.9748,-404.636,0,0
390855,73.196,-403.743,0,0
391116,73.5313,-402.923,0,0
391376,73.941,-402.145,0,0
391636,74.34,-401.392,0,0
391896,74.7646,-400.759,0,0
392157,75.27,-400.131,0,0
392417,75.7451,-399.543,0,0
392677,76.2021,-399.066,0,0
392938,76.6622,-398.576,0,0
393198,77.1097,-398.113,0,0
393458,77.5405,-397.726,0,0
393719,77.9376,-397.32,0,0
393979,78.3595,-396.941,0,0
394239,78.8132,-396.613,0,0
394500,79.2669,-396.296,0,0
394760.05,79.7069,-395.981,0,0
395020.375,80.1389,-395.74,0,0
395280.7,80.6061,-395.507,0,0
395541.025,81.0284,-395.303,0,0
395801.35,81.4423,-395.191,0,0
396061.675,81.8298,-395.099,0,0
396322.0,82.2382,-395.037,0,0
396582.325,82.6031,-395.03,0,0
396842.65,82.9153,-395.04,0,0
397102.975,83.1688,-395.047,0,0
397363.3,83.4422,-395.102,0,0
397623.625,83.6332,-395.163,0,0
397883.95,83.8401,-395.216,0,0
398144.275,84.003,-395.286,0,0
398404.6,84.1036,-395.375,0,0
398664.925,84.1865,-395.487,0,0
398925.25,84.2668,-395.619,0,0
399185.575,84.2344,-395.746,0,0
399445.9,84.2428,-395.922,0,0
399706.225,84.1238,-396.036,0,0
399966.55,84.0041,-396.12,0,0
400006.6,83.9856,-396.144,0,0