File: Accelerated corrosion test data/2025-10-22_09-25-28/sample_2.csv
Frequency (Hz),Impedance (ohms),Phase (Radians),Temperature (C),Humidity (%)
10000.0,232.952,-11470.8,0,0
10260.325,226.938,-11182,0,0
10520.65,221.56,-10907.7,0,0
10780.975,216.389,-10645.9,0,0
11041.3,211.374,-10397.9,0,0
11301.625,206.628,-10159.3,0,0
11561.95,202.74,-9931.07,0,0
11822.275,201.849,-9721.79,0,0
12082.6,195.071,-9510.13,0,0
12342.925,190.535,-9313.25,0,0
12603.25,185.899,-9120.85,0,0
12863.575,182.685,-8936.6,0,0
13123.9,179.857,-8762.72,0,0
13384.225,175.849,-8591.08,0,0
13644.55,173.169,-8425.75,0,0
13904.875,186.461,-8266.08,0,0
14165.2,168.538,-8126.83,0,0
14425.525,164.777,-7977.11,0,0
14685.8,165.332,-7830.48,0,0
14946.175,161.554,-7700.99,0,0
15206.5,169.739,-7575.89,0,0
15466.825,159.586,-7444.45,0,0
15727.15,153.871,-7330.26,0,0
15987.5,150.216,-7208.18,0,0
16247.8,149.863,-7093.21,0,0
16508.125,144.815,-6982.67,0,0
16768.45,142.463,-6874.34,0,0
17028.775,141.376,-6769.4,0,0
17289.1,140.203,-6668.06,0,0
17549.425,135.969,-6569.31,0,0
17809.75,134.369,-6473.11,0,0
18070.075,132.955,-6380.6,0,0
18330.4,131.127,-6289.04,0,0
18590.725,129.482,-6200.23,0,0
18851.05,128.29,-6114.51,0,0
19111.375,129.609,-6031.88,0,0
19371.7,129.673,-5954.43,0,0
19632.025,124.078,-5875.89,0,0
19892.35,121.706,-5797.71,0,0
20152.675,120.086,-5721.62,0,0
20413.0,119.107,-5646.98,0,0
20673.3,118.57,-5573.96,0,0
20933.65,119.142,-5502.21,0,0
21193.975,126.792,-5433.12,0,0
21454.3,130.925,-5371.87,0,0
21714.625,130.067,-5316.45,0,0
21974.9,121.462,-5253.99,0,0
22235.275,120.042,-5198.13,0,0
22495.6,115.923,-5136.97,0,0
22755.925,112.56,-5075.89,0,0
23016.25,113.584,-5020.14,0,0
23276.6,114.826,-4964.75,0,0
23536.9,109.117,-4910.36,0,0
23797.225,107.698,-4854.95,0,0
24057.55,107.483,-4804.22,0,0
24317.875,103.796,-4753.84,0,0
24578.2,101.62,-4702.05,0,0
24838.525,100.657,-4651.94,0,0
25098.85,99.7023,-4602.65,0,0
25359.175,98.9324,-4555.71,0,0
25619.5,98.3172,-4508.67,0,0
25879.8,96.8536,-4462.86,0,0
26140.1,97.2597,-4416.61,0,0
26400.5,96.3585,-4374.71,0,0
26660.8,96.6567,-4331.84,0,0
26921.1,95.4735,-4290.05,0,0
27181.4,94.3564,-4250.02,0,0
27441.8,92.4677,-4208.94,0,0
27702.1,91.5823,-4169.15,0,0
27962.4,89.8493,-4128.35,0,0
28222.7,90.283,-4089.64,0,0
28483.1,90.8189,-4051.78,0,0
28743.4,90.211,-4014.09,0,0
29003.7,91.0962,-3976.62,0,0
29264,91.555,-3941.58,0,0
29524.4,93.4732,-3905.1,0,0
29784.7,97.2666,-3874.53,0,0
30045,94.6335,-3844.53,0,0
30305.3,94.2914,-3811.53,0,0
30565.7,91.7246,-3783.55,0,0
30826,88.5718,-3750.92,0,0
31086.3,86.6596,-3718.18,0,0
31346.6,85.5479,-3687.75,0,0
31607,85.0427,-3655.56,0,0
31867.3,83.8032,-3627.01,0,0
32127.6,82.4438,-3596.23,0,0
32387.9,82.542,-3565.74,0,0
32648.3,83.8621,-3537.75,0,0
32908.6,84.2625,-3511.44,0,0
33168.9,82.0796,-3484.75,0,0
33429.2,79.976,-3457.26,0,0
33689.6,80.1717,-3430.18,0,0
33949.9,79.1092,-3403.78,0,0
34210.2,77.5087,-3377.77,0,0
34470.5,76.2448,-3351.45,0,0
34730.9,76.0335,-3325.84,0,0
34991.2,75.5617,-3300.68,0,0
35251.5,75.1888,-3276.05,0,0
35511.8,74.2809,-3251.6,0,0
35772.2,73.7635,-3227.38,0,0
36032.5,73.2605,-3204.15,0,0
36292.8,72.8302,-3180.52,0,0
36553.1,72.3885,-3157.49,0,0
36813.5,71.5955,-3134.78,0,0
37073.8,71.3918,-3112,0,0
37334.1,71.1702,-3090.13,0,0
37594.4,70.9617,-3068.69,0,0
37854.8,70.5082,-3046.89,0,0
38115.1,70.127,-3025.96,0,0
38375.4,69.3243,-3005.5,0,0
38635.7,69.0071,-2984.8,0,0
38896.1,68.7002,-2964.07,0,0
39156.4,68.2983,-2944.13,0,0
39416.7,67.8732,-2924.32,0,0
39677,67.6378,-2904.59,0,0
39937.4,67.2517,-2885.45,0,0
40197.7,66.6402,-2866.2,0,0
40458,66.4879,-2847.2,0,0
40718.3,66.4448,-2828.39,0,0
40978.7,66.2347,-2810.48,0,0
41239,65.7159,-2792.19,0,0
41499.3,65.9873,-2774.29,0,0
41759.6,65.3915,-2756.71,0,0
42020,65.2485,-2738.9,0,0
42280.275,65.1792,-2721.69,0,0
42540.6,64.9292,-2705.31,0,0
42800.925,64.3679,-2688.66,0,0
43061.25,63.9484,-2671.74,0,0
43321.575,63.8034,-2655.37,0,0
43581.9,63.554,-2639.29,0,0
43842.225,63.1182,-2623.03,0,0
44102.55,63.001,-2606.88,0,0
44362.875,62.8461,-2591.34,0,0
44623.2,62.6937,-2575.9,0,0
44883.525,62.0534,-2560.37,0,0
45143.85,62.0603,-2545.2,0,0
45404.175,62.2697,-2529.89,0,0
45664.5,62.0419,-2515.31,0,0
45924.825,61.5341,-2500.52,0,0
46185.15,62.0742,-2486.07,0,0
46445.475,61.5121,-2472.32,0,0
46705.8,60.8764,-2458.06,0,0
46966.125,61.0038,-2443.53,0,0
47226.45,60.9199,-2429.65,0,0
47486.775,61.3964,-2415.96,0,0
47747.1,60.571,-2403,0,0
48007.425,60.7894,-2388.89,0,0
48267.75,60.8219,-2375.56,0,0
48528.075,62.0614,-2362.94,0,0
48788.4,61.3225,-2351.2,0,0
49048.725,60.7394,-2338.96,0,0
49309.05,60.0239,-2326.23,0,0
49569.375,59.2868,-2313.53,0,0
49829.7,58.9384,-2301.14,0,0
50090.025,58.3856,-2288.61,0,0
50350.35,57.9316,-2276.53,0,0
50610.675,57.646,-2263.95,0,0
50871.0,57.6127,-2251.74,0,0
51131.325,57.4588,-2240.29,0,0
51391.65,57.1688,-2228.6,0,0
51651.975,56.497,-2217.1,0,0
51912.3,56.2494,-2205.27,0,0
52172.625,55.777,-2193.7,0,0
52432.95,55.5164,-2182.03,0,0
52693.275,55.3059,-2170.78,0,0
52953.6,55.1104,-2159.42,0,0
53213.925,54.974,-2148.22,0,0
53474.25,54.893,-2137.14,0,0
53734.575,54.6918,-2126.31,0,0
53994.9,54.5107,-2115.35,0,0
54255.225,54.2717,-2104.55,0,0
54515.55,54.3022,-2093.82,0,0
54775.875,54.2951,-2083.46,0,0
55036.2,54.1199,-2073.04,0,0
55296.525,53.9809,-2062.72,0,0
55556.85,54.0484,-2052.35,0,0
55817.175,53.8649,-2042.14,0,0
56077.5,53.9213,-2032.12,0,0
56337.825,53.9055,-2022.19,0,0
56598.15,53.8098,-2012.27,0,0
56858.475,53.8722,-2002.41,0,0
57118.8,53.9057,-1992.72,0,0
57379.125,53.8365,-1983.09,0,0
57639.45,53.9291,-1973.53,0,0
57899.775,54.0928,-1964.12,0,0
58160.1,54.1278,-1954.94,0,0
58420.4,53.9823,-1945.62,0,0
58680.7,53.913,-1936.34,0,0
58941.1,54.02,-1926.98,0,0
59201.4,54.2308,-1917.78,0,0
59461.7,54.4618,-1908.7,0,0
59722,54.9057,-1899.81,0,0
59982.4,55.3362,-1890.81,0,0
60242.7,56.218,-1882.35,0,0
60503,56.588,-1874.52,0,0
60763.3,56.4855,-1866.21,0,0
61023.7,56.8396,-1857.91,0,0
61284,57.2442,-1849.54,0,0
61544.3,58.1474,-1841.6,0,0
61804.6,58.7163,-1834.31,0,0
62065,58.8896,-1827.69,0,0
62325.3,57.8007,-1820.56,0,0
62585.6,57.3383,-1812.56,0,0
62845.9,57.6404,-1805.27,0,0
63106.3,56.8997,-1798.57,0,0
63366.6,55.5668,-1790.89,0,0
63626.9,55.1247,-1783.13,0,0
63887.2,54.4532,-1775.53,0,0
64147.6,53.6545,-1767.86,0,0
64407.9,53.3579,-1760.23,0,0
64668.2,52.6621,-1752.68,0,0
64928.5,51.9758,-1744.79,0,0
65188.9,51.5194,-1737.04,0,0
65449.2,50.8626,-1729.13,0,0
65709.5,50.5557,-1721.05,0,0
65969.8,50.8133,-1713.17,0,0
66230.2,50.7363,-1705.52,0,0
66490.5,50.9562,-1697.98,0,0
66750.8,51.0722,-1690.73,0,0
67011.1,51.0699,-1683.28,0,0
67271.5,51.0682,-1675.65,0,0
67531.8,51.7194,-1668.24,0,0
67792.1,52.4037,-1661.2,0,0
68052.4,53.2549,-1654.55,0,0
68312.8,53.8398,-1648.21,0,0
68573.1,53.8304,-1641.73,0,0
68833.4,54.3833,-1635.2,0,0
69093.7,54.6913,-1628.96,0,0
69354.1,55.3112,-1622.82,0,0
69614.4,55.4683,-1617.21,0,0
69874.7,55.5002,-1611.15,0,0
70135,55.7556,-1605.94,0,0
70395.4,55.2931,-1600.66,0,0
70655.7,54.5243,-1595.28,0,0
70916,53.1761,-1589.42,0,0
71176.3,52.2658,-1583.24,0,0
71436.7,51.4832,-1577.13,0,0
71697,50.868,-1570.8,0,0
71957.3,50.4586,-1565.04,0,0
72217.6,49.0832,-1559.16,0,0
72478,47.7811,-1552.72,0,0
72738.3,46.8025,-1545.76,0,0
72998.6,46.4131,-1538.86,0,0
73258.9,46.2811,-1532.35,0,0
73519.3,45.6893,-1526.05,0,0
73779.6,45.2502,-1519.42,0,0
74039.9,44.9514,-1512.68,0,0
74300.225,44.966,-1506.05,0,0
74560.55,45.077,-1499.72,0,0
74820.875,44.9872,-1493.36,0,0
75081.2,45.2357,-1486.98,0,0
75341.525,45.4651,-1480.68,0,0
75601.85,45.7207,-1474.52,0,0
75862.175,46.0595,-1468.39,0,0
76122.5,46.443,-1462.32,0,0
76382.825,46.9475,-1456.45,0,0
76643.15,47.377,-1450.65,0,0
76903.475,47.8646,-1444.95,0,0
77163.8,48.2567,-1439.19,0,0
77424.125,48.924,-1433.47,0,0
77684.45,49.7465,-1427.98,0,0
77944.775,50.5108,-1422.8,0,0
78205.1,51.3507,-1417.75,0,0
78465.425,52.0804,-1412.98,0,0
78725.75,52.5565,-1408.54,0,0
78986.075,52.8776,-1403.9,0,0
79246.4,53.0912,-1399.4,0,0
79506.725,53.4169,-1395.15,0,0
79767.05,53.1778,-1391.14,0,0
80027.375,52.613,-1386.79,0,0
80287.7,51.9016,-1382.29,0,0
80548.025,51.1439,-1377.48,0,0
80808.35,50.4549,-1372.51,0,0
81068.675,49.886,-1367.43,0,0
81329.0,49.382,-1362.26,0,0
81589.325,49.0349,-1357.11,0,0
81849.65,48.737,-1351.93,0,0
82109.975,48.5328,-1346.82,0,0
82370.3,48.2324,-1341.71,0,0
82630.625,48.0669,-1336.51,0,0
82890.95,48.04,-1331.28,0,0
83151.275,48.0435,-1326.18,0,0
83411.6,48.2288,-1321.04,0,0
83671.925,48.3784,-1316.19,0,0
83932.25,48.4969,-1311.34,0,0
84192.575,48.6284,-1306.5,0,0
84452.9,48.7822,-1301.76,0,0
84713.225,48.972,-1297.09,0,0
84973.55,49.1057,-1292.42,0,0
85233.875,49.1554,-1287.79,0,0
85494.2,49.2538,-1282.99,0,0
85754.525,49.5436,-1278.32,0,0
86014.85,49.8026,-1273.81,0,0
86275.175,50.0892,-1269.36,0,0
86535.5,50.3256,-1264.96,0,0
86795.825,50.4116,-1260.64,0,0
87056.15,50.5685,-1256.24,0,0
87316.475,50.7418,-1252,0,0
87576.8,50.9696,-1247.86,0,0
87837.125,50.9455,-1243.64,0,0
88097.45,51.026,-1239.38,0,0
88357.775,50.946,-1235.12,0,0
88618.1,50.9632,-1230.74,0,0
88878.425,51.0884,-1226.58,0,0
89138.75,51.0848,-1222.23,0,0
89399.075,51.3506,-1217.99,0,0
89659.4,51.2959,-1213.8,0,0
89919.725,51.5453,-1209.31,0,0
90180,52.0407,-1205.55,0,0
90440.4,51.8329,-1201.87,0,0
90700.7,51.2627,-1197.7,0,0
90961,50.9876,-1192.96,0,0
91221.3,51.4843,-1188.3,0,0
91481.7,52.2624,-1184.19,0,0
91742,52.6618,-1180.29,0,0
92002.3,53.0176,-1176.22,0,0
92262.6,53.4462,-1172.2,0,0
92523,54.064,-1168.42,0,0
92783.3,54.3427,-1164.71,0,0
93043.6,54.6633,-1161.17,0,0
93303.9,54.7821,-1157.4,0,0
93564.3,55.3803,-1153.6,0,0
93824.6,56.0906,-1150.29,0,0
94084.9,56.2506,-1147.54,0,0
94345.2,55.8599,-1144.38,0,0
94605.6,55.3832,-1141.07,0,0
94865.9,54.9393,-1137.2,0,0
95126.2,54.8939,-1133.5,0,0
95386.5,54.503,-1129.68,0,0
95646.9,54.151,-1125.62,0,0
95907.2,54.3868,-1121.24,0,0
96167.5,54.9828,-1117.16,0,0
96427.8,55.8465,-1113.43,0,0
96688.2,56.5345,-1110.17,0,0
96948.5,57.1066,-1106.99,0,0
97208.8,57.7489,-1103.9,0,0
97469.1,58.3811,-1101.16,0,0
97729.5,58.4881,-1099.08,0,0
97989.8,57.5833,-1096.45,0,0
98250.1,57.2065,-1093.09,0,0
98510.4,57.2477,-1090.03,0,0
98770.8,56.957,-1087.45,0,0
99031.1,56.1854,-1084.68,0,0
99291.4,55.4317,-1081.56,0,0
99551.7,54.4502,-1078.54,0,0
99812.1,53.3944,-1074.91,0,0
100072,52.8952,-1071.15,0,0
100333,52.5973,-1067.69,0,0
100593,52.0469,-1064.45,0,0
100853,51.3305,-1061.08,0,0
101114,50.4804,-1057.66,0,0
101374,49.587,-1054,0,0
101634,48.7453,-1050.28,0,0
101895,47.7787,-1046.27,0,0
102155,47.098,-1041.9,0,0
102415,46.8754,-1037.66,0,0
102676,46.593,-1033.71,0,0
102936,46.0889,-1029.54,0,0
103196,45.8493,-1025.09,0,0
103457,45.8863,-1020.74,0,0
103717,46.0341,-1016.41,0,0
103977,46.3015,-1012.06,0,0
104238,46.8501,-1007.73,0,0
104498,47.5902,-1003.53,0,0
104758,48.6158,-999.654,0,0
105019,49.5479,-996.152,0,0
105279,50.1552,-992.702,0,0
105539,50.6317,-989.066,0,0
105800,51.5825,-985.243,0,0
106060,52.8452,-981.857,0,0
106320.175,54.0481,-978.718,0,0
106580.5,55.2756,-975.925,0,0
106840.825,56.252,-973.47,0,0
107101.15,56.9942,-971.097,0,0
107361.475,57.6392,-968.807,0,0
107621.8,58.0294,-966.851,0,0
107882.125,57.8968,-964.717,0,0
108142.45,57.8139,-962.353,0,0
108402.775,57.5194,-960.181,0,0
108663.1,56.9557,-957.735,0,0
108923.425,56.3244,-955.144,0,0
109183.75,55.5736,-952.327,0,0
109444.075,54.9431,-949.346,0,0
109704.4,54.4105,-946.209,0,0
109964.725,53.8182,-943.12,0,0
110225.05,53.0529,-939.884,0,0
110485.375,52.3864,-936.428,0,0
110745.7,52.068,-932.729,0,0
111006.025,51.8589,-929.059,0,0
111266.35,51.6426,-925.492,0,0
111526.675,51.6908,-921.842,0,0
111787.0,51.727,-918.333,0,0
112047.325,51.8237,-914.944,0,0
112307.65,51.8189,-911.435,0,0
112567.975,51.9336,-907.83,0,0
112828.3,52.1491,-904.391,0,0
113088.625,52.3468,-900.907,0,0
113348.95,52.5326,-897.374,0,0
113609.275,53.0127,-893.886,0,0
113869.6,53.4233,-890.607,0,0
114129.925,53.7237,-887.155,0,0
114390.25,54.0865,-883.813,0,0
114650.575,54.6419,-880.422,0,0
114910.9,55.1194,-877.071,0,0
115171.225,55.7135,-873.8,0,0
115431.55,56.3266,-870.596,0,0
115691.875,56.9604,-867.43,0,0
115952.2,57.6091,-864.213,0,0
116212.525,58.2981,-861.088,0,0
116472.85,59.0686,-858,0,0
116733.175,59.8576,-855.018,0,0
116993.5,60.6301,-852.135,0,0
117253.825,61.321,-849.264,0,0
117514.15,61.9803,-846.318,0,0
117774.475,62.8255,-843.397,0,0
118034.8,63.7513,-840.559,0,0
118295.125,64.7168,-837.92,0,0
118555.45,65.5982,-835.434,0,0
118815.775,66.5022,-832.91,0,0
119076.1,67.3871,-830.567,0,0
119336.425,68.1556,-828.349,0,0
119596.75,68.8565,-826.191,0,0
119857.075,69.5118,-824.035,0,0
120117.4,69.999,-822.059,0,0
120377.725,70.4543,-820.066,0,0
120638.05,70.7412,-818.14,0,0
120898.375,70.8545,-816.176,0,0
121158.7,70.833,-814.166,0,0
121419.025,70.6899,-812.01,0,0
121679.35,70.6042,-809.785,0,0
121939.675,70.434,-807.52,0,0
122200.0,70.199,-805.195,0,0
122460,69.9431,-802.72,0,0
122721,69.7254,-800.116,0,0
122981,69.5873,-797.51,0,0
123241,69.4675,-794.91,0,0
123502,69.3158,-792.279,0,0
123762,69.246,-789.598,0,0
124022,69.1408,-786.944,0,0
124283,69.0077,-784.262,0,0
124543,68.8853,-781.546,0,0
124803,68.7158,-778.768,0,0
125064,68.5452,-775.974,0,0
125324,68.3757,-772.981,0,0
125584,68.2697,-769.938,0,0
125845,68.3624,-766.85,0,0
126105,68.4533,-763.777,0,0
126365,68.5705,-760.685,0,0
126626,68.7924,-757.596,0,0
126886,69.0923,-754.438,0,0
127146,69.5651,-751.352,0,0
127406,70.046,-748.266,0,0
127667,70.6066,-745.376,0,0
127927,71.1206,-742.468,0,0
128187,71.6647,-739.636,0,0
128448,72.2241,-736.799,0,0
128708,72.7712,-733.997,0,0
128968,73.3347,-731.22,0,0
129229,73.9706,-728.467,0,0
129489,74.5882,-725.844,0,0
129749,75.1371,-723.237,0,0
130010,75.674,-720.548,0,0
130270,76.2794,-717.858,0,0
130530,76.9688,-715.318,0,0
130791,77.5805,-712.857,0,0
131051,78.1254,-710.487,0,0
131311,78.5394,-708.137,0,0
131572,78.9042,-705.717,0,0
131832,79.2178,-703.324,0,0
132092,79.3954,-700.892,0,0
132353,79.548,-698.329,0,0
132613,79.7225,-695.599,0,0
132873,80.051,-692.871,0,0
133134,80.3861,-690.207,0,0
133394,80.6709,-687.485,0,0
133654,81.007,-684.799,0,0
133915,81.4336,-682.135,0,0
134175,81.7219,-679.51,0,0
134435,81.849,-676.898,0,0
134696,81.9616,-674.1,0,0
134956,82.0874,-671.122,0,0
135216,82.4545,-668.036,0,0
135477,82.8189,-665.006,0,0
135737,83.2554,-662.03,0,0
135997,83.7054,-659.025,0,0
136258,84.2169,-655.988,0,0
136518,84.7835,-652.972,0,0
136778,85.369,-649.976,0,0
137039,85.8806,-646.977,0,0
137299,86.5013,-643.853,0,0
137559,87.243,-640.797,0,0
137819,88.0055,-637.779,0,0
138080,88.7815,-634.845,0,0
138340.125,89.4574,-632.047,0,0
138600.45,89.9602,-629.15,0,0
138860.775,90.4776,-626.047,0,0
139121.1,91.1423,-622.872,0,0
139381.425,91.8513,-619.794,0,0
139641.75,92.4684,-616.706,0,0
139902.075,92.9642,-613.47,0,0
140162.4,93.4837,-609.996,0,0
140422.725,94.1926,-606.307,0,0
140683.05,95.1316,-602.488,0,0
140943.375,96.4123,-598.703,0,0
141203.7,97.7544,-595.12,0,0
141464.025,99.103,-591.484,0,0
141724.35,100.658,-587.758,0,0
141984.675,102.474,-584.093,0,0
142245.0,104.473,-580.634,0,0
142505.325,106.527,-577.431,0,0
142765.65,108.481,-574.415,0,0
143025.975,110.326,-571.441,0,0
143286.3,112.101,-568.414,0,0
143546.625,113.874,-565.2,0,0
143806.95,115.876,-562.044,0,0
144067.275,117.992,-558.936,0,0
144327.6,120.107,-555.966,0,0
144587.925,122.165,-553.027,0,0
144848.25,124.238,-549.995,0,0
145108.575,126.477,-546.942,0,0
145368.9,128.827,-544.018,0,0
145629.225,131.152,-541.214,0,0
145889.55,133.417,-538.351,0,0
146149.875,135.727,-535.412,0,0
146410.2,138.205,-532.43,0,0
146670.525,140.77,-529.549,0,0
146930.85,143.358,-526.635,0,0
147191.175,146.05,-523.713,0,0
147451.5,148.819,-520.734,0,0
147711.825,151.779,-517.728,0,0
147972.15,154.832,-514.764,0,0
148232.475,158.086,-511.638,0,0
148492.8,161.735,-508.513,0,0
148753.125,165.669,-505.559,0,0
149013.45,169.854,-502.638,0,0
149273.775,174.618,-499.748,0,0
149534.1,180.037,-497.429,0,0
149794.425,185.544,-495.952,0,0
150054.75,190.925,-494.764,0,0
150315.075,196.636,-493.862,0,0
150575.4,202.714,-493.817,0,0
150835.725,208.503,-494.771,0,0
151096.05,213.766,-496.323,0,0
151356.375,218.485,-498.321,0,0
151616.7,222.73,-500.53,0,0
151877.025,226.71,-502.96,0,0
152137.35,230.399,-505.911,0,0
152397.675,233.137,-509.355,0,0
152658.0,235.116,-512.473,0,0
152918.325,236.784,-515.557,0,0
153178.65,237.849,-518.582,0,0
153438.975,238.462,-521.277,0,0
153699.3,238.81,-523.787,0,0
153959.625,238.788,-526.093,0,0
154219.95,238.364,-528.204,0,0
154480,237.522,-529.792,0,0
154741,236.877,-530.82,0,0
155001,236.328,-531.547,0,0
155261,235.948,-532.221,0,0
155522,235.435,-532.782,0,0
155782,235.251,-533.22,0,0
156042,235.031,-534.033,0,0
156303,234.36,-535.066,0,0
156563,232.876,-535.742,0,0
156823,231.399,-535.624,0,0
157084,230.2,-535.049,0,0
157344,229.062,-534.337,0,0
157604,228.334,-533.251,0,0
157864,228.023,-532.118,0,0
158125,227.774,-531.552,0,0
158385,227.138,-530.834,0,0
158645,226.845,-529.903,0,0
158906,226.402,-529.133,0,0
159166,225.775,-528.135,0,0
159426,225.345,-526.82,0,0
159687,225.083,-525.555,0,0
159947,224.971,-524.274,0,0
160207,224.769,-523.036,0,0
160468,224.713,-521.579,0,0
160728,224.745,-519.862,0,0
160988,225.157,-518.295,0,0
161249,225.611,-516.35,0,0
161509,227.209,-514.299,0,0
161769,229.672,-513.589,0,0
162030,231.783,-514.138,0,0
162290,233.023,-515.414,0,0
162550,233.533,-516.958,0,0
162811,233.033,-518.607,0,0
163071,231.843,-519.808,0,0
163331,230.513,-520.553,0,0
163592,228.835,-521.402,0,0
163852,226.513,-521.953,0,0
164112,223.878,-521.924,0,0
164373,220.934,-521.38,0,0
164633,218.015,-520.135,0,0
164893,215.465,-518.739,0,0
165154,212.64,-517.067,0,0
165414,209.737,-514.718,0,0
165674,207.18,-511.971,0,0
165935,204.961,-508.989,0,0
166195,202.979,-505.847,0,0
166455,201.097,-502.67,0,0
166716,199.251,-499.247,0,0
166976,197.657,-495.432,0,0
167236,196.641,-491.56,0,0
167497,195.718,-488.152,0,0
167757,194.386,-484.657,0,0
168017,193.103,-480.61,0,0
168277,192.1,-476.333,0,0
168538,191.542,-471.931,0,0
168798,191.046,-467.461,0,0
169058,190.838,-462.986,0,0
169319,190.791,-458.552,0,0
169579,190.657,-453.996,0,0
169839,190.9,-449.03,0,0
170100,191.668,-444.189,0,0
170360.075,192.693,-439.606,0,0
170620.4,193.677,-435.404,0,0
170880.725,194.427,-431.164,0,0
171141.05,195.18,-426.601,0,0
171401.375,196.19,-421.814,0,0
171661.7,197.575,-417.021,0,0
171922.025,199.085,-412.358,0,0
172182.35,200.639,-407.716,0,0
172442.675,202.253,-403.056,0,0
172703.0,204.057,-398.181,0,0
172963.325,206.277,-393.293,0,0
173223.65,208.657,-388.585,0,0
173483.975,211.058,-384.048,0,0
173744.3,213.35,-379.455,0,0
174004.625,215.828,-374.454,0,0
174264.95,218.87,-369.3,0,0
174525.275,222.293,-364.482,0,0
174785.6,225.97,-359.781,0,0
175045.925,229.896,-355.313,0,0
175306.25,233.776,-351.08,0,0
175566.575,237.829,-346.636,0,0
175826.9,242.458,-342.282,0,0
176087.225,247.463,-338.465,0,0
176347.55,252.359,-334.97,0,0
176607.875,257.393,-331.606,0,0
176868.2,262.681,-328.608,0,0
177128.525,268.113,-325.832,0,0
177388.85,273.702,-323.629,0,0
177649.175,279.235,-321.795,0,0
177909.5,284.767,-320.479,0,0
178169.825,289.902,-319.728,0,0
178430.15,294.608,-319.09,0,0
178690.475,299.369,-318.686,0,0
178950.8,303.821,-318.761,0,0
179211.125,306.758,-317.939,0,0
179471.45,310.436,-318.152,0,0
179731.775,313.672,-318.549,0,0
179992.1,316.094,-319.238,0,0
180252.425,317.376,-319.691,0,0
180512.75,317.844,-319.223,0,0
180773.075,317.903,-317.499,0,0
181033.4,318.294,-314.633,0,0
181293.725,319.314,-310.859,0,0
181554.05,321.253,-306.885,0,0
181814.375,323.685,-302.879,0,0
182074.7,326.328,-298.614,0,0
182335.025,329.849,-294.361,0,0
182595.35,333.8,-290.834,0,0
182855.675,337.223,-287.692,0,0
183116.0,340.122,-284.082,0,0
183376.325,343.402,-279.547,0,0
183636.65,347.489,-274.734,0,0
183896.975,352.198,-270.118,0,0
184157.3,357.186,-265.581,0,0
184417.625,362.554,-260.98,0,0
184677.95,368.623,-256.456,0,0
184938.275,375.188,-252.505,0,0
185198.6,381.736,-249.041,0,0
185458.925,388.201,-245.755,0,0
185719.25,394.801,-242.492,0,0
185979.575,401.557,-239.245,0,0
186239.9,408.489,-235.946,0,0
186500,416.008,-232.639,0,0
186761,424.019,-229.985,0,0
187021,431.906,-227.674,0,0
187281,439.901,-225.491,0,0
187542,448.259,-223.423,0,0
187802,456.825,-221.913,0,0
188062,465.44,-220.766,0,0
188322,473.988,-220.14,0,0
188583,482.314,-219.751,0,0
188843,490.238,-219.579,0,0
189103,497.875,-219.499,0,0
189364,505.155,-219.162,0,0
189624,512.393,-218.201,0,0
189884,520.172,-216.682,0,0
190145,528.478,-215.149,0,0
190405,537.223,-213.519,0,0
190665,546.483,-211.942,0,0
190926,556.213,-210.453,0,0
191186,566.634,-208.833,0,0
191446,578.115,-207.597,0,0
191707,590.139,-207.228,0,0
191967,602.422,-207.378,0,0
192227,615.267,-207.962,0,0
192488,628.539,-209.428,0,0
192748,641.912,-211.348,0,0
193008,655.958,-213.669,0,0
193269,670.872,-217.004,0,0
193529,686.181,-221.785,0,0
193789,701.496,-228.178,0,0
194050,716.183,-236.07,0,0
194310,729.888,-244.908,0,0
194570,742.837,-254.122,0,0
194831,755.601,-263.739,0,0
195091,768.053,-274.277,0,0
195351,779.866,-285.76,0,0
195612,790.614,-297.813,0,0
195872,800.297,-309.887,0,0
196132,809.712,-321.756,0,0
196393,819.04,-333.94,0,0
196653,827.899,-346.656,0,0
196913,835.938,-359.493,0,0
197174,843.906,-372.028,0,0
197434,852.247,-384.764,0,0
197694,860.881,-398.432,0,0
197955,869.403,-413.481,0,0
198215,876.638,-429.936,0,0
198475,882.202,-446.785,0,0
198735,886.932,-463.424,0,0
198996,890.753,-480.286,0,0
199256,893.656,-497.118,0,0
199516,895.975,-513.822,0,0
199777,897.718,-530.221,0,0
200037,898.955,-547.18,0,0
200297,899.652,-564.301,0,0
200558,899.538,-581.697,0,0
200818,898.757,-599.304,0,0
201078,896.874,-617.168,0,0
201339,893.458,-635.381,0,0
201599,888.366,-653.207,0,0
201859,881.924,-669.874,0,0
202120,874.478,-685.076,0,0
202380.025,867.414,-698.987,0,0
202640.35,860.525,-712.57,0,0
202900.675,853.629,-726.193,0,0
203161.0,846.055,-739.74,0,0
203421.325,837.619,-752.748,0,0
203681.65,828.965,-765.415,0,0
203941.975,819.514,-777.299,0,0
204202.3,810.174,-788.581,0,0
204462.625,800.845,-799.213,0,0
204722.95,791.443,-810.13,0,0
204983.275,781.247,-821.267,0,0
205243.6,769.953,-832.232,0,0
205503.925,757.187,-842.084,0,0
205764.25,743.646,-850.46,0,0
206024.575,729.781,-857.154,0,0
206284.9,716.522,-862.053,0,0
206545.225,704.474,-866.009,0,0
206805.55,692.956,-869.881,0,0
207065.875,681.273,-873.179,0,0
207326.2,669.853,-875.962,0,0
207586.525,658.596,-877.823,0,0
207846.85,648.159,-878.582,0,0
208107.175,639.182,-878.641,0,0
208367.5,631.321,-879.442,0,0
208627.825,623.783,-880.588,0,0
208888.15,616.738,-881.943,0,0
209148.475,609.967,-883.883,0,0
209408.8,603.247,-886.658,0,0
209669.125,595.969,-890.088,0,0
209929.45,587.927,-893.159,0,0
210189.775,579.224,-896.243,0,0
210450.1,570.511,-898.639,0,0
210710.425,561.573,-900.881,0,0
210970.75,552.419,-902.928,0,0
211231.075,542.533,-904.633,0,0
211491.4,532.245,-905.588,0,0
211751.725,521.743,-905.251,0,0
212012.05,511.961,-904.069,0,0
212272.375,502.727,-902.116,0,0
212532.7,494.367,-899.918,0,0
212793.025,486.41,-897.782,0,0
213053.35,478.707,-895.602,0,0
213313.675,471.189,-893.117,0,0
213574.0,464.093,-890.484,0,0
213834.325,457.248,-887.913,0,0
214094.65,450.664,-884.879,0,0
214354.975,444.439,-882.09,0,0
214615.3,438.465,-879.055,0,0
214875.625,432.677,-876.078,0,0
215135.95,427.263,-872.993,0,0
215396.275,421.824,-870.023,0,0
215656.6,416.414,-866.888,0,0
215916.925,411.278,-863.331,0,0
216177.25,406.624,-859.671,0,0
216437.575,402.195,-855.913,0,0
216697.9,398.243,-852.265,0,0
216958.225,394.494,-848.689,0,0
217218.55,391.003,-845.097,0,0
217478.875,387.843,-841.591,0,0
217739.2,384.923,-838.278,0,0
217999.525,382.058,-835.094,0,0
218259.85,379.248,-831.96,0,0
218520,376.671,-828.769,0,0
218780,374.228,-825.656,0,0
219041,372.015,-822.564,0,0
219301,370.03,-819.489,0,0
219561,368.219,-816.616,0,0
219822,366.565,-813.814,0,0
220082,365.065,-811.085,0,0
220342,363.617,-808.559,0,0
220603,362.257,-806.221,0,0
220863,360.8,-803.725,0,0
221123,359.618,-801.295,0,0
221384,358.829,-798.832,0,0
221644,358.175,-796.634,0,0
221904,357.638,-794.719,0,0
222165,357.042,-793.101,0,0
222425,356.558,-791.484,0,0
222685,356.086,-790.203,0,0
222946,355.507,-788.907,0,0
223206,355.018,-787.913,0,0
223466,354.248,-786.916,0,0
223727,353.48,-785.855,0,0
223987,352.795,-784.659,0,0
224247,352.439,-783.668,0,0
224508,352.216,-782.859,0,0
224768,351.817,-782.279,0,0
225028,351.186,-781.913,0,0
225289,350.451,-781.493,0,0
225549,349.777,-780.778,0,0
225809,349.388,-780.282,0,0
226070,348.942,-779.862,0,0
226330,348.487,-779.44,0,0
226590,348.147,-779.027,0,0
226851,348.012,-778.728,0,0
227111,348.048,-778.66,0,0
227371,347.972,-778.822,0,0
227632,347.868,-779.192,0,0
227892,347.914,-779.73,0,0
228152,348.061,-780.538,0,0
228413,347.966,-781.778,0,0
228673,347.706,-783.289,0,0
228933,347.177,-785.043,0,0
229193,346.235,-786.967,0,0
229454,345.058,-788.954,0,0
229714,343.458,-790.934,0,0
229974,341.619,-792.885,0,0
230235,339.372,-794.708,0,0
230495,337.104,-796.173,0,0
230755,334.766,-797.563,0,0
231016,332.355,-798.779,0,0
231276,330.103,-800.062,0,0
231536,327.653,-801.366,0,0
231797,325.094,-802.699,0,0
232057,322.35,-804.041,0,0
232317,319.364,-805.37,0,0
232578,316.262,-806.493,0,0
232838,313.002,-807.558,0,0
233098,309.567,-808.357,0,0
233359,306.039,-809.057,0,0
233619,302.489,-809.482,0,0
233879,299.063,-809.625,0,0
234140,295.541,-809.855,0,0
234400,291.995,-809.92,0,0
234660.3,288.473,-809.862,0,0
234920.625,284.932,-809.521,0,0
235180.95,281.597,-809.279,0,0
235441.275,278.315,-808.817,0,0
235701.6,274.955,-808.373,0,0
235961.925,271.686,-807.946,0,0
236222.25,268.341,-807.527,0,0
236482.575,264.926,-806.879,0,0
236742.9,261.57,-806.411,0,0
237003.225,258.078,-805.689,0,0
237263.55,254.482,-804.836,0,0
237523.875,250.951,-803.714,0,0
237784.2,247.493,-802.422,0,0
238044.525,244.158,-801.028,0,0
238304.85,241.008,-799.511,0,0
238565.175,237.974,-797.966,0,0
238825.5,235.004,-796.58,0,0
239085.825,232.162,-795.14,0,0
239346.15,229.181,-793.665,0,0
239606.475,226.209,-792.061,0,0
239866.8,223.323,-790.502,0,0
240127.125,220.371,-788.749,0,0
240387.45,217.601,-786.967,0,0
240647.775,214.848,-785.012,0,0
240908.1,212.218,-783.04,0,0
241168.425,209.656,-781.066,0,0
241428.75,207.248,-779.055,0,0
241689.075,204.869,-777.004,0,0
241949.4,202.588,-774.894,0,0
242209.725,200.422,-772.689,0,0
242470.05,198.426,-770.504,0,0
242730.375,196.609,-768.348,0,0
242990.7,194.848,-766.315,0,0
243251.025,193.201,-764.335,0,0
243511.35,191.623,-762.428,0,0
243771.675,190.197,-760.613,0,0
244032.0,188.707,-759.001,0,0
244292.325,187.293,-757.332,0,0
244552.65,185.821,-755.909,0,0
244812.975,184.382,-754.608,0,0
245073.3,182.933,-753.439,0,0
245333.625,181.217,-752.327,0,0
245593.95,179.419,-751.358,0,0
245854.275,177.509,-750.418,0,0
246114.6,175.319,-749.531,0,0
246374.925,173.026,-748.461,0,0
246635.25,170.428,-747.393,0,0
246895.575,167.671,-745.997,0,0
247155.9,164.954,-744.5,0,0
247416.225,162.24,-742.718,0,0
247676.55,159.458,-740.765,0,0
247936.875,156.752,-738.655,0,0
248197.2,154.119,-736.471,0,0
248457.525,151.609,-734.221,0,0
248717.85,149.112,-731.816,0,0
248978.175,146.611,-729.168,0,0
249238.5,144.084,-726.537,0,0
249498.825,141.754,-723.703,0,0
249759.15,139.572,-720.984,0,0
250019.475,137.374,-717.956,0,0
250279.8,135.211,-714.797,0,0
250540,133.237,-711.583,0,0
250800,131.346,-708.255,0,0
251061,129.696,-704.804,0,0
251321,128.212,-701.252,0,0
251581,126.951,-697.719,0,0
251842,125.899,-694.219,0,0
252102,124.946,-690.815,0,0
252362,124.17,-687.405,0,0
252623,123.478,-684.084,0,0
252883,122.834,-680.822,0,0
253143,122.269,-677.627,0,0
253404,121.781,-674.463,0,0
253664,121.307,-671.302,0,0
253924,120.857,-668.128,0,0
254185,120.53,-665.038,0,0
254445,120.182,-661.842,0,0
254705,119.935,-658.626,0,0
254966,119.722,-655.338,0,0
255226,119.753,-652.142,0,0
255486,119.817,-648.806,0,0
255747,120.106,-645.501,0,0
256007,120.565,-642.28,0,0
256267,121.149,-639.139,0,0
256528,121.835,-636.159,0,0
256788,122.62,-633.312,0,0
257048,123.34,-630.514,0,0
257309,124.152,-627.776,0,0
257569,124.996,-625.017,0,0
257829,125.953,-622.335,0,0
258090,126.987,-619.72,0,0
258350,128.078,-617.168,0,0
258610,129.227,-614.679,0,0
258871,130.494,-612.252,0,0
259131,131.761,-609.843,0,0
259391,133.154,-607.593,0,0
259651,134.586,-605.361,0,0
259912,136.076,-603.285,0,0
260172,137.716,-601.229,0,0
260432,139.354,-599.401,0,0
260693,141.057,-597.644,0,0
260953,142.792,-595.926,0,0
261213,144.496,-594.451,0,0
261474,146.279,-593.057,0,0
261734,147.987,-591.764,0,0
261994,149.762,-590.57,0,0
262255,151.434,-589.493,0,0
262515,153.154,-588.546,0,0
262775,154.836,-587.675,0,0
263036,156.469,-586.9,0,0
263296,157.987,-586.18,0,0
263556,159.503,-585.524,0,0
263817,160.993,-584.928,0,0
264077,162.535,-584.335,0,0
264337,164.008,-583.82,0,0
264598,165.554,-583.386,0,0
264858,166.991,-583.143,0,0
265118,168.459,-582.959,0,0
265379,169.795,-582.855,0,0
265639,171.037,-582.803,0,0
265899,172.178,-582.796,0,0
266160,173.296,-582.912,0,0
266420,174.328,-582.919,0,0
266680.25,175.282,-582.952,0,0
266940.575,176.231,-583.006,0,0
267200.9,177.115,-583.124,0,0
267461.225,177.951,-583.252,0,0
267721.55,178.764,-583.369,0,0
267981.875,179.555,-583.558,0,0
268242.2,180.296,-583.819,0,0
268502.525,180.904,-584.196,0,0
268762.85,181.317,-584.514,0,0
269023.175,181.685,-584.715,0,0
269283.5,181.979,-584.89,0,0
269543.825,182.164,-585.023,0,0
269804.15,182.297,-585.087,0,0
270064.475,182.417,-584.969,0,0
270324.8,182.455,-584.813,0,0
270585.125,182.577,-584.46,0,0
270845.45,182.779,-583.95,0,0
271105.775,183.107,-583.371,0,0
271366.1,183.535,-582.842,0,0
271626.425,184.057,-582.214,0,0
271886.75,184.671,-581.562,0,0
272147.075,185.444,-580.927,0,0
272407.4,186.328,-580.279,0,0
272667.725,187.324,-579.667,0,0
272928.05,188.54,-579.077,0,0
273188.375,189.826,-578.57,0,0
273448.7,191.287,-578.112,0,0
273709.025,192.871,-577.731,0,0
273969.35,194.728,-577.425,0,0
274229.675,196.82,-577.318,0,0
274490.0,199.154,-577.527,0,0
274750.325,201.687,-578.147,0,0
275010.65,204.303,-579.198,0,0
275270.975,206.817,-580.745,0,0
275531.3,209.257,-582.701,0,0
275791.625,211.475,-585.106,0,0
276051.95,213.329,-587.958,0,0
276312.275,214.809,-591.172,0,0
276572.6,215.678,-594.631,0,0
276832.925,216.045,-598.107,0,0
277093.25,215.969,-601.544,0,0
277353.575,215.508,-604.852,0,0
277613.9,214.76,-608.069,0,0
277874.225,213.734,-611.177,0,0
278134.55,212.34,-614.146,0,0
278394.875,210.702,-616.925,0,0
278655.2,208.813,-619.446,0,0
278915.525,206.762,-621.792,0,0
279175.85,204.719,-623.906,0,0
279436.175,202.488,-625.918,0,0
279696.5,200.079,-627.669,0,0
279956.825,197.601,-629.26,0,0
280217.15,195.094,-630.695,0,0
280477.475,192.499,-631.831,0,0
280737.8,189.956,-632.822,0,0
280998.125,187.515,-633.656,0,0
281258.45,185.011,-634.464,0,0
281518.775,182.583,-635.221,0,0
281779.1,180.055,-635.951,0,0
282039.425,177.406,-636.655,0,0
282299.75,174.628,-637.226,0,0
282560,171.683,-637.639,0,0
282820,168.594,-637.834,0,0
283081,165.427,-637.711,0,0
283341,162.229,-637.217,0,0
283601,159.197,-636.399,0,0
283862,156.473,-635.242,0,0
284122,154.148,-634.087,0,0
284382,152.066,-633.016,0,0
284643,150.056,-632.145,0,0
284903,147.945,-631.524,0,0
285163,145.665,-630.88,0,0
285424,143.188,-630.174,0,0
285684,140.585,-629.331,0,0
285944,137.803,-628.25,0,0
286205,135.005,-626.918,0,0
286465,132.131,-625.316,0,0
286725,129.278,-623.357,0,0
286986,126.535,-621.094,0,0
287246,123.909,-618.541,0,0
287506,121.484,-615.713,0,0
287767,119.277,-612.545,0,0
288027,117.344,-609.108,0,0
288287,115.807,-605.421,0,0
288548,114.729,-601.533,0,0
288808,113.997,-597.597,0,0
289068,113.857,-593.58,0,0
289329,114.124,-589.68,0,0
289589,114.862,-585.949,0,0
289849,115.97,-582.365,0,0
290109,117.489,-578.958,0,0
290370,119.255,-575.877,0,0
290630,121.368,-573.078,0,0
290890,123.764,-570.564,0,0
291151,126.436,-568.443,0,0
291411,129.36,-566.666,0,0
291671,132.496,-565.456,0,0
291932,135.791,-564.864,0,0
292192,138.971,-564.925,0,0
292452,141.953,-565.563,0,0
292713,144.597,-566.777,0,0
292973,146.728,-568.405,0,0
293233,148.318,-570.304,0,0
293494,149.3,-572.353,0,0
293754,149.772,-574.376,0,0
294014,149.66,-576.21,0,0
294275,149.136,-577.688,0,0
294535,148.345,-578.809,0,0
294795,147.496,-579.461,0,0
295056,146.634,-579.683,0,0
295316,145.959,-579.582,0,0
295576,145.63,-579.11,0,0
295837,145.86,-578.474,0,0
296097,146.657,-577.967,0,0
296357,147.993,-577.984,0,0
296618,149.589,-578.69,0,0
296878,151.075,-580.204,0,0
297138,152.077,-582.423,0,0
297399,152.369,-585.038,0,0
297659,151.921,-587.707,0,0
297919,150.83,-590.209,0,0
298180,149.259,-592.424,0,0
298440,147.358,-594.244,0,0
298700.2,145.247,-595.665,0,0
298960.525,143.059,-596.797,0,0
299220.85,140.848,-597.596,0,0
299481.175,138.609,-598.153,0,0
299741.5,136.396,-598.489,0,0
300001.825,134.135,-598.582,0,0
300262.15,132.003,-598.399,0,0
300522.475,130.012,-598.017,0,0
300782.8,128.191,-597.489,0,0
301043.125,126.509,-596.872,0,0
301303.45,125.012,-596.183,0,0
301563.775,123.644,-595.486,0,0
301824.1,122.436,-594.787,0,0
302084.425,121.371,-594.116,0,0
302344.75,120.412,-593.499,0,0
302605.075,119.56,-592.953,0,0
302865.4,118.787,-592.568,0,0
303125.725,117.991,-592.298,0,0
303386.05,117.196,-592.134,0,0
303646.375,116.323,-592.118,0,0
303906.7,115.355,-592.173,0,0
304167.025,114.24,-592.251,0,0
304427.35,113.021,-592.323,0,0
304687.675,111.685,-592.352,0,0
304948.0,110.252,-592.426,0,0
305208.325,108.687,-592.367,0,0
305468.65,107.047,-592.241,0,0
305728.975,105.316,-591.977,0,0
305989.3,103.557,-591.544,0,0
306249.625,101.82,-591.009,0,0
306509.95,100.138,-590.36,0,0
306770.275,98.4706,-589.615,0,0
307030.6,96.8714,-588.833,0,0
307290.925,95.27,-587.954,0,0
307551.25,93.7625,-587.063,0,0
307811.575,92.2632,-586.109,0,0
308071.9,90.7983,-585.111,0,0
308332.225,89.3626,-584.079,0,0
308592.55,87.9741,-582.988,0,0
308852.875,86.6067,-581.849,0,0
309113.2,85.3371,-580.697,0,0
309373.525,84.1081,-579.508,0,0
309633.85,82.9357,-578.35,0,0
309894.175,81.7427,-577.164,0,0
310154.5,80.6079,-575.935,0,0
310414.825,79.4889,-574.73,0,0
310675.15,78.4109,-573.454,0,0
310935.475,77.3867,-572.221,0,0
311195.8,76.3616,-570.926,0,0
311456.125,75.3715,-569.615,0,0
311716.45,74.4428,-568.309,0,0
311976.775,73.5253,-566.982,0,0
312237.1,72.663,-565.653,0,0
312497.425,71.836,-564.302,0,0
312757.75,71.0492,-562.972,0,0
313018.075,70.3249,-561.637,0,0
313278.4,69.5949,-560.35,0,0
313538.725,68.8872,-558.996,0,0
313799.05,68.2126,-557.694,0,0
314059.375,67.5703,-556.367,0,0
314319.7,66.9216,-555.058,0,0
314580,66.321,-553.761,0,0
314840,65.7883,-552.427,0,0
315101,65.2244,-551.105,0,0
315361,64.7659,-549.873,0,0
315621,64.2089,-548.63,0,0
315882,63.7185,-547.363,0,0
316142,63.1281,-546.07,0,0
316402,62.7052,-544.779,0,0
316663,62.249,-543.506,0,0
316923,61.7294,-542.082,0,0
317183,61.3492,-540.859,0,0
317444,61.0278,-539.566,0,0
317704,60.5792,-538.269,0,0
317964,60.3365,-537.027,0,0
318225,60.0721,-535.722,0,0
318485,59.6998,-534.491,0,0
318745,59.5071,-533.258,0,0
319006,59.2566,-532.078,0,0
319266,59.05,-530.847,0,0
319526,58.858,-529.727,0,0
319787,58.6135,-528.534,0,0
320047,58.4073,-527.346,0,0
320307,58.106,-526.23,0,0
320567,57.9114,-525.11,0,0
320828,57.6831,-523.9,0,0
321088,57.4557,-522.734,0,0
321348,57.2502,-521.544,0,0
321609,57.0144,-520.435,0,0
321869,56.8278,-519.242,0,0
322129,56.6224,-518.114,0,0
322390,56.4942,-516.81,0,0
322650,56.3543,-515.682,0,0
322910,56.2133,-514.53,0,0
323171,56.1153,-513.283,0,0
323431,55.9625,-512.065,0,0
323691,55.8121,-510.793,0,0
323952,55.7485,-509.526,0,0
324212,55.69,-508.247,0,0
324472,55.728,-506.908,0,0
324733,55.7069,-505.503,0,0
324993,55.815,-504.089,0,0
325253,56.041,-502.736,0,0
325514,56.4034,-501.36,0,0
325774,56.9376,-499.989,0,0
326034,57.3461,-498.687,0,0
326295,57.9995,-497.489,0,0
326555,58.6371,-496.443,0,0
326815,59.4417,-495.525,0,0
327076,60.1139,-494.633,0,0
327336,60.8218,-493.966,0,0
327596,61.3618,-493.323,0,0
327857,61.9498,-492.816,0,0
328117,62.4453,-492.28,0,0
328377,62.9577,-491.798,0,0
328638,63.2863,-491.284,0,0
328898,63.6586,-490.766,0,0
329158,64.1086,-490.281,0,0
329419,64.563,-489.826,0,0
329679,65.0253,-489.477,0,0
329939,65.4303,-489.074,0,0
330200,65.8323,-488.87,0,0
330460,66.1597,-488.606,0,0
330720.15,66.4702,-488.439,0,0
330980.475,66.7449,-488.347,0,0
331240.8,66.9615,-488.263,0,0
331501.125,67.2025,-488.207,0,0
331761.45,67.1855,-488.235,0,0
332021.775,67.2166,-488.266,0,0
332282.1,67.1868,-488.303,0,0
332542.425,67.0354,-488.297,0,0
332802.75,66.7929,-488.345,0,0
333063.075,66.4052,-488.348,0,0
333323.4,65.9562,-488.259,0,0
333583.725,65.4204,-488.068,0,0
333844.05,64.9082,-487.808,0,0
334104.375,64.3643,-487.482,0,0
334364.7,63.8307,-487.12,0,0
334625.025,63.284,-486.608,0,0
334885.35,62.829,-486.162,0,0
335145.675,62.356,-485.548,0,0
335406.0,61.892,-485.005,0,0
335666.325,61.4431,-484.443,0,0
335926.65,60.9856,-483.877,0,0
336186.975,60.5485,-483.176,0,0
336447.3,60.1698,-482.502,0,0
336707.625,59.7605,-481.899,0,0
336967.95,59.3686,-481.222,0,0
337228.275,58.9978,-480.504,0,0
337488.6,58.6425,-479.813,0,0
337748.925,58.2486,-479.131,0,0
338009.25,57.9002,-478.363,0,0
338269.575,57.5737,-477.623,0,0
338529.9,57.2747,-476.925,0,0
338790.225,56.9675,-476.083,0,0
339050.55,56.6302,-475.35,0,0
339310.875,56.3571,-474.543,0,0
339571.2,56.0571,-473.718,0,0
339831.525,55.7942,-472.955,0,0
340091.85,55.5579,-472.04,0,0
340352.175,55.308,-471.255,0,0
340612.5,55.0447,-470.382,0,0
340872.825,54.858,-469.54,0,0
341133.15,54.5971,-468.663,0,0
341393.475,54.4243,-467.801,0,0
341653.8,54.2953,-466.905,0,0
341914.125,54.1468,-465.993,0,0
342174.45,54.0018,-465.115,0,0
342434.775,53.9045,-464.22,0,0
342695.1,53.7656,-463.313,0,0
342955.425,53.6999,-462.407,0,0
343215.75,53.6346,-461.521,0,0
343476.075,53.5676,-460.497,0,0
343736.4,53.5738,-459.655,0,0
343996.725,53.5687,-458.71,0,0
344257.05,53.6673,-457.796,0,0
344517.375,53.6922,-456.853,0,0
344777.7,53.7598,-455.969,0,0
345038.025,53.892,-455.052,0,0
345298.35,53.964,-454.192,0,0
345558.675,54.1513,-453.297,0,0
345819.0,54.2744,-452.418,0,0
346079.325,54.447,-451.562,0,0
346339.65,54.6304,-450.743,0,0
346599.975,54.8321,-449.946,0,0
346860,55.0578,-449.102,0,0
347121,55.2816,-448.298,0,0
347381,55.5349,-447.523,0,0
347641,55.7715,-446.746,0,0
347902,56.0491,-445.974,0,0
348162,56.2756,-445.192,0,0
348422,56.6015,-444.449,0,0
348683,56.8985,-443.729,0,0
348943,57.2754,-443.03,0,0
349203,57.5872,-442.308,0,0
349464,57.9613,-441.624,0,0
349724,58.36,-441.031,0,0
349984,58.6822,-440.421,0,0
350245,59.0991,-439.826,0,0
350505,59.4689,-439.264,0,0
350765,59.8711,-438.785,0,0
351025,60.2504,-438.283,0,0
351286,60.6381,-437.859,0,0
351546,60.9351,-437.423,0,0
351806,61.2577,-437.013,0,0
352067,61.5744,-436.628,0,0
352327,61.8269,-436.252,0,0
352587,62.0722,-435.804,0,0
352848,62.272,-435.428,0,0
353108,62.4839,-435.021,0,0
353368,62.6934,-434.572,0,0
353629,62.9038,-434.092,0,0
353889,63.1723,-433.689,0,0
354149,63.4315,-433.225,0,0
354410,63.6393,-432.81,0,0
354670,63.89,-432.376,0,0
354930,64.1511,-431.947,0,0
355191,64.3588,-431.543,0,0
355451,64.6296,-431.157,0,0
355711,64.871,-430.646,0,0
355972,65.1382,-430.253,0,0
356232,65.4026,-429.844,0,0
356492,65.7599,-429.362,0,0
356753,66.0473,-429.009,0,0
357013,66.4256,-428.584,0,0
357273,66.8183,-428.231,0,0
357534,67.1994,-427.908,0,0
357794,67.5958,-427.603,0,0
358054,67.9641,-427.385,0,0
358315,68.3654,-427.132,0,0
358575,68.7461,-426.966,0,0
358835,69.1943,-426.795,0,0
359096,69.4962,-426.657,0,0
359356,69.8739,-426.598,0,0
359616,70.1503,-426.569,0,0
359877,70.4797,-426.557,0,0
360137,70.6481,-426.549,0,0
360397,70.8821,-426.507,0,0
360658,71.0172,-426.547,0,0
360918,71.2104,-426.496,0,0
361178,71.3626,-426.528,0,0
361438,71.4117,-426.518,0,0
361699,71.5234,-426.58,0,0
361959,71.5594,-426.581,0,0
362219,71.5679,-426.607,0,0
362480,71.6248,-426.627,0,0
362740.1,71.5894,-426.629,0,0
363000.425,71.5992,-426.631,0,0
363260.75,71.4978,-426.622,0,0
363521.075,71.4578,-426.63,0,0
363781.4,71.3138,-426.587,0,0
364041.725,71.2007,-426.595,0,0
364302.05,71.0241,-426.545,0,0
364562.375,70.8555,-426.382,0,0
364822.7,70.683,-426.295,0,0
365083.025,70.4501,-426.166,0,0
365343.35,70.3089,-426.062,0,0
365603.675,70.1633,-425.872,0,0
365864.0,69.942,-425.65,0,0
366124.325,69.8495,-425.48,0,0
366384.65,69.6503,-425.253,0,0
366644.975,69.5207,-424.984,0,0
366905.3,69.3676,-424.728,0,0
367165.625,69.2581,-424.471,0,0
367425.95,69.1214,-424.202,0,0
367686.275,69.0913,-423.915,0,0
367946.6,69.05,-423.63,0,0
368206.925,69.0295,-423.353,0,0
368467.25,69.0359,-423.188,0,0
368727.575,69.1391,-422.98,0,0
368987.9,69.1386,-422.818,0,0
369248.225,69.1767,-422.76,0,0
369508.55,69.1048,-422.748,0,0
369768.875,69.0335,-422.693,0,0
370029.2,68.9075,-422.718,0,0
370289.525,68.7323,-422.688,0,0
370549.85,68.5612,-422.622,0,0
370810.175,68.284,-422.561,0,0
371070.5,68.0086,-422.406,0,0
371330.825,67.7846,-422.271,0,0
371591.15,67.532,-422.069,0,0
371851.475,67.3009,-421.859,0,0
372111.8,67.0798,-421.672,0,0
372372.125,66.9175,-421.44,0,0
372632.45,66.7477,-421.274,0,0
372892.775,66.5966,-421.139,0,0
373153.1,66.4129,-421.004,0,0
373413.425,66.1896,-420.884,0,0
373673.75,66.0268,-420.771,0,0
373934.075,65.7566,-420.654,0,0
374194.4,65.5082,-420.506,0,0
374454.725,65.2189,-420.392,0,0
374715.05,64.8799,-420.205,0,0
374975.375,64.5548,-420.055,0,0
375235.7,64.2651,-419.91,0,0
375496.025,63.9379,-419.702,0,0
375756.35,63.5576,-419.473,0,0
376016.675,63.2269,-419.269,0,0
376277.0,62.9085,-419.031,0,0
376537.325,62.5323,-418.736,0,0
376797.65,62.2806,-418.466,0,0
377057.975,61.9819,-418.239,0,0
377318.3,61.7244,-417.954,0,0
377578.625,61.42,-417.753,0,0
377838.95,61.1784,-417.572,0,0
378099.275,60.8625,-417.431,0,0
378359.6,60.4686,-417.322,0,0
378619.925,60.0487,-417.166,0,0
378880,59.5353,-416.992,0,0
379141,58.9732,-416.864,0,0
379401,58.3129,-416.59,0,0
379661,57.6297,-416.211,0,0
379922,56.9279,-415.757,0,0
380182,56.2315,-415.107,0,0
380442,55.6864,-414.375,0,0
380703,55.2636,-413.548,0,0
380963,54.9747,-412.753,0,0
381223,54.8471,-411.978,0,0
381483,54.8725,-411.28,0,0
381744,54.9215,-410.726,0,0
382004,54.9452,-410.304,0,0
382264,54.9365,-409.966,0,0
382525,54.8596,-409.788,0,0
382785,54.6851,-409.58,0,0
383045,54.4278,-409.364,0,0
383306,54.1214,-409.174,0,0
383566,53.777,-408.896,0,0
383826,53.3908,-408.593,0,0
384087,52.9509,-408.304,0,0
384347,52.4704,-407.938,0,0
384607,52.0864,-407.478,0,0
384868,51.6093,-407.061,0,0
385128,51.171,-406.589,0,0
385388,50.7183,-406.098,0,0
385649,50.2749,-405.609,0,0
385909,49.9006,-405.051,0,0
386169,49.4423,-404.44,0,0
386430,49.0238,-403.839,0,0
386690,48.6446,-403.229,0,0
386950,48.2913,-402.62,0,0
387211,47.9813,-401.945,0,0
387471,47.6134,-401.268,0,0
387731,47.3226,-400.625,0,0
387992,46.9954,-399.935,0,0
388252,46.7217,-399.213,0,0
388512,46.426,-398.492,0,0
388773,46.2274,-397.719,0,0
389033,46.0661,-396.973,0,0
389293,45.9428,-396.216,0,0
389554,45.8661,-395.455,0,0
389814,45.8154,-394.751,0,0
390074,45.7925,-394.038,0,0
390335,45.8192,-393.333,0,0
390595,45.846,-392.755,0,0
390855,45.9446,-392.197,0,0
391116,45.9942,-391.712,0,0
391376,46.0244,-391.296,0,0
391636,46.0326,-390.866,0,0
391896,46,-390.544,0,0
392157,45.863,-390.195,0,0
392417,45.7098,-389.852,0,0
392677,45.4884,-389.537,0,0
392938,45.2436,-389.19,0,0
393198,44.9068,-388.713,0,0
393458,44.5555,-388.308,0,0
393719,44.2003,-387.832,0,0
393979,43.7903,-387.268,0,0
394239,43.3952,-386.692,0,0
394500,43.0031,-386.016,0,0
394760.05,42.6164,-385.361,0,0
395020.375,42.2669,-384.587,0,0
395280.7,41.9549,-383.783,0,0
395541.025,41.6523,-382.944,0,0
395801.35,41.4512,-382.109,0,0
396061.675,41.2778,-381.261,0,0
396322.0,41.0947,-380.408,0,0
396582.325,41.01,-379.548,0,0
396842.65,40.92,-378.682,0,0
397102.975,40.874,-377.804,0,0
397363.3,40.8661,-376.935,0,0
397623.625,40.8943,-376.103,0,0
397883.95,40.9284,-375.297,0,0
398144.275,40.9978,-374.454,0,0
398404.6,41.0895,-373.681,0,0
398664.925,41.2081,-372.875,0,0
398925.25,41.313,-372.139,0,0
399185.575,41.4582,-371.375,0,0
399445.9,41.6555,-370.656,0,0
399706.225,41.7949,-369.937,0,0
399966.55,41.9799,-369.282,0,0
400006.6,42.0008,-369.135,0,0