File: Accelerated corrosion test data/2025-10-22_09-25-28/sample_4.csv
Frequency (Hz),Impedance (ohms),Phase (Radians),Temperature (C),Humidity (%)
10000.0,262.905,-11936.5,0,0
10260.325,259.875,-11637.8,0,0
10520.65,250.127,-11351.1,0,0
10780.975,244.214,-11078.8,0,0
11041.3,239.757,-10818.8,0,0
11301.625,233.788,-10574.5,0,0
11561.95,228.291,-10337.1,0,0
11822.275,223.919,-10111.3,0,0
12082.6,219.714,-9895.19,0,0
12342.925,214.746,-9686.89,0,0
12603.25,213.634,-9486.63,0,0
12863.575,207.255,-9298.51,0,0
13123.9,205.558,-9119.51,0,0
13384.225,199.057,-8939.39,0,0
13644.55,195.298,-8768.09,0,0
13904.875,192.984,-8600.83,0,0
14165.2,194.248,-8435.9,0,0
14425.525,198.354,-8289.93,0,0
14685.8,195.017,-8175.11,0,0
14946.175,181.479,-8017.62,0,0
15206.5,180.306,-7871.46,0,0
15466.825,199.2,-7725.68,0,0
15727.15,185.109,-7627.42,0,0
15987.5,186.705,-7513.94,0,0
16247.8,170.933,-7381.8,0,0
16508.125,189.677,-7259.88,0,0
16768.45,180.733,-7154.86,0,0
17028.775,167.318,-7063.34,0,0
17289.1,159.43,-6950.31,0,0
17549.425,158.232,-6845.48,0,0
17809.75,154.739,-6744.92,0,0
18070.075,151.63,-6646.04,0,0
18330.4,152.857,-6550.63,0,0
18590.725,151.963,-6460.07,0,0
18851.05,149.933,-6375.36,0,0
19111.375,144.628,-6285.69,0,0
19371.7,142.082,-6199.93,0,0
19632.025,141.109,-6115.07,0,0
19892.35,143.956,-6035.18,0,0
20152.675,142.887,-5957.18,0,0
20413.0,140.063,-5882.43,0,0
20673.3,140.601,-5808.12,0,0
20933.65,137.006,-5733.55,0,0
21193.975,140.732,-5658.59,0,0
21454.3,152.576,-5592.38,0,0
21714.625,147.941,-5537.24,0,0
21974.9,148.654,-5465.66,0,0
22235.275,147.334,-5421.84,0,0
22495.6,134.828,-5362.37,0,0
22755.925,127.348,-5297.04,0,0
23016.25,124.559,-5234.78,0,0
23276.6,122.383,-5174.5,0,0
23536.9,119.786,-5117.01,0,0
23797.225,118.096,-5059.32,0,0
24057.55,116.446,-5003.55,0,0
24317.875,115.337,-4948.95,0,0
24578.2,113.903,-4895.16,0,0
24838.525,113.555,-4842.3,0,0
25098.85,114.103,-4791.02,0,0
25359.175,112.636,-4743.78,0,0
25619.5,111.47,-4693.95,0,0
25879.8,110.477,-4649.66,0,0
26140.1,107.682,-4601.01,0,0
26400.5,107.13,-4553.82,0,0
26660.8,105.442,-4507.12,0,0
26921.1,106.305,-4463.04,0,0
27181.4,105.659,-4418.09,0,0
27441.8,105.46,-4373.05,0,0
27702.1,109.326,-4328.8,0,0
27962.4,115.996,-4287.74,0,0
28222.7,120.299,-4259.67,0,0
28483.1,112.805,-4224.05,0,0
28743.4,108.411,-4183.32,0,0
29003.7,112.296,-4139.81,0,0
29264,118.844,-4110.9,0,0
29524.4,112.836,-4080.58,0,0
29784.7,107.964,-4048.53,0,0
30045,105.987,-4011.22,0,0
30305.3,101.583,-3977.31,0,0
30565.7,99.2867,-3941.52,0,0
30826,97.8675,-3906.51,0,0
31086.3,97.1765,-3871.81,0,0
31346.6,98.6797,-3839.14,0,0
31607,96.6723,-3807.19,0,0
31867.3,97.7237,-3775.71,0,0
32127.6,99.8107,-3744.76,0,0
32387.9,98.3466,-3719.5,0,0
32648.3,96.2162,-3689.15,0,0
32908.6,94.5782,-3662,0,0
33168.9,92.0136,-3632.56,0,0
33429.2,89.4327,-3603.94,0,0
33689.6,87.6322,-3574.55,0,0
33949.9,87.0004,-3545.8,0,0
34210.2,86.8274,-3517.79,0,0
34470.5,85.365,-3491.97,0,0
34730.9,84.3374,-3464.25,0,0
34991.2,84.0398,-3437.77,0,0
35251.5,83.3544,-3411.8,0,0
35511.8,82.7055,-3386.54,0,0
35772.2,81.9947,-3361.23,0,0
36032.5,81.3111,-3336.4,0,0
36292.8,80.5228,-3311.59,0,0
36553.1,80.0946,-3286.56,0,0
36813.5,79.8295,-3262.4,0,0
37073.8,80.1654,-3239.67,0,0
37334.1,78.7467,-3216.72,0,0
37594.4,78.4454,-3193.32,0,0
37854.8,78.5854,-3170.96,0,0
38115.1,77.5513,-3149.24,0,0
38375.4,76.677,-3126.62,0,0
38635.7,76.3834,-3104.46,0,0
38896.1,76.6543,-3082.82,0,0
39156.4,76.2107,-3061.74,0,0
39416.7,75.844,-3040.38,0,0
39677,75.9003,-3018.76,0,0
39937.4,76.8522,-2997.58,0,0
40197.7,78.6917,-2977.33,0,0
40458,80.0419,-2959.24,0,0
40718.3,79.1536,-2941.84,0,0
40978.7,78.7011,-2922.01,0,0
41239,79.6701,-2903.73,0,0
41499.3,80.9606,-2886.24,0,0
41759.6,78.7384,-2869.4,0,0
42020,77.142,-2851.63,0,0
42280.275,76.0423,-2832.25,0,0
42540.6,78.2507,-2814.7,0,0
42800.925,77.6913,-2799.98,0,0
43061.25,74.8857,-2782.31,0,0
43321.575,75.1039,-2764.83,0,0
43581.9,73.7879,-2748.48,0,0
43842.225,72.8266,-2730.83,0,0
44102.55,73.2737,-2714.64,0,0
44362.875,71.987,-2697.67,0,0
44623.2,72.3508,-2680.65,0,0
44883.525,71.7456,-2665.66,0,0
45143.85,70.9856,-2649.56,0,0
45404.175,69.9741,-2633,0,0
45664.5,70.77,-2616.39,0,0
45924.825,71.73,-2601.72,0,0
46185.15,71.5016,-2587.47,0,0
46445.475,70.1753,-2571.87,0,0
46705.8,70.6958,-2557.12,0,0
46966.125,71.1127,-2542.45,0,0
47226.45,70.9431,-2528.66,0,0
47486.775,70.4396,-2515.25,0,0
47747.1,69.7233,-2501.46,0,0
48007.425,68.9733,-2487.28,0,0
48267.75,68.4383,-2474.2,0,0
48528.075,67.3686,-2460.25,0,0
48788.4,66.2734,-2446.18,0,0
49048.725,65.8298,-2432.12,0,0
49309.05,65.5626,-2418.27,0,0
49569.375,64.7783,-2404.9,0,0
49829.7,64.3833,-2390.9,0,0
50090.025,64.1725,-2377.81,0,0
50350.35,63.8848,-2364.51,0,0
50610.675,63.6627,-2351.14,0,0
50871.0,63.6603,-2338.15,0,0
51131.325,63.3963,-2325.28,0,0
51391.65,63.2283,-2312.28,0,0
51651.975,63.2459,-2299.5,0,0
51912.3,63.0403,-2286.69,0,0
52172.625,63.6202,-2273.84,0,0
52432.95,63.8137,-2261.9,0,0
52693.275,63.8734,-2248.93,0,0
52953.6,64.6624,-2236.19,0,0
53213.925,65.8526,-2224.11,0,0
53474.25,67.2219,-2212.1,0,0
53734.575,68.6663,-2200.64,0,0
53994.9,70.8283,-2189.2,0,0
54255.225,72.9024,-2179.39,0,0
54515.55,75.2008,-2170.74,0,0
54775.875,75.4081,-2163.22,0,0
55036.2,74.1304,-2154.78,0,0
55296.525,72.6928,-2145.14,0,0
55556.85,71.4374,-2135.95,0,0
55817.175,69.3404,-2125.84,0,0
56077.5,67.8249,-2115.26,0,0
56337.825,66.5335,-2104.53,0,0
56598.15,65.3516,-2093.18,0,0
56858.475,65.0115,-2081.85,0,0
57118.8,65.2665,-2070.69,0,0
57379.125,65.668,-2060.33,0,0
57639.45,65.7394,-2050.1,0,0
57899.775,65.7965,-2039.48,0,0
58160.1,66.1334,-2029.42,0,0
58420.4,66.9385,-2019.14,0,0
58680.7,67.5328,-2010.01,0,0
58941.1,66.8247,-1999.87,0,0
59201.4,67.8202,-1988.86,0,0
59461.7,70.2284,-1978.49,0,0
59722,72.6958,-1970.12,0,0
59982.4,74.5789,-1962.13,0,0
60242.7,75.3029,-1954.65,0,0
60503,77.042,-1946.42,0,0
60763.3,79.9436,-1939.97,0,0
61023.7,80.1956,-1936.58,0,0
61284,78.0226,-1931.73,0,0
61544.3,73.3916,-1925.08,0,0
61804.6,71.08,-1915.47,0,0
62065,69.5713,-1907.31,0,0
62325.3,67.8268,-1899.06,0,0
62585.6,65.1334,-1889.94,0,0
62845.9,64.1416,-1879.25,0,0
63106.3,64.2316,-1870.66,0,0
63366.6,63.1346,-1861.37,0,0
63626.9,63.5082,-1851.89,0,0
63887.2,63.7973,-1843.93,0,0
64147.6,62.7358,-1835.19,0,0
64407.9,63.1973,-1825.98,0,0
64668.2,63.6084,-1817.67,0,0
64928.5,63.9872,-1809.33,0,0
65188.9,64.2628,-1801.48,0,0
65449.2,64.3225,-1793.31,0,0
65709.5,64.4979,-1784.87,0,0
65969.8,65.8078,-1776.38,0,0
66230.2,66.931,-1769.42,0,0
66490.5,67.3346,-1762.16,0,0
66750.8,67.6467,-1754.86,0,0
67011.1,68.3376,-1747.14,0,0
67271.5,69.7319,-1739.87,0,0
67531.8,71.0461,-1733.46,0,0
67792.1,71.888,-1727.19,0,0
68052.4,72.757,-1721.45,0,0
68312.8,73.2669,-1716.05,0,0
68573.1,73.3739,-1710.76,0,0
68833.4,73.318,-1706.17,0,0
69093.7,71.4331,-1701.37,0,0
69354.1,69.1475,-1695.61,0,0
69614.4,66.9605,-1688.35,0,0
69874.7,66.1277,-1681.01,0,0
70135,65.3069,-1674.25,0,0
70395.4,64.0322,-1667.26,0,0
70655.7,63.7454,-1659.27,0,0
70916,64.7111,-1652.72,0,0
71176.3,64.3704,-1646.77,0,0
71436.7,63.986,-1641.01,0,0
71697,62.918,-1635.41,0,0
71957.3,61.0993,-1629.2,0,0
72217.6,59.6264,-1622.03,0,0
72478,58.7266,-1614.71,0,0
72738.3,58.0812,-1607.81,0,0
72998.6,56.9344,-1600.61,0,0
73258.9,56.6781,-1592.69,0,0
73519.3,57.062,-1585.39,0,0
73779.6,57.2362,-1578.75,0,0
74039.9,57.2787,-1571.69,0,0
74300.225,57.6363,-1564.96,0,0
74560.55,58.0393,-1558.21,0,0
74820.875,58.5343,-1551.72,0,0
75081.2,59.2235,-1545.26,0,0
75341.525,60.003,-1539.39,0,0
75601.85,60.3866,-1533.62,0,0
75862.175,60.593,-1527.52,0,0
76122.5,61.1853,-1521.55,0,0
76382.825,61.681,-1516.03,0,0
76643.15,61.8291,-1510.39,0,0
76903.475,61.9138,-1504.49,0,0
77163.8,62.8566,-1498.39,0,0
77424.125,63.9625,-1493.16,0,0
77684.45,64.8825,-1488.31,0,0
77944.775,65.4424,-1483.91,0,0
78205.1,65.3583,-1479.63,0,0
78465.425,65.1068,-1475.14,0,0
78725.75,64.4968,-1470.58,0,0
78986.075,63.7548,-1465.77,0,0
79246.4,62.9942,-1460.65,0,0
79506.725,62.17,-1455.37,0,0
79767.05,61.5637,-1449.87,0,0
80027.375,61.1584,-1444.41,0,0
80287.7,60.8768,-1438.9,0,0
80548.025,60.6927,-1433.45,0,0
80808.35,60.6531,-1428.11,0,0
81068.675,60.6809,-1422.97,0,0
81329.0,60.6058,-1417.93,0,0
81589.325,60.4609,-1412.94,0,0
81849.65,60.2104,-1407.97,0,0
82109.975,59.9472,-1403.04,0,0
82370.3,59.6523,-1397.94,0,0
82630.625,59.3649,-1393.01,0,0
82890.95,59.1526,-1388.01,0,0
83151.275,58.9017,-1383.14,0,0
83411.6,58.5298,-1378.1,0,0
83671.925,58.2507,-1373.1,0,0
83932.25,58.0143,-1368.11,0,0
84192.575,57.8483,-1363.14,0,0
84452.9,57.6717,-1358.26,0,0
84713.225,57.3992,-1353.35,0,0
84973.55,57.2116,-1348.47,0,0
85233.875,57.0996,-1343.63,0,0
85494.2,56.8217,-1338.77,0,0
85754.525,56.5819,-1334.05,0,0
86014.85,56.3482,-1329.27,0,0
86275.175,56.203,-1324.32,0,0
86535.5,56.2497,-1319.78,0,0
86795.825,55.8816,-1315.08,0,0
87056.15,55.6571,-1310.41,0,0
87316.475,55.4649,-1305.74,0,0
87576.8,55.2909,-1301.19,0,0
87837.125,55.0262,-1296.65,0,0
88097.45,54.4599,-1292.12,0,0
88357.775,53.8337,-1287.21,0,0
88618.1,53.5997,-1282.11,0,0
88878.425,53.5608,-1277.28,0,0
89138.75,53.477,-1272.65,0,0
89399.075,53.1743,-1267.84,0,0
89659.4,53.2754,-1263,0,0
89919.725,53.3044,-1258.32,0,0
90180,53.3279,-1253.69,0,0
90440.4,53.2138,-1249.21,0,0
90700.7,53.0777,-1244.65,0,0
90961,52.9696,-1240.06,0,0
91221.3,52.9864,-1235.29,0,0
91481.7,53.0629,-1230.57,0,0
91742,53.1684,-1225.96,0,0
92002.3,53.4793,-1221.39,0,0
92262.6,53.7802,-1216.93,0,0
92523,54.053,-1212.59,0,0
92783.3,54.3827,-1208.35,0,0
93043.6,54.6616,-1204.3,0,0
93303.9,54.7903,-1200.38,0,0
93564.3,54.9171,-1196.46,0,0
93824.6,54.837,-1192.64,0,0
94084.9,54.4469,-1188.81,0,0
94345.2,53.8972,-1184.75,0,0
94605.6,53.3496,-1180.45,0,0
94865.9,52.9982,-1176.02,0,0
95126.2,52.8571,-1171.47,0,0
95386.5,52.6186,-1166.98,0,0
95646.9,52.5405,-1162.42,0,0
95907.2,52.556,-1157.89,0,0
96167.5,52.7011,-1153.42,0,0
96427.8,52.8725,-1149.07,0,0
96688.2,53.0036,-1144.82,0,0
96948.5,53.0532,-1140.5,0,0
97208.8,53.1638,-1136.15,0,0
97469.1,53.3479,-1131.77,0,0
97729.5,53.4551,-1127.45,0,0
97989.8,53.7375,-1123.08,0,0
98250.1,54.0832,-1118.78,0,0
98510.4,54.4242,-1114.55,0,0
98770.8,54.7477,-1110.28,0,0
99031.1,55.2144,-1106.02,0,0
99291.4,55.652,-1101.8,0,0
99551.7,56.1685,-1097.64,0,0
99812.1,56.713,-1093.58,0,0
100072,57.3566,-1089.45,0,0
100333,58.1502,-1085.4,0,0
100593,59.2003,-1081.63,0,0
100853,60.0458,-1078.26,0,0
101114,60.6106,-1075.01,0,0
101374,61.1465,-1071.69,0,0
101634,61.7622,-1068.73,0,0
101895,61.7244,-1066.2,0,0
102155,61.0073,-1063.48,0,0
102415,59.7882,-1060.05,0,0
102676,58.7639,-1055.86,0,0
102936,58.0555,-1051.47,0,0
103196,57.5541,-1046.97,0,0
103457,57.2668,-1042.16,0,0
103717,57.3216,-1037.3,0,0
103977,57.6116,-1032.53,0,0
104238,58.0152,-1027.69,0,0
104498,58.7236,-1022.98,0,0
104758,59.589,-1018.27,0,0
105019,60.6565,-1013.61,0,0
105279,61.7931,-1009.36,0,0
105539,62.9429,-1005.02,0,0
105800,64.2105,-1000.8,0,0
106060,65.5675,-996.748,0,0
106320.175,66.9391,-992.776,0,0
106580.5,68.404,-988.967,0,0
106840.825,69.8878,-985.346,0,0
107101.15,71.1777,-981.847,0,0
107361.475,72.4083,-978.308,0,0
107621.8,73.5915,-974.597,0,0
107882.125,75.0276,-970.799,0,0
108142.45,76.7066,-967.207,0,0
108402.775,78.4157,-963.815,0,0
108663.1,80.0756,-960.545,0,0
108923.425,81.8738,-957.31,0,0
109183.75,83.8009,-954.225,0,0
109444.075,85.7121,-951.595,0,0
109704.4,87.3256,-949.111,0,0
109964.725,88.8455,-946.56,0,0
110225.05,90.4306,-944.057,0,0
110485.375,92.0434,-941.765,0,0
110745.7,93.4056,-939.565,0,0
111006.025,94.6726,-937.44,0,0
111266.35,95.7764,-935.285,0,0
111526.675,96.88,-932.979,0,0
111787.0,97.9986,-930.774,0,0
112047.325,99.2632,-928.585,0,0
112307.65,100.418,-926.596,0,0
112567.975,101.518,-924.625,0,0
112828.3,102.487,-922.705,0,0
113088.625,103.506,-920.928,0,0
113348.95,104.347,-919.2,0,0
113609.275,105.098,-917.44,0,0
113869.6,105.829,-915.677,0,0
114129.925,106.445,-913.892,0,0
114390.25,107.086,-912.079,0,0
114650.575,107.768,-910.463,0,0
114910.9,108.175,-908.991,0,0
115171.225,108.589,-907.329,0,0
115431.55,108.817,-905.73,0,0
115691.875,108.977,-904.093,0,0
115952.2,109.135,-902.48,0,0
116212.525,109.205,-900.824,0,0
116472.85,109.137,-899.139,0,0
116733.175,109.046,-897.413,0,0
116993.5,108.825,-895.628,0,0
117253.825,108.526,-893.745,0,0
117514.15,108.162,-891.714,0,0
117774.475,107.851,-889.539,0,0
118034.8,107.506,-887.144,0,0
118295.125,107.386,-884.648,0,0
118555.45,107.322,-882.105,0,0
118815.775,107.458,-879.388,0,0
119076.1,108.007,-876.634,0,0
119336.425,108.822,-873.984,0,0
119596.75,110.221,-871.689,0,0
119857.075,111.802,-870.199,0,0
120117.4,113.049,-869.44,0,0
120377.725,113.7,-869.083,0,0
120638.05,113.851,-869.136,0,0
120898.375,112.857,-869.187,0,0
121158.7,111.245,-868.475,0,0
121419.025,109.593,-867.064,0,0
121679.35,108.049,-865.333,0,0
121939.675,106.546,-863.263,0,0
122200.0,105.263,-860.932,0,0
122460,104.15,-858.482,0,0
122721,103.209,-855.959,0,0
122981,102.361,-853.48,0,0
123241,101.591,-850.968,0,0
123502,100.848,-848.473,0,0
123762,100.094,-845.877,0,0
124022,99.4395,-843.177,0,0
124283,98.9948,-840.481,0,0
124543,98.5951,-837.886,0,0
124803,98.3096,-835.251,0,0
125064,98.1204,-832.776,0,0
125324,97.9232,-830.445,0,0
125584,97.6949,-828.227,0,0
125845,97.4633,-826.07,0,0
126105,97.1046,-824.048,0,0
126365,96.5772,-822.077,0,0
126626,95.9516,-820.01,0,0
126886,95.3374,-817.965,0,0
127146,94.5845,-815.826,0,0
127406,93.9264,-813.782,0,0
127667,93.1344,-811.864,0,0
127927,92.1043,-809.947,0,0
128187,90.7974,-808.082,0,0
128448,89.1972,-805.894,0,0
128708,87.5262,-803.385,0,0
128968,85.9196,-800.665,0,0
129229,84.3323,-797.719,0,0
129489,82.7845,-794.573,0,0
129749,81.4177,-791.307,0,0
130010,80.0937,-787.931,0,0
130270,78.906,-784.446,0,0
130530,77.7674,-780.963,0,0
130791,76.7209,-777.291,0,0
131051,75.8418,-773.557,0,0
131311,75.0565,-769.808,0,0
131572,74.3791,-766.107,0,0
131832,73.7247,-762.338,0,0
132092,73.1515,-758.519,0,0
132353,72.7229,-754.691,0,0
132613,72.3649,-750.89,0,0
132873,72.0748,-747.051,0,0
133134,71.8584,-743.312,0,0
133394,71.6508,-739.561,0,0
133654,71.4341,-735.71,0,0
133915,71.3992,-731.834,0,0
134175,71.4412,-728.038,0,0
134435,71.5282,-724.261,0,0
134696,71.6117,-720.516,0,0
134956,71.7149,-716.738,0,0
135216,71.9239,-712.906,0,0
135477,72.2252,-709.15,0,0
135737,72.5725,-705.457,0,0
135997,73.0165,-701.765,0,0
136258,73.3696,-698.183,0,0
136518,73.7644,-694.556,0,0
136778,74.2366,-690.929,0,0
137039,74.7562,-687.479,0,0
137299,75.0705,-684.105,0,0
137559,75.2903,-680.56,0,0
137819,75.5812,-676.913,0,0
138080,75.9282,-673.23,0,0
138340.125,76.3075,-669.504,0,0
138600.45,76.7468,-665.734,0,0
138860.775,77.1962,-661.956,0,0
139121.1,77.7598,-658.079,0,0
139381.425,78.4567,-654.206,0,0
139641.75,79.1928,-650.462,0,0
139902.075,79.9299,-646.673,0,0
140162.4,80.6349,-642.85,0,0
140422.725,81.4618,-638.958,0,0
140683.05,82.4107,-635.074,0,0
140943.375,83.4172,-631.241,0,0
141203.7,84.5413,-627.418,0,0
141464.025,85.7188,-623.714,0,0
141724.35,86.8805,-620.041,0,0
141984.675,88.0606,-616.41,0,0
142245.0,89.2264,-612.788,0,0
142505.325,90.4054,-609.151,0,0
142765.65,91.6072,-605.532,0,0
143025.975,92.8741,-601.867,0,0
143286.3,94.1551,-598.283,0,0
143546.625,95.4263,-594.643,0,0
143806.95,96.7176,-591.026,0,0
144067.275,98.0651,-587.384,0,0
144327.6,99.4505,-583.72,0,0
144587.925,100.865,-580.084,0,0
144848.25,102.286,-576.381,0,0
145108.575,103.774,-572.66,0,0
145368.9,105.348,-568.914,0,0
145629.225,106.978,-565.169,0,0
145889.55,108.673,-561.435,0,0
146149.875,110.429,-557.721,0,0
146410.2,112.278,-553.972,0,0
146670.525,114.204,-550.286,0,0
146930.85,116.147,-546.694,0,0
147191.175,118.078,-543.03,0,0
147451.5,120.073,-539.316,0,0
147711.825,122.184,-535.582,0,0
147972.15,124.419,-531.917,0,0
148232.475,126.659,-528.307,0,0
148492.8,128.916,-524.678,0,0
148753.125,131.249,-521.009,0,0
149013.45,133.697,-517.388,0,0
149273.775,136.09,-513.829,0,0
149534.1,138.427,-510.058,0,0
149794.425,141.043,-506.047,0,0
150054.75,144.09,-502.148,0,0
150315.075,147.203,-498.509,0,0
150575.4,150.336,-494.932,0,0
150835.725,153.546,-491.322,0,0
151096.05,156.913,-487.695,0,0
151356.375,160.496,-484.093,0,0
151616.7,164.369,-480.581,0,0
151877.025,168.383,-477.294,0,0
152137.35,172.553,-474.068,0,0
152397.675,177.044,-471.046,0,0
152658.0,181.691,-468.46,0,0
152918.325,186.292,-466.149,0,0
153178.65,190.982,-464.043,0,0
153438.975,195.76,-462.303,0,0
153699.3,200.386,-460.992,0,0
153959.625,204.753,-459.877,0,0
154219.95,209.036,-458.945,0,0
154480,213.093,-458.282,0,0
154741,216.701,-457.806,0,0
155001,220.084,-456.988,0,0
155261,223.533,-455.929,0,0
155522,227.203,-454.993,0,0
155782,230.889,-454.381,0,0
156042,234.214,-454.001,0,0
156303,237.311,-453.339,0,0
156563,240.534,-452.651,0,0
156823,243.634,-451.935,0,0
157084,246.885,-451.262,0,0
157344,250.12,-450.788,0,0
157604,253.027,-450.365,0,0
157864,255.6,-449.677,0,0
158125,258.52,-448.459,0,0
158385,261.88,-447.19,0,0
158645,265.432,-446.267,0,0
158906,269.215,-445.197,0,0
159166,273.721,-444.399,0,0
159426,278.35,-444.885,0,0
159687,282.082,-446.017,0,0
159947,285.347,-446.833,0,0
160207,288.45,-447.647,0,0
160468,291.514,-448.517,0,0
160728,294.318,-449.692,0,0
160988,296.662,-450.689,0,0
161249,299.13,-451.448,0,0
161509,301.252,-452.534,0,0
161769,303.268,-453.43,0,0
162030,305.13,-454.393,0,0
162290,306.872,-455.391,0,0
162550,308.194,-456.428,0,0
162811,308.97,-457.143,0,0
163071,309.647,-457.31,0,0
163331,310.529,-457.325,0,0
163592,311.102,-457.253,0,0
163852,311.429,-456.48,0,0
164112,312.052,-455.017,0,0
164373,313.165,-453.118,0,0
164633,314.97,-451.21,0,0
164893,317.152,-449.462,0,0
165154,319.028,-447.681,0,0
165414,321.293,-445.383,0,0
165674,324.218,-442.69,0,0
165935,328.05,-440.213,0,0
166195,332.581,-438.054,0,0
166455,337.485,-436.434,0,0
166716,342.955,-435.099,0,0
166976,348.941,-434.521,0,0
167236,355.184,-434.937,0,0
167497,360.961,-436.114,0,0
167757,366.725,-437.464,0,0
168017,372.378,-439.295,0,0
168277,377.966,-441.626,0,0
168538,383.684,-444.201,0,0
168798,389.625,-447.408,0,0
169058,395.599,-451.681,0,0
169319,400.908,-457.093,0,0
169579,405.388,-462.907,0,0
169839,409.631,-468.961,0,0
170100,413.579,-476.151,0,0
170360.075,416.219,-484.247,0,0
170620.4,417.463,-492.701,0,0
170880.725,417.326,-500.969,0,0
171141.05,416.099,-508.752,0,0
171401.375,414.35,-516.029,0,0
171661.7,412.074,-523.396,0,0
171922.025,408.671,-530.8,0,0
172182.35,403.974,-537.504,0,0
172442.675,398.4,-543.322,0,0
172703.0,392.251,-548.08,0,0
172963.325,385.907,-551.86,0,0
173223.65,379.242,-555.014,0,0
173483.975,372.2,-557.2,0,0
173744.3,365.139,-558.243,0,0
174004.625,358.47,-558.526,0,0
174264.95,351.929,-558.265,0,0
174525.275,345.548,-557.296,0,0
174785.6,339.441,-555.899,0,0
175045.925,333.316,-553.84,0,0
175306.25,327.43,-551.139,0,0
175566.575,322.055,-547.62,0,0
175826.9,317.399,-543.701,0,0
176087.225,313.134,-539.598,0,0
176347.55,309.379,-535.102,0,0
176607.875,306.153,-530.466,0,0
176868.2,303.433,-525.689,0,0
177128.525,301.203,-520.924,0,0
177388.85,299.315,-516.224,0,0
177649.175,297.703,-511.507,0,0
177909.5,296.4,-506.761,0,0
178169.825,295.365,-501.952,0,0
178430.15,294.745,-497.134,0,0
178690.475,294.478,-492.426,0,0
178950.8,294.478,-487.861,0,0
179211.125,294.752,-483.392,0,0
179471.45,295.322,-479.093,0,0
179731.775,296.081,-475.08,0,0
179992.1,296.84,-471.273,0,0
180252.425,297.67,-467.675,0,0
180512.75,298.458,-464.168,0,0
180773.075,299.318,-460.719,0,0
181033.4,300.225,-457.389,0,0
181293.725,301.08,-454.203,0,0
181554.05,301.874,-451.068,0,0
181814.375,302.625,-447.957,0,0
182074.7,303.302,-444.856,0,0
182335.025,303.935,-441.77,0,0
182595.35,304.382,-438.632,0,0
182855.675,304.741,-435.311,0,0
183116.0,305.059,-431.792,0,0
183376.325,305.481,-428.02,0,0
183636.65,306.05,-424.122,0,0
183896.975,306.689,-420.101,0,0
184157.3,307.483,-415.929,0,0
184417.625,308.455,-411.606,0,0
184677.95,309.632,-407.258,0,0
184938.275,310.994,-402.921,0,0
185198.6,312.467,-398.606,0,0
185458.925,313.994,-394.348,0,0
185719.25,315.466,-390.088,0,0
185979.575,316.91,-385.647,0,0
186239.9,318.423,-380.944,0,0
186500,320.108,-376.084,0,0
186761,321.981,-371.072,0,0
187021,324.056,-365.921,0,0
187281,326.321,-360.68,0,0
187542,328.784,-355.304,0,0
187802,331.521,-349.789,0,0
188062,334.523,-344.231,0,0
188322,337.788,-338.663,0,0
188583,341.218,-333.034,0,0
188843,344.772,-327.292,0,0
189103,348.699,-321.398,0,0
189364,352.893,-315.537,0,0
189624,357.291,-309.544,0,0
189884,362.213,-303.343,0,0
190145,367.433,-297.269,0,0
190405,373.074,-291.272,0,0
190665,378.98,-285.225,0,0
190926,385.285,-279.282,0,0
191186,391.873,-273.165,0,0
191446,398.919,-267.235,0,0
191707,406.484,-261.374,0,0
191967,414.536,-255.652,0,0
192227,423.036,-250.175,0,0
192488,431.921,-245.05,0,0
192748,441.116,-240.089,0,0
193008,450.737,-235.52,0,0
193269,460.648,-231.16,0,0
193529,470.722,-227.162,0,0
193789,481.214,-223.477,0,0
194050,492.019,-220.087,0,0
194310,502.921,-217.096,0,0
194570,513.912,-214.188,0,0
194831,525.335,-211.538,0,0
195091,537.094,-209.135,0,0
195351,549.104,-207.131,0,0
195612,561.389,-205.157,0,0
195872,574.115,-203.446,0,0
196132,587.375,-202.034,0,0
196393,601.088,-201.131,0,0
196653,615.239,-200.633,0,0
196913,629.836,-200.582,0,0
197174,645.001,-201.108,0,0
197434,660.613,-202.343,0,0
197694,676.563,-204.264,0,0
197955,692.835,-206.858,0,0
198215,709.606,-210.028,0,0
198475,727.025,-213.934,0,0
198735,745.237,-218.937,0,0
198996,764.11,-225.608,0,0
199256,783.021,-233.996,0,0
199516,801.617,-244.067,0,0
199777,819.668,-255.589,0,0
200037,837.201,-268.455,0,0
200297,853.987,-282.673,0,0
200558,870.111,-298.217,0,0
200818,885.295,-314.917,0,0
201078,899.416,-332.728,0,0
201339,912.129,-351.923,0,0
201599,923.337,-371.715,0,0
201859,933.048,-391.825,0,0
202120,941.513,-412.062,0,0
202380.025,949.385,-432.488,0,0
202640.35,955.937,-453.515,0,0
202900.675,961.388,-474.751,0,0
203161.0,965.938,-496.488,0,0
203421.325,969.023,-518.827,0,0
203681.65,970.034,-541.265,0,0
203941.975,969.267,-562.829,0,0
204202.3,967.737,-583.328,0,0
204462.625,965.604,-603.29,0,0
204722.95,963.326,-623.411,0,0
204983.275,959.754,-643.532,0,0
205243.6,954.852,-663.403,0,0
205503.925,949.122,-682.149,0,0
205764.25,943.311,-700.542,0,0
206024.575,936.88,-718.687,0,0
206284.9,929.45,-737.144,0,0
206545.225,920.873,-755.087,0,0
206805.55,911.403,-772.695,0,0
207065.875,900.711,-789.58,0,0
207326.2,888.735,-805.774,0,0
207586.525,875.884,-820.689,0,0
207846.85,862.523,-834.463,0,0
208107.175,848.843,-847.19,0,0
208367.5,834.577,-859.158,0,0
208627.825,819.595,-869.995,0,0
208888.15,804.142,-879.176,0,0
209148.475,788.578,-887.007,0,0
209408.8,773.419,-893.306,0,0
209669.125,758.928,-898.713,0,0
209929.45,744.793,-903.083,0,0
210189.775,731.042,-906.943,0,0
210450.1,717.616,-910.273,0,0
210710.425,704.436,-912.489,0,0
210970.75,692.115,-914.291,0,0
211231.075,680.242,-915.367,0,0
211491.4,669.077,-916.266,0,0
211751.725,658.068,-916.914,0,0
212012.05,647.283,-917.164,0,0
212272.375,637.046,-917.005,0,0
212532.7,627.221,-916.621,0,0
212793.025,617.444,-916.108,0,0
213053.35,607.719,-914.837,0,0
213313.675,598.851,-912.634,0,0
213574.0,591.117,-910.156,0,0
213834.325,584.159,-907.734,0,0
214094.65,578.024,-905.343,0,0
214354.975,572.694,-903.579,0,0
214615.3,567.967,-902.123,0,0
214875.625,563.45,-901.385,0,0
215135.95,558.933,-901.067,0,0
215396.275,554.296,-901.322,0,0
215656.6,549.381,-901.84,0,0
215916.925,544.039,-902.419,0,0
216177.25,538.701,-902.672,0,0
216437.575,533.169,-902.819,0,0
216697.9,527.662,-902.622,0,0
216958.225,522.56,-902.266,0,0
217218.55,517.861,-902.078,0,0
217478.875,513.093,-902.027,0,0
217739.2,508.216,-902.16,0,0
217999.525,503.471,-902.093,0,0
218259.85,498.834,-902.107,0,0
218520,494.272,-902.348,0,0
218780,489.624,-902.751,0,0
219041,484.955,-903.13,0,0
219301,479.979,-903.54,0,0
219561,474.967,-903.83,0,0
219822,469.895,-904.197,0,0
220082,464.534,-904.258,0,0
220342,458.958,-903.956,0,0
220603,453.611,-903.477,0,0
220863,448.473,-902.567,0,0
221123,443.613,-901.704,0,0
221384,438.893,-900.846,0,0
221644,434.368,-900.024,0,0
221904,429.705,-899.24,0,0
222165,425.114,-898.265,0,0
222425,420.578,-896.985,0,0
222685,416.405,-895.718,0,0
222946,412.793,-894.451,0,0
223206,409.112,-893.419,0,0
223466,405.739,-892.626,0,0
223727,402.366,-892.164,0,0
223987,398.914,-891.965,0,0
224247,395.096,-891.841,0,0
224508,391.212,-891.676,0,0
224768,387.19,-891.527,0,0
225028,383.251,-891.704,0,0
225289,379.116,-891.672,0,0
225549,374.749,-891.618,0,0
225809,370.226,-891.431,0,0
226070,365.554,-891.311,0,0
226330,360.897,-891.139,0,0
226590,355.893,-890.687,0,0
226851,350.899,-890.28,0,0
227111,345.662,-889.629,0,0
227371,340.281,-888.726,0,0
227632,334.919,-887.439,0,0
227892,329.493,-886.045,0,0
228152,324.095,-884.293,0,0
228413,318.803,-882.257,0,0
228673,313.671,-879.931,0,0
228933,308.73,-877.568,0,0
229193,303.753,-874.831,0,0
229454,299.167,-872.061,0,0
229714,294.669,-869.067,0,0
229974,290.588,-866.146,0,0
230235,286.414,-863.205,0,0
230495,282.387,-860.201,0,0
230755,278.417,-857.077,0,0
231016,274.547,-853.802,0,0
231276,270.895,-850.343,0,0
231536,267.549,-846.928,0,0
231797,264.344,-843.536,0,0
232057,261.285,-840.229,0,0
232317,258.341,-836.98,0,0
232578,255.398,-833.652,0,0
232838,252.587,-830.358,0,0
233098,249.794,-827.002,0,0
233359,247.102,-823.603,0,0
233619,244.544,-820.065,0,0
233879,242.373,-816.427,0,0
234140,240.369,-812.922,0,0
234400,238.386,-809.719,0,0
234660.3,236.507,-806.458,0,0
234920.625,234.771,-803.278,0,0
235180.95,233.041,-800.231,0,0
235441.275,231.257,-797.162,0,0
235701.6,229.419,-794.261,0,0
235961.925,227.651,-791.158,0,0
236222.25,225.859,-788.035,0,0
236482.575,224.204,-784.8,0,0
236742.9,222.677,-781.495,0,0
237003.225,221.323,-778.205,0,0
237263.55,220.17,-774.932,0,0
237523.875,219.134,-771.765,0,0
237784.2,218.186,-768.639,0,0
238044.525,217.343,-765.595,0,0
238304.85,216.613,-762.67,0,0
238565.175,215.917,-759.792,0,0
238825.5,215.333,-756.922,0,0
239085.825,214.844,-754.254,0,0
239346.15,214.285,-751.626,0,0
239606.475,213.937,-749.054,0,0
239866.8,213.475,-746.695,0,0
240127.125,213.083,-744.272,0,0
240387.45,212.813,-741.858,0,0
240647.775,212.531,-739.59,0,0
240908.1,212.307,-737.46,0,0
241168.425,212.08,-735.535,0,0
241428.75,211.891,-733.594,0,0
241689.075,211.665,-731.827,0,0
241949.4,211.371,-730.096,0,0
242209.725,211.072,-728.504,0,0
242470.05,210.668,-726.97,0,0
242730.375,210.189,-725.497,0,0
242990.7,209.718,-724.092,0,0
243251.025,209.123,-722.66,0,0
243511.35,208.432,-721.348,0,0
243771.675,207.616,-720.024,0,0
244032.0,206.652,-718.613,0,0
244292.325,205.682,-717.248,0,0
244552.65,204.668,-715.736,0,0
244812.975,203.611,-714.233,0,0
245073.3,202.354,-712.594,0,0
245333.625,201.337,-710.896,0,0
245593.95,200.167,-709.137,0,0
245854.275,198.985,-707.309,0,0
246114.6,197.929,-705.4,0,0
246374.925,196.751,-703.425,0,0
246635.25,195.714,-701.392,0,0
246895.575,194.722,-699.239,0,0
247155.9,193.697,-696.996,0,0
247416.225,192.838,-694.732,0,0
247676.55,192.035,-692.47,0,0
247936.875,191.366,-690.165,0,0
248197.2,190.747,-687.866,0,0
248457.525,190.203,-685.459,0,0
248717.85,189.777,-683.17,0,0
248978.175,189.509,-680.9,0,0
249238.5,189.249,-678.663,0,0
249498.825,189.065,-676.574,0,0
249759.15,188.959,-674.499,0,0
250019.475,188.829,-672.723,0,0
250279.8,188.8,-670.815,0,0
250540,188.575,-669.127,0,0
250800,188.36,-667.509,0,0
251061,187.879,-665.931,0,0
251321,187.471,-664.254,0,0
251581,186.899,-662.539,0,0
251842,186.282,-660.785,0,0
252102,185.602,-658.91,0,0
252362,184.906,-656.967,0,0
252623,184.247,-654.902,0,0
252883,183.673,-652.749,0,0
253143,183.15,-650.603,0,0
253404,182.69,-648.415,0,0
253664,182.196,-646.353,0,0
253924,181.575,-644.147,0,0
254185,180.885,-641.941,0,0
254445,180.169,-639.542,0,0
254705,179.37,-636.933,0,0
254966,178.804,-634.095,0,0
255226,178.263,-631.06,0,0
255486,177.864,-627.921,0,0
255747,177.702,-624.715,0,0
256007,177.57,-621.428,0,0
256267,177.69,-617.987,0,0
256528,177.924,-614.468,0,0
256788,178.396,-610.867,0,0
257048,179.153,-607.206,0,0
257309,180.11,-603.556,0,0
257569,181.28,-599.877,0,0
257829,182.673,-596.243,0,0
258090,184.3,-592.613,0,0
258350,186.103,-588.99,0,0
258610,188.244,-585.396,0,0
258871,190.723,-581.968,0,0
259131,193.436,-578.726,0,0
259391,196.413,-575.708,0,0
259651,199.53,-572.925,0,0
259912,202.69,-570.277,0,0
260172,205.987,-567.953,0,0
260432,209.341,-565.669,0,0
260693,212.832,-563.525,0,0
260953,216.465,-561.586,0,0
261213,220.303,-559.744,0,0
261474,224.271,-558.142,0,0
261734,228.401,-556.731,0,0
261994,232.67,-555.755,0,0
262255,237.105,-554.775,0,0
262515,241.856,-554.274,0,0
262775,246.71,-554.321,0,0
263036,251.459,-554.936,0,0
263296,255.986,-556.009,0,0
263556,260.173,-557.513,0,0
263817,264.032,-559.139,0,0
264077,267.548,-560.884,0,0
264337,270.859,-562.669,0,0
264598,273.963,-564.381,0,0
264858,277.147,-566.149,0,0
265118,280.26,-567.937,0,0
265379,283.497,-569.886,0,0
265639,286.707,-571.972,0,0
265899,290.027,-574.312,0,0
266160,293.427,-576.95,0,0
266420,296.742,-579.964,0,0
266680.25,299.951,-583.421,0,0
266940.575,302.925,-587.244,0,0
267200.9,305.642,-591.542,0,0
267461.225,307.967,-596.223,0,0
267721.55,309.714,-601.283,0,0
267981.875,310.786,-606.47,0,0
268242.2,311.483,-611.67,0,0
268502.525,311.618,-617.013,0,0
268762.85,311.087,-622.242,0,0
269023.175,309.991,-627.371,0,0
269283.5,308.277,-632.079,0,0
269543.825,306.191,-636.444,0,0
269804.15,303.91,-640.215,0,0
270064.475,301.519,-643.507,0,0
270324.8,299.126,-646.631,0,0
270585.125,296.725,-649.363,0,0
270845.45,294.456,-651.825,0,0
271105.775,292.381,-654.24,0,0
271366.1,290.376,-656.8,0,0
271626.425,288.05,-659.35,0,0
271886.75,285.483,-661.869,0,0
272147.075,282.762,-664.144,0,0
272407.4,279.847,-666.067,0,0
272667.725,277.019,-667.695,0,0
272928.05,274.44,-669.086,0,0
273188.375,271.876,-670.36,0,0
273448.7,269.57,-671.762,0,0
273709.025,267.305,-673.171,0,0
273969.35,265.032,-674.805,0,0
274229.675,262.533,-676.67,0,0
274490.0,259.699,-678.516,0,0
274750.325,256.629,-680.244,0,0
275010.65,253.315,-681.855,0,0
275270.975,249.769,-683.352,0,0
275531.3,245.98,-684.635,0,0
275791.625,241.905,-685.681,0,0
276051.95,237.615,-686.328,0,0
276312.275,233.102,-686.576,0,0
276572.6,228.555,-686.402,0,0
276832.925,224.062,-685.707,0,0
277093.25,219.664,-684.584,0,0
277353.575,215.32,-683.069,0,0
277613.9,211.217,-681.069,0,0
277874.225,207.43,-678.594,0,0
278134.55,204.14,-675.724,0,0
278394.875,201.425,-672.663,0,0
278655.2,199.234,-669.545,0,0
278915.525,197.565,-666.474,0,0
279175.85,196.389,-663.557,0,0
279436.175,195.631,-660.95,0,0
279696.5,195.118,-658.848,0,0
279956.825,194.683,-657.098,0,0
280217.15,193.874,-655.609,0,0
280477.475,192.974,-654.134,0,0
280737.8,192.009,-652.556,0,0
280998.125,191.085,-650.859,0,0
281258.45,190.289,-649.17,0,0
281518.775,189.706,-647.404,0,0
281779.1,189.282,-645.679,0,0
282039.425,188.968,-644.115,0,0
282299.75,188.755,-642.659,0,0
282560,188.665,-641.253,0,0
282820,188.753,-640.035,0,0
283081,188.869,-639.049,0,0
283341,188.993,-638.266,0,0
283601,189.046,-637.673,0,0
283862,189.031,-637.279,0,0
284122,188.919,-637.077,0,0
284382,188.588,-637.009,0,0
284643,188.032,-637,0,0
284903,187.366,-637.122,0,0
285163,186.402,-637.217,0,0
285424,185.119,-637.298,0,0
285684,183.518,-637.265,0,0
285944,181.665,-636.814,0,0
286205,179.737,-635.962,0,0
286465,177.964,-634.65,0,0
286725,176.505,-633.207,0,0
286986,175.275,-631.824,0,0
287246,173.99,-630.522,0,0
287506,172.581,-629.087,0,0
287767,171.128,-627.419,0,0
288027,169.719,-625.458,0,0
288287,168.527,-623.202,0,0
288548,167.602,-620.761,0,0
288808,166.976,-618.162,0,0
289068,166.638,-615.492,0,0
289329,166.673,-612.773,0,0
289589,166.976,-610.083,0,0
289849,167.585,-607.413,0,0
290109,168.555,-604.893,0,0
290370,169.903,-602.457,0,0
290630,171.595,-600.288,0,0
290890,173.541,-598.439,0,0
291151,175.679,-596.91,0,0
291411,178.012,-595.799,0,0
291671,180.367,-595.045,0,0
291932,182.743,-594.66,0,0
292192,185.077,-594.622,0,0
292452,187.378,-594.905,0,0
292713,189.574,-595.526,0,0
292973,191.626,-596.52,0,0
293233,193.46,-597.713,0,0
293494,195.12,-599.19,0,0
293754,196.669,-600.923,0,0
294014,197.885,-602.869,0,0
294275,198.842,-605.079,0,0
294535,199.41,-607.468,0,0
294795,199.599,-610.001,0,0
295056,199.403,-612.615,0,0
295316,198.725,-615.118,0,0
295576,197.665,-617.462,0,0
295837,196.295,-619.583,0,0
296097,194.726,-621.443,0,0
296357,192.923,-623.156,0,0
296618,191.056,-624.549,0,0
296878,189.032,-625.743,0,0
297138,186.973,-626.697,0,0
297399,184.897,-627.372,0,0
297659,182.901,-627.876,0,0
297919,180.962,-628.281,0,0
298180,179.071,-628.602,0,0
298440,177.199,-628.811,0,0
298700.2,175.302,-628.969,0,0
298960.525,173.465,-629.026,0,0
299220.85,171.577,-629.021,0,0
299481.175,169.763,-628.933,0,0
299741.5,167.925,-628.787,0,0
300001.825,166.066,-628.598,0,0
300262.15,164.312,-628.252,0,0
300522.475,162.518,-627.858,0,0
300782.8,160.783,-627.355,0,0
301043.125,159.112,-626.803,0,0
301303.45,157.495,-626.235,0,0
301563.775,155.944,-625.602,0,0
301824.1,154.405,-624.975,0,0
302084.425,152.938,-624.364,0,0
302344.75,151.439,-623.739,0,0
302605.075,149.905,-623.077,0,0
302865.4,148.389,-622.41,0,0
303125.725,146.859,-621.673,0,0
303386.05,145.313,-620.817,0,0
303646.375,143.831,-619.891,0,0
303906.7,142.406,-618.909,0,0
304167.025,141.015,-617.884,0,0
304427.35,139.687,-616.854,0,0
304687.675,138.399,-615.743,0,0
304948.0,137.218,-614.674,0,0
305208.325,136.023,-613.543,0,0
305468.65,134.86,-612.372,0,0
305728.975,133.731,-611.176,0,0
305989.3,132.657,-609.91,0,0
306249.625,131.703,-608.629,0,0
306509.95,130.813,-607.325,0,0
306770.275,130.023,-605.999,0,0
307030.6,129.295,-604.736,0,0
307290.925,128.665,-603.465,0,0
307551.25,128.113,-602.234,0,0
307811.575,127.657,-601.092,0,0
308071.9,127.24,-600.02,0,0
308332.225,126.867,-599.066,0,0
308592.55,126.465,-598.199,0,0
308852.875,126.006,-597.398,0,0
309113.2,125.505,-596.632,0,0
309373.525,124.961,-595.895,0,0
309633.85,124.35,-595.196,0,0
309894.175,123.66,-594.418,0,0
310154.5,122.944,-593.62,0,0
310414.825,122.261,-592.752,0,0
310675.15,121.565,-591.876,0,0
310935.475,120.917,-590.927,0,0
311195.8,120.263,-589.984,0,0
311456.125,119.661,-589.018,0,0
311716.45,119.049,-588.056,0,0
311976.775,118.525,-587.042,0,0
312237.1,117.998,-586.058,0,0
312497.425,117.509,-585.049,0,0
312757.75,117.095,-584.027,0,0
313018.075,116.728,-583.017,0,0
313278.4,116.393,-582.069,0,0
313538.725,116.155,-581.171,0,0
313799.05,115.889,-580.303,0,0
314059.375,115.642,-579.521,0,0
314319.7,115.328,-578.789,0,0
314580,115.022,-578.085,0,0
314840,114.674,-577.307,0,0
315101,114.424,-576.534,0,0
315361,114.144,-575.729,0,0
315621,113.78,-575.067,0,0
315882,113.531,-574.286,0,0
316142,113.252,-573.607,0,0
316402,113.017,-572.947,0,0
316663,112.81,-572.285,0,0
316923,112.56,-571.665,0,0
317183,112.358,-571.14,0,0
317444,112.126,-570.547,0,0
317704,111.9,-570,0,0
317964,111.679,-569.55,0,0
318225,111.514,-569.063,0,0
318485,111.292,-568.694,0,0
318745,111.029,-568.381,0,0
319006,110.821,-568.172,0,0
319266,110.528,-567.984,0,0
319526,110.146,-567.857,0,0
319787,109.709,-567.785,0,0
320047,109.152,-567.67,0,0
320307,108.488,-567.548,0,0
320567,107.782,-567.449,0,0
320828,107.036,-567.378,0,0
321088,106.117,-567.178,0,0
321348,105.216,-567.066,0,0
321609,104.186,-566.931,0,0
321869,103.089,-566.709,0,0
322129,101.89,-566.341,0,0
322390,100.563,-565.874,0,0
322650,99.2452,-565.423,0,0
322910,97.8654,-564.691,0,0
323171,96.4984,-563.896,0,0
323431,95.2722,-562.967,0,0
323691,93.988,-561.941,0,0
323952,92.8229,-560.853,0,0
324212,91.7037,-559.707,0,0
324472,90.6351,-558.49,0,0
324733,89.8026,-557.288,0,0
324993,88.7516,-556.091,0,0
325253,87.9237,-554.795,0,0
325514,87.0355,-553.489,0,0
325774,86.2688,-552.192,0,0
326034,85.6327,-550.896,0,0
326295,84.9614,-549.511,0,0
326555,84.2663,-548.271,0,0
326815,83.6686,-546.964,0,0
327076,83.0994,-545.67,0,0
327336,82.5492,-544.357,0,0
327596,81.9887,-543.117,0,0
327857,81.4013,-541.751,0,0
328117,80.909,-540.45,0,0
328377,80.3989,-539.026,0,0
328638,79.9032,-537.572,0,0
328898,79.4602,-536.077,0,0
329158,79.2419,-534.613,0,0
329419,78.9262,-533.091,0,0
329679,78.7654,-531.602,0,0
329939,78.7597,-530.136,0,0
330200,78.7297,-528.64,0,0
330460,78.7939,-527.161,0,0
330720.15,78.9029,-525.802,0,0
330980.475,79.2291,-524.509,0,0
331240.8,79.4837,-523.261,0,0
331501.125,79.87,-522.083,0,0
331761.45,80.216,-521.102,0,0
332021.775,80.6353,-520.161,0,0
332282.1,80.9418,-519.395,0,0
332542.425,81.2772,-518.73,0,0
332802.75,81.4746,-518.137,0,0
333063.075,81.6818,-517.55,0,0
333323.4,81.6877,-516.975,0,0
333583.725,81.7481,-516.536,0,0
333844.05,81.6234,-515.971,0,0
334104.375,81.5287,-515.464,0,0
334364.7,81.2837,-514.901,0,0
334625.025,81.0486,-514.289,0,0
334885.35,80.6819,-513.677,0,0
335145.675,80.3194,-513.053,0,0
335406.0,79.9524,-512.32,0,0
335666.325,79.6222,-511.571,0,0
335926.65,79.2648,-510.744,0,0
336186.975,78.8405,-509.92,0,0
336447.3,78.5523,-509.068,0,0
336707.625,78.1681,-508.117,0,0
336967.95,77.7656,-507.217,0,0
337228.275,77.4532,-506.24,0,0
337488.6,77.1209,-505.255,0,0
337748.925,76.7449,-504.203,0,0
338009.25,76.3908,-503.135,0,0
338269.575,76.1237,-501.998,0,0
338529.9,75.7552,-500.738,0,0
338790.225,75.5207,-499.43,0,0
339050.55,75.3589,-498.108,0,0
339310.875,75.2657,-496.801,0,0
339571.2,75.3398,-495.437,0,0
339831.525,75.3552,-494,0,0
340091.85,75.5601,-492.691,0,0
340352.175,75.7727,-491.316,0,0
340612.5,76.0674,-490.033,0,0
340872.825,76.4689,-488.717,0,0
341133.15,76.8805,-487.469,0,0
341393.475,77.416,-486.248,0,0
341653.8,78.0164,-484.999,0,0
341914.125,78.7618,-483.913,0,0
342174.45,79.4534,-482.907,0,0
342434.775,80.2514,-481.95,0,0
342695.1,81.0629,-481.158,0,0
342955.425,81.891,-480.424,0,0
343215.75,82.6751,-479.852,0,0
343476.075,83.5316,-479.247,0,0
343736.4,84.2671,-478.842,0,0
343996.725,85.0191,-478.462,0,0
344257.05,85.7967,-478.182,0,0
344517.375,86.4224,-478.041,0,0
344777.7,87.0368,-477.865,0,0
345038.025,87.5609,-477.776,0,0
345298.35,88.0391,-477.707,0,0
345558.675,88.4291,-477.742,0,0
345819.0,88.7387,-477.728,0,0
346079.325,89.0112,-477.73,0,0
346339.65,89.281,-477.808,0,0
346599.975,89.3798,-477.848,0,0
346860,89.4568,-477.898,0,0
347121,89.4528,-477.935,0,0
347381,89.3888,-477.896,0,0
347641,89.2888,-477.904,0,0
347902,89.1699,-477.819,0,0
348162,88.9543,-477.688,0,0
348422,88.8201,-477.625,0,0
348683,88.6503,-477.49,0,0
348943,88.3648,-477.367,0,0
349203,88.1262,-477.206,0,0
349464,87.8749,-477.095,0,0
349724,87.5187,-476.856,0,0
349984,87.1824,-476.657,0,0
350245,86.7938,-476.363,0,0
350505,86.3173,-476.069,0,0
350765,85.8823,-475.736,0,0
351025,85.4602,-475.327,0,0
351286,84.9775,-474.838,0,0
351546,84.5902,-474.296,0,0
351806,84.1316,-473.79,0,0
352067,83.7099,-473.127,0,0
352327,83.4436,-472.415,0,0
352587,83.1317,-471.75,0,0
352848,82.8409,-471.024,0,0
353108,82.6478,-470.35,0,0
353368,82.5397,-469.746,0,0
353629,82.3678,-469.071,0,0
353889,82.3117,-468.447,0,0
354149,82.1355,-467.875,0,0
354410,81.989,-467.278,0,0
354670,81.7849,-466.687,0,0
354930,81.6209,-466.098,0,0
355191,81.4534,-465.422,0,0
355451,81.2223,-464.81,0,0
355711,81.0901,-464.101,0,0
355972,81.0121,-463.439,0,0
356232,80.8883,-462.734,0,0
356492,80.8956,-462.061,0,0
356753,80.8927,-461.421,0,0
357013,80.8884,-460.841,0,0
357273,80.8476,-460.258,0,0
357534,80.8728,-459.74,0,0
357794,80.8738,-459.27,0,0
358054,80.75,-458.756,0,0
358315,80.6413,-458.252,0,0
358575,80.5167,-457.729,0,0
358835,80.3445,-457.274,0,0
359096,80.1233,-456.736,0,0
359356,79.8898,-456.128,0,0
359616,79.6766,-455.529,0,0
359877,79.4108,-454.889,0,0
360137,79.1601,-454.207,0,0
360397,78.9703,-453.483,0,0
360658,78.782,-452.664,0,0
360918,78.6433,-451.928,0,0
361178,78.5803,-451.065,0,0
361438,78.5466,-450.35,0,0
361699,78.5336,-449.531,0,0
361959,78.5119,-448.773,0,0
362219,78.4515,-448.094,0,0
362480,78.4629,-447.334,0,0
362740.1,78.3803,-446.583,0,0
363000.425,78.4716,-445.849,0,0
363260.75,78.4934,-445.067,0,0
363521.075,78.4896,-444.307,0,0
363781.4,78.5562,-443.531,0,0
364041.725,78.6108,-442.756,0,0
364302.05,78.6455,-442.03,0,0
364562.375,78.7013,-441.291,0,0
364822.7,78.7534,-440.507,0,0
365083.025,78.8318,-439.752,0,0
365343.35,78.9044,-438.991,0,0
365603.675,78.9612,-438.219,0,0
365864.0,79.0632,-437.424,0,0
366124.325,79.1072,-436.574,0,0
366384.65,79.2207,-435.735,0,0
366644.975,79.3154,-434.825,0,0
366905.3,79.5006,-433.923,0,0
367165.625,79.6657,-432.975,0,0
367425.95,79.8824,-431.999,0,0
367686.275,80.2203,-431.005,0,0
367946.6,80.5611,-430.011,0,0
368206.925,81.0095,-429.037,0,0
368467.25,81.4504,-428.124,0,0
368727.575,82.0555,-427.142,0,0
368987.9,82.6243,-426.228,0,0
369248.225,83.2061,-425.272,0,0
369508.55,83.8775,-424.39,0,0
369768.875,84.6464,-423.472,0,0
370029.2,85.4982,-422.629,0,0
370289.525,86.4251,-421.825,0,0
370549.85,87.4262,-421.072,0,0
370810.175,88.5286,-420.349,0,0
371070.5,89.7067,-419.841,0,0
371330.825,90.9333,-419.394,0,0
371591.15,92.1949,-419.077,0,0
371851.475,93.4516,-418.954,0,0
372111.8,94.72,-418.964,0,0
372372.125,95.8711,-419.121,0,0
372632.45,97.007,-419.419,0,0
372892.775,98.1117,-419.73,0,0
373153.1,99.01,-420.301,0,0
373413.425,99.8801,-420.86,0,0
373673.75,100.565,-421.518,0,0
373934.075,101.159,-422.174,0,0
374194.4,101.582,-422.827,0,0
374454.725,101.86,-423.509,0,0
374715.05,102.081,-424.147,0,0
374975.375,102.318,-424.673,0,0
375235.7,102.385,-425.277,0,0
375496.025,102.417,-425.786,0,0
375756.35,102.431,-426.264,0,0
376016.675,102.378,-426.73,0,0
376277.0,102.235,-427.165,0,0
376537.325,102.057,-427.551,0,0
376797.65,101.862,-427.837,0,0
377057.975,101.612,-428.112,0,0
377318.3,101.426,-428.224,0,0
377578.625,101.26,-428.343,0,0
377838.95,101.078,-428.427,0,0
378099.275,100.995,-428.515,0,0
378359.6,100.903,-428.567,0,0
378619.925,100.891,-428.674,0,0
378880,100.834,-428.85,0,0
379141,100.757,-429.041,0,0
379401,100.644,-429.327,0,0
379661,100.461,-429.503,0,0
379922,100.215,-429.717,0,0
380182,99.9638,-429.837,0,0
380442,99.5819,-429.947,0,0
380703,99.2878,-429.962,0,0
380963,99.0244,-429.945,0,0
381223,98.8013,-429.867,0,0
381483,98.6761,-429.795,0,0
381744,98.5785,-429.717,0,0
382004,98.52,-429.707,0,0
382264,98.506,-429.765,0,0
382525,98.4459,-429.799,0,0
382785,98.4119,-429.95,0,0
383045,98.3845,-430.077,0,0
383306,98.3281,-430.281,0,0
383566,98.2707,-430.529,0,0
383826,98.2334,-430.868,0,0
384087,98.1585,-431.308,0,0
384347,97.987,-431.866,0,0
384607,97.6007,-432.467,0,0
384868,97.0966,-433.028,0,0
385128,96.5036,-433.644,0,0
385388,95.7556,-434.149,0,0
385649,94.9235,-434.549,0,0
385909,93.94,-434.861,0,0
386169,92.9379,-435.125,0,0
386430,91.8836,-435.184,0,0
386690,90.6965,-435.201,0,0
386950,89.5974,-435.011,0,0
387211,88.4607,-434.687,0,0
387471,87.427,-434.259,0,0
387731,86.4291,-433.722,0,0
387992,85.5072,-433.096,0,0
388252,84.6818,-432.416,0,0
388512,83.9725,-431.63,0,0
388773,83.3681,-430.819,0,0
389033,82.7956,-430.061,0,0
389293,82.5743,-429.215,0,0
389554,82.3349,-428.461,0,0
389814,82.2319,-427.823,0,0
390074,82.1017,-427.256,0,0
390335,82.0269,-426.772,0,0
390595,81.9794,-426.402,0,0
390855,81.9392,-426.127,0,0
391116,81.8497,-425.923,0,0
391376,81.7132,-425.901,0,0
391636,81.4964,-425.83,0,0
391896,81.1258,-425.832,0,0
392157,80.7798,-425.778,0,0
392417,80.2827,-425.723,0,0
392677,79.7688,-425.724,0,0
392938,79.1673,-425.638,0,0
393198,78.5388,-425.554,0,0
393458,77.7892,-425.392,0,0
393719,77.0638,-425.222,0,0
393979,76.29,-424.94,0,0
394239,75.4487,-424.646,0,0
394500,74.6295,-424.242,0,0
394760.05,73.7725,-423.854,0,0
395020.375,73.0037,-423.308,0,0
395280.7,72.1987,-422.755,0,0
395541.025,71.344,-422.177,0,0
395801.35,70.6474,-421.539,0,0
396061.675,69.8281,-420.863,0,0
396322.0,69.1332,-420.162,0,0
396582.325,68.3602,-419.374,0,0
396842.65,67.6945,-418.607,0,0
397102.975,67.0426,-417.778,0,0
397363.3,66.3872,-416.889,0,0
397623.625,65.7467,-416.015,0,0
397883.95,65.1542,-415.089,0,0
398144.275,64.5795,-414.165,0,0
398404.6,64.0626,-413.163,0,0
398664.925,63.5762,-412.138,0,0
398925.25,63.1234,-411.106,0,0
399185.575,62.6764,-410.067,0,0
399445.9,62.3276,-409.023,0,0
399706.225,62.0003,-407.947,0,0
399966.55,61.7358,-406.878,0,0
400006.6,61.6883,-406.697,0,0