File: Accelerated corrosion test data/2025-10-22_09-25-28/sample_8.csv
Frequency (Hz),Impedance (ohms),Phase (Radians),Temperature (C),Humidity (%)
10000.0,302.589,-10989.9,0,0
10260.325,294.941,-10714,0,0
10520.65,287.819,-10451.9,0,0
10780.975,280.649,-10202.6,0,0
11041.3,274.479,-9964.75,0,0
11301.625,268.484,-9738.79,0,0
11561.95,262.874,-9520.9,0,0
11822.275,257.324,-9313.52,0,0
12082.6,255.84,-9113.7,0,0
12342.925,252.119,-8927.21,0,0
12603.25,247.745,-8745.62,0,0
12863.575,244.599,-8575.08,0,0
13123.9,235.699,-8409.23,0,0
13384.225,229.662,-8247.6,0,0
13644.55,226.926,-8092.73,0,0
13904.875,219.45,-7943.01,0,0
14165.2,214.696,-7797.24,0,0
14425.525,210.136,-7658.7,0,0
14685.8,207.115,-7523.45,0,0
14946.175,202.901,-7393.48,0,0
15206.5,199.879,-7267.69,0,0
15466.825,196.735,-7147.26,0,0
15727.15,193.724,-7030.19,0,0
15987.5,190.388,-6916.85,0,0
16247.8,187.456,-6807.16,0,0
16508.125,184.629,-6700.43,0,0
16768.45,181.348,-6597.48,0,0
17028.775,178.937,-6497.11,0,0
17289.1,176.175,-6399.46,0,0
17549.425,173.319,-6305.13,0,0
17809.75,172.157,-6213.01,0,0
18070.075,169.069,-6125.64,0,0
18330.4,166.583,-6037.68,0,0
18590.725,164.747,-5952.22,0,0
18851.05,166.122,-5869.05,0,0
19111.375,164.407,-5789.66,0,0
19371.7,166.128,-5714.74,0,0
19632.025,163.603,-5641.36,0,0
19892.35,159.805,-5570.23,0,0
20152.675,158.035,-5497.48,0,0
20413.0,158.098,-5427.86,0,0
20673.3,158.528,-5361.05,0,0
20933.65,154.432,-5298.75,0,0
21193.975,150.327,-5234.16,0,0
21454.3,148.116,-5169.97,0,0
21714.625,146.399,-5107.42,0,0
21974.9,145.779,-5047.08,0,0
22235.275,145.46,-4988.75,0,0
22495.6,145.195,-4932.5,0,0
22755.925,143.143,-4878.02,0,0
23016.25,140.682,-4824.11,0,0
23276.6,137.443,-4771.34,0,0
23536.9,135.076,-4718.39,0,0
23797.225,133.157,-4666.69,0,0
24057.55,130.831,-4616.29,0,0
24317.875,129.536,-4566.28,0,0
24578.2,127.937,-4518.29,0,0
24838.525,126.687,-4469.84,0,0
25098.85,125.258,-4423.4,0,0
25359.175,123.631,-4378.09,0,0
25619.5,123.209,-4333.12,0,0
25879.8,122.166,-4289.17,0,0
26140.1,121.299,-4247.05,0,0
26400.5,119.811,-4204.74,0,0
26660.8,118.543,-4162.95,0,0
26921.1,118.312,-4121.71,0,0
27181.4,119.074,-4082.93,0,0
27441.8,117.333,-4043.32,0,0
27702.1,116.349,-4006.49,0,0
27962.4,114.734,-3969.21,0,0
28222.7,115.773,-3931.71,0,0
28483.1,114.069,-3896.3,0,0
28743.4,114.031,-3860.23,0,0
29003.7,112.742,-3826.41,0,0
29264,113.451,-3792.62,0,0
29524.4,111.727,-3759.05,0,0
29784.7,111.373,-3726.09,0,0
30045,111.018,-3694.25,0,0
30305.3,110.141,-3663.22,0,0
30565.7,108.479,-3632.18,0,0
30826,107.476,-3600.99,0,0
31086.3,106.672,-3570.42,0,0
31346.6,105.559,-3539.8,0,0
31607,105.07,-3510.58,0,0
31867.3,104.487,-3481.46,0,0
32127.6,104.028,-3452.77,0,0
32387.9,103.83,-3423.78,0,0
32648.3,103.484,-3396.07,0,0
32908.6,103.837,-3368.75,0,0
33168.9,103.509,-3341.85,0,0
33429.2,104.085,-3315.26,0,0
33689.6,104.424,-3289.84,0,0
33949.9,104.425,-3264.75,0,0
34210.2,104.859,-3239.63,0,0
34470.5,105.082,-3215.3,0,0
34730.9,105.347,-3190.84,0,0
34991.2,106.325,-3167.21,0,0
35251.5,107.454,-3144.61,0,0
35511.8,108.268,-3122.64,0,0
35772.2,108.466,-3101.43,0,0
36032.5,108.598,-3080.76,0,0
36292.8,108.597,-3060.02,0,0
36553.1,108.002,-3040.3,0,0
36813.5,106.462,-3020.42,0,0
37073.8,106.186,-3000.59,0,0
37334.1,104.727,-2981.43,0,0
37594.4,102.694,-2962.61,0,0
37854.8,100.344,-2942.84,0,0
38115.1,98.2614,-2923.35,0,0
38375.4,96.1022,-2903.64,0,0
38635.7,94.0754,-2884.09,0,0
38896.1,92.0451,-2864.57,0,0
39156.4,90.2414,-2844.8,0,0
39416.7,89.244,-2825.24,0,0
39677,88.0772,-2806.07,0,0
39937.4,86.5817,-2786.74,0,0
40197.7,86.1705,-2767.47,0,0
40458,86.198,-2748.98,0,0
40718.3,85.6908,-2731.77,0,0
40978.7,84.7053,-2714.2,0,0
41239,84.0069,-2696.26,0,0
41499.3,83.2772,-2678.85,0,0
41759.6,82.9779,-2662.13,0,0
42020,82.0213,-2644.95,0,0
42280.275,81.3187,-2628.03,0,0
42540.6,81.1534,-2611.2,0,0
42800.925,80.8826,-2594.69,0,0
43061.25,81.1643,-2578.55,0,0
43321.575,81.0893,-2563.58,0,0
43581.9,80.9589,-2548.52,0,0
43842.225,80.029,-2533.91,0,0
44102.55,78.8628,-2518.78,0,0
44362.875,78.1165,-2503.39,0,0
44623.2,77.4403,-2488.66,0,0
44883.525,76.5543,-2473.64,0,0
45143.85,76.1807,-2458.96,0,0
45404.175,75.4156,-2444.36,0,0
45664.5,74.9039,-2430.02,0,0
45924.825,74.3094,-2415.88,0,0
46185.15,73.724,-2401.49,0,0
46445.475,73.2296,-2387.69,0,0
46705.8,72.7341,-2373.81,0,0
46966.125,72.5385,-2360.3,0,0
47226.45,72.0543,-2346.75,0,0
47486.775,71.5769,-2333.49,0,0
47747.1,71.4104,-2320.33,0,0
48007.425,71.0076,-2307.35,0,0
48267.75,70.5089,-2294.21,0,0
48528.075,70.189,-2281.75,0,0
48788.4,69.8161,-2269.26,0,0
49048.725,69.3567,-2256.64,0,0
49309.05,68.8822,-2244.16,0,0
49569.375,68.4704,-2231.88,0,0
49829.7,68.1492,-2219.62,0,0
50090.025,67.8123,-2207.68,0,0
50350.35,67.585,-2195.61,0,0
50610.675,67.3222,-2183.76,0,0
50871.0,66.8774,-2172.16,0,0
51131.325,66.7682,-2160.37,0,0
51391.65,66.4816,-2148.77,0,0
51651.975,66.5212,-2137.42,0,0
51912.3,66.3955,-2126.21,0,0
52172.625,66.2719,-2115.27,0,0
52432.95,66.0017,-2104.26,0,0
52693.275,66.1201,-2093.25,0,0
52953.6,66.2849,-2082.53,0,0
53213.925,66.2965,-2072.15,0,0
53474.25,66.5394,-2061.9,0,0
53734.575,66.5763,-2052.41,0,0
53994.9,65.6051,-2042.66,0,0
54255.225,65.081,-2032.51,0,0
54515.55,64.6166,-2022.67,0,0
54775.875,64.0862,-2012.62,0,0
55036.2,63.6037,-2002.95,0,0
55296.525,62.8184,-1993.05,0,0
55556.85,62.1676,-1983.14,0,0
55817.175,61.5902,-1973.18,0,0
56077.5,61.1205,-1963.36,0,0
56337.825,60.7079,-1953.52,0,0
56598.15,60.367,-1943.77,0,0
56858.475,60.191,-1934.23,0,0
57118.8,59.9157,-1924.61,0,0
57379.125,59.7004,-1915.35,0,0
57639.45,59.5863,-1905.92,0,0
57899.775,59.3673,-1896.76,0,0
58160.1,59.272,-1887.71,0,0
58420.4,59.1331,-1878.76,0,0
58680.7,58.9451,-1869.97,0,0
58941.1,58.9168,-1861.07,0,0
59201.4,58.6262,-1852.41,0,0
59461.7,58.3544,-1843.82,0,0
59722,58.0163,-1835.19,0,0
59982.4,57.7095,-1826.53,0,0
60242.7,57.4892,-1817.96,0,0
60503,57.3887,-1809.34,0,0
60763.3,57.2664,-1800.85,0,0
61023.7,57.3032,-1792.5,0,0
61284,57.2318,-1784.34,0,0
61544.3,57.2304,-1776.25,0,0
61804.6,57.0213,-1768.2,0,0
62065,56.7429,-1760.01,0,0
62325.3,56.7954,-1751.85,0,0
62585.6,56.9188,-1743.81,0,0
62845.9,57.0697,-1735.9,0,0
63106.3,57.2408,-1728.31,0,0
63366.6,57.4343,-1720.9,0,0
63626.9,57.5232,-1713.51,0,0
63887.2,57.5616,-1706.14,0,0
64147.6,57.3958,-1698.87,0,0
64407.9,57.194,-1691.65,0,0
64668.2,57.1465,-1684.34,0,0
64928.5,56.9465,-1677.15,0,0
65188.9,56.8242,-1670.17,0,0
65449.2,56.529,-1663.19,0,0
65709.5,56.4668,-1655.93,0,0
65969.8,56.3703,-1649.13,0,0
66230.2,56.0565,-1642.22,0,0
66490.5,55.6316,-1635.51,0,0
66750.8,55.1496,-1628.58,0,0
67011.1,55.0366,-1621.35,0,0
67271.5,54.8077,-1614.49,0,0
67531.8,54.653,-1607.69,0,0
67792.1,54.3665,-1600.89,0,0
68052.4,54.1581,-1594.17,0,0
68312.8,53.8815,-1587.33,0,0
68573.1,53.7434,-1580.58,0,0
68833.4,53.5146,-1573.76,0,0
69093.7,53.4647,-1567.01,0,0
69354.1,53.518,-1560.32,0,0
69614.4,53.4808,-1553.82,0,0
69874.7,53.7095,-1547.44,0,0
70135,53.6511,-1541.16,0,0
70395.4,53.7241,-1534.86,0,0
70655.7,53.6929,-1528.67,0,0
70916,53.5691,-1522.36,0,0
71176.3,53.5301,-1516.16,0,0
71436.7,53.6351,-1510.17,0,0
71697,53.7614,-1504.2,0,0
71957.3,53.5636,-1498.36,0,0
72217.6,53.4406,-1492.46,0,0
72478,53.2396,-1486.63,0,0
72738.3,52.9821,-1480.75,0,0
72998.6,52.6916,-1474.78,0,0
73258.9,52.4492,-1468.72,0,0
73519.3,52.5165,-1462.85,0,0
73779.6,52.4508,-1457.15,0,0
74039.9,52.2743,-1451.43,0,0
74300.225,52.0629,-1445.66,0,0
74560.55,51.8708,-1439.89,0,0
74820.875,51.7575,-1434.11,0,0
75081.2,51.7253,-1428.47,0,0
75341.525,51.5959,-1422.79,0,0
75601.85,51.5037,-1417.14,0,0
75862.175,51.4583,-1411.53,0,0
76122.5,51.4728,-1405.98,0,0
76382.825,51.5062,-1400.49,0,0
76643.15,51.4979,-1395.08,0,0
76903.475,51.3805,-1389.76,0,0
77163.8,51.2338,-1384.38,0,0
77424.125,51.1014,-1379.06,0,0
77684.45,50.9996,-1373.74,0,0
77944.775,50.8786,-1368.4,0,0
78205.1,50.7773,-1363.2,0,0
78465.425,50.5231,-1357.91,0,0
78725.75,50.3727,-1352.6,0,0
78986.075,50.2879,-1347.28,0,0
79246.4,50.1807,-1342.15,0,0
79506.725,50.0548,-1336.87,0,0
79767.05,49.957,-1331.57,0,0
80027.375,49.8459,-1326.35,0,0
80287.7,49.7719,-1321.12,0,0
80548.025,49.7065,-1315.89,0,0
80808.35,49.7103,-1310.7,0,0
81068.675,49.7682,-1305.49,0,0
81329.0,49.9128,-1300.33,0,0
81589.325,50.0383,-1295.3,0,0
81849.65,50.1403,-1290.3,0,0
82109.975,50.3202,-1285.27,0,0
82370.3,50.3736,-1280.31,0,0
82630.625,50.5593,-1275.27,0,0
82890.95,50.8871,-1270.32,0,0
83151.275,51.178,-1265.67,0,0
83411.6,51.2986,-1260.91,0,0
83671.925,51.5616,-1256.1,0,0
83932.25,52.0225,-1251.53,0,0
84192.575,52.2861,-1247.22,0,0
84452.9,52.4272,-1242.92,0,0
84713.225,52.2874,-1238.84,0,0
84973.55,51.8058,-1234.4,0,0
85233.875,51.4295,-1229.67,0,0
85494.2,51.3003,-1224.87,0,0
85754.525,51.2179,-1220.14,0,0
86014.85,51.1483,-1215.33,0,0
86275.175,51.2102,-1210.55,0,0
86535.5,51.4063,-1205.85,0,0
86795.825,51.5322,-1201.2,0,0
87056.15,51.7871,-1196.6,0,0
87316.475,51.8721,-1192.19,0,0
87576.8,51.8854,-1187.69,0,0
87837.125,52.0588,-1183.07,0,0
88097.45,52.186,-1178.6,0,0
88357.775,52.2921,-1174.07,0,0
88618.1,52.441,-1169.5,0,0
88878.425,52.5647,-1164.97,0,0
89138.75,52.6626,-1160.36,0,0
89399.075,52.9413,-1155.72,0,0
89659.4,53.2377,-1151.08,0,0
89919.725,53.6556,-1146.41,0,0
90180,54.2367,-1141.9,0,0
90440.4,54.9115,-1137.32,0,0
90700.7,55.6564,-1132.79,0,0
90961,56.6272,-1128.52,0,0
91221.3,57.6615,-1124.62,0,0
91481.7,58.3879,-1121.02,0,0
91742,58.7933,-1117.41,0,0
92002.3,58.9462,-1113.64,0,0
92262.6,59.23,-1109.67,0,0
92523,59.3431,-1105.63,0,0
92783.3,59.7314,-1101.4,0,0
93043.6,60.4595,-1097.28,0,0
93303.9,61.0582,-1093.4,0,0
93564.3,61.6704,-1089.55,0,0
93824.6,62.2472,-1085.77,0,0
94084.9,62.9856,-1082.07,0,0
94345.2,63.3425,-1078.74,0,0
94605.6,63.4214,-1075.1,0,0
94865.9,63.7301,-1071.34,0,0
95126.2,63.9364,-1067.49,0,0
95386.5,64.2338,-1063.5,0,0
95646.9,64.7026,-1059.78,0,0
95907.2,64.9292,-1055.75,0,0
96167.5,65.5047,-1051.77,0,0
96427.8,66.0671,-1047.72,0,0
96688.2,66.9741,-1043.75,0,0
96948.5,67.7456,-1040.07,0,0
97208.8,68.4318,-1036.32,0,0
97469.1,69.2455,-1032.54,0,0
97729.5,70.1881,-1028.75,0,0
97989.8,71.2873,-1025.07,0,0
98250.1,72.4378,-1021.55,0,0
98510.4,73.6412,-1018.18,0,0
98770.8,74.9268,-1015.1,0,0
99031.1,75.9421,-1012.27,0,0
99291.4,76.666,-1009.33,0,0
99551.7,77.4016,-1006.26,0,0
99812.1,78.307,-1003.1,0,0
100072,79.3338,-999.955,0,0
100333,80.5029,-997.018,0,0
100593,81.5862,-994.376,0,0
100853,82.6243,-991.804,0,0
101114,83.6679,-989.41,0,0
101374,84.4609,-987.148,0,0
101634,85.2281,-984.898,0,0
101895,85.8402,-982.856,0,0
102155,86.1174,-980.737,0,0
102415,86.3694,-978.582,0,0
102676,86.4703,-976.314,0,0
102936,86.555,-973.961,0,0
103196,86.623,-971.501,0,0
103457,86.8498,-969.123,0,0
103717,86.989,-966.791,0,0
103977,87.0178,-964.647,0,0
104238,86.8263,-962.471,0,0
104498,86.5363,-960.206,0,0
104758,86.0044,-957.695,0,0
105019,85.5,-954.992,0,0
105279,85.1456,-952.003,0,0
105539,85.0022,-949.069,0,0
105800,84.9517,-946.19,0,0
106060,84.9266,-943.329,0,0
106320.175,84.9524,-940.461,0,0
106580.5,85.0856,-937.74,0,0
106840.825,85.0812,-935.138,0,0
107101.15,84.9924,-932.357,0,0
107361.475,85.0011,-929.692,0,0
107621.8,84.8142,-927.107,0,0
107882.125,84.4279,-924.202,0,0
108142.45,84.3124,-921.109,0,0
108402.775,84.3132,-918.042,0,0
108663.1,84.535,-914.947,0,0
108923.425,84.9372,-911.956,0,0
109183.75,85.2934,-909.142,0,0
109444.075,85.7322,-906.433,0,0
109704.4,86.1367,-903.853,0,0
109964.725,86.4578,-901.374,0,0
110225.05,86.5615,-898.881,0,0
110485.375,86.7789,-896.406,0,0
110745.7,87.0102,-893.92,0,0
111006.025,87.038,-891.482,0,0
111266.35,87.0642,-888.886,0,0
111526.675,87.2709,-886.321,0,0
111787.0,87.497,-883.843,0,0
112047.325,87.6627,-881.409,0,0
112307.65,87.809,-878.989,0,0
112567.975,87.9463,-876.608,0,0
112828.3,88.0011,-874.25,0,0
113088.625,88.0402,-871.94,0,0
113348.95,88.0244,-869.626,0,0
113609.275,87.9832,-867.261,0,0
113869.6,87.9336,-864.818,0,0
114129.925,87.8523,-862.472,0,0
114390.25,87.9063,-859.96,0,0
114650.575,87.896,-857.748,0,0
114910.9,87.7945,-855.433,0,0
115171.225,87.7378,-853.077,0,0
115431.55,87.6317,-850.843,0,0
115691.875,87.3661,-848.561,0,0
115952.2,87.0197,-846.174,0,0
116212.525,86.6647,-843.72,0,0
116472.85,86.3787,-841.157,0,0
116733.175,86.0712,-838.48,0,0
116993.5,85.9816,-835.724,0,0
117253.825,86.0195,-833.103,0,0
117514.15,86.0646,-830.559,0,0
117774.475,86.093,-828.121,0,0
118034.8,86.0614,-825.73,0,0
118295.125,85.9669,-823.287,0,0
118555.45,85.8752,-820.816,0,0
118815.775,85.848,-818.4,0,0
119076.1,85.7446,-816.029,0,0
119336.425,85.5622,-813.676,0,0
119596.75,85.3818,-811.221,0,0
119857.075,85.1902,-808.726,0,0
120117.4,84.966,-806.295,0,0
120377.725,84.7366,-803.753,0,0
120638.05,84.5521,-801.066,0,0
120898.375,84.5633,-798.408,0,0
121158.7,84.6523,-795.898,0,0
121419.025,84.6514,-793.526,0,0
121679.35,84.5426,-791.169,0,0
121939.675,84.3937,-788.732,0,0
122200.0,84.2961,-786.245,0,0
122460,84.248,-783.848,0,0
122721,84.1464,-781.485,0,0
122981,83.9577,-779.135,0,0
123241,83.6881,-776.727,0,0
123502,83.4608,-774.264,0,0
123762,83.2368,-771.802,0,0
124022,83.0068,-769.277,0,0
124283,82.796,-766.787,0,0
124543,82.548,-764.303,0,0
124803,82.2514,-761.775,0,0
125064,81.9944,-759.242,0,0
125324,81.6916,-756.569,0,0
125584,81.4252,-753.973,0,0
125845,81.1324,-751.296,0,0
126105,80.869,-748.585,0,0
126365,80.643,-745.795,0,0
126626,80.484,-743.019,0,0
126886,80.3846,-740.246,0,0
127146,80.2666,-737.495,0,0
127406,80.1174,-734.766,0,0
127667,79.9899,-731.88,0,0
127927,80.0178,-729.031,0,0
128187,80.0284,-726.278,0,0
128448,80.0914,-723.52,0,0
128708,80.0752,-720.809,0,0
128968,80.0425,-718.042,0,0
129229,80.0214,-715.277,0,0
129489,80.0015,-712.521,0,0
129749,79.9079,-709.658,0,0
130010,79.9179,-706.696,0,0
130270,80.0395,-703.628,0,0
130530,80.3962,-700.599,0,0
130791,80.8536,-697.776,0,0
131051,81.2568,-695.088,0,0
131311,81.6393,-692.488,0,0
131572,81.9161,-689.998,0,0
131832,82.0362,-687.435,0,0
132092,82.1909,-684.758,0,0
132353,82.3976,-682.085,0,0
132613,82.6232,-679.466,0,0
132873,82.802,-676.934,0,0
133134,82.8687,-674.344,0,0
133394,82.8857,-671.647,0,0
133654,82.9203,-668.839,0,0
133915,83.0062,-665.978,0,0
134175,83.2444,-663.029,0,0
134435,83.5873,-660.187,0,0
134696,83.904,-657.378,0,0
134956,84.309,-654.559,0,0
135216,84.7644,-651.787,0,0
135477,85.222,-649.118,0,0
135737,85.7421,-646.49,0,0
135997,86.2247,-644.114,0,0
136258,86.4722,-641.806,0,0
136518,86.5376,-639.376,0,0
136778,86.6312,-636.897,0,0
137039,86.5717,-634.413,0,0
137299,86.416,-631.773,0,0
137559,86.2238,-629.013,0,0
137819,86.0437,-626.1,0,0
138080,85.8492,-623.021,0,0
138340.125,85.7737,-619.712,0,0
138600.45,86.0109,-616.328,0,0
138860.775,86.4256,-613.078,0,0
139121.1,86.8657,-609.922,0,0
139381.425,87.2839,-606.866,0,0
139641.75,87.664,-603.738,0,0
139902.075,88.0955,-600.553,0,0
140162.4,88.6572,-597.479,0,0
140422.725,89.0176,-594.497,0,0
140683.05,89.3471,-591.29,0,0
140943.375,89.8434,-587.98,0,0
141203.7,90.4563,-584.801,0,0
141464.025,90.9941,-581.752,0,0
141724.35,91.2802,-578.597,0,0
141984.675,91.6035,-575.114,0,0
142245.0,92.1817,-571.491,0,0
142505.325,92.9267,-567.931,0,0
142765.65,93.7596,-564.38,0,0
143025.975,94.6373,-560.849,0,0
143286.3,95.6249,-557.275,0,0
143546.625,96.7431,-553.819,0,0
143806.95,97.7431,-550.517,0,0
144067.275,98.6353,-547.029,0,0
144327.6,99.6055,-543.421,0,0
144587.925,100.713,-539.646,0,0
144848.25,102.147,-535.839,0,0
145108.575,103.673,-532.215,0,0
145368.9,105.263,-528.619,0,0
145629.225,106.89,-525.124,0,0
145889.55,108.516,-521.65,0,0
146149.875,110.187,-518.043,0,0
146410.2,112.075,-514.412,0,0
146670.525,114.249,-510.929,0,0
146930.85,116.473,-507.777,0,0
147191.175,118.475,-504.866,0,0
147451.5,120.185,-501.888,0,0
147711.825,121.798,-498.693,0,0
147972.15,123.445,-495.269,0,0
148232.475,125.179,-491.596,0,0
148492.8,127.189,-487.745,0,0
148753.125,129.495,-483.858,0,0
149013.45,131.983,-480.036,0,0
149273.775,134.548,-476.187,0,0
149534.1,137.355,-472.04,0,0
149794.425,140.636,-467.773,0,0
150054.75,144.615,-463.611,0,0
150315.075,149.14,-459.902,0,0
150575.4,153.869,-456.512,0,0
150835.725,159.138,-453.587,0,0
151096.05,164.696,-451.363,0,0
151356.375,170.302,-449.921,0,0
151616.7,175.717,-449.187,0,0
151877.025,180.776,-449.211,0,0
152137.35,185.337,-449.604,0,0
152397.675,189.273,-450.345,0,0
152658.0,192.656,-450.941,0,0
152918.325,195.944,-451.687,0,0
153178.65,198.674,-452.543,0,0
153438.975,200.885,-453.259,0,0
153699.3,202.703,-453.478,0,0
153959.625,204.882,-452.978,0,0
154219.95,207.681,-453.02,0,0
154480,209.756,-453.651,0,0
154741,211.493,-453.138,0,0
155001,214.382,-452.476,0,0
155261,217.937,-452.788,0,0
155522,221.139,-454.142,0,0
155782,224.039,-456.371,0,0
156042,225.905,-459.424,0,0
156303,226.192,-462.326,0,0
156563,225.332,-464.843,0,0
156823,223.479,-466.362,0,0
157084,221.132,-466.406,0,0
157344,219.209,-465.081,0,0
157604,218.219,-462.795,0,0
157864,218.522,-460.134,0,0
158125,219.833,-458.267,0,0
158385,221.206,-456.987,0,0
158645,222.666,-456.064,0,0
158906,223.955,-455.462,0,0
159166,225.44,-454.833,0,0
159426,227.204,-455.427,0,0
159687,227.463,-456.794,0,0
159947,226.591,-457.627,0,0
160207,225.184,-457.71,0,0
160468,223.214,-457.076,0,0
160728,220.972,-455.387,0,0
160988,219.136,-452.23,0,0
161249,218.293,-448.166,0,0
161509,219.002,-443.783,0,0
161769,221.038,-440.144,0,0
162030,223.332,-437.248,0,0
162290,226.083,-435.029,0,0
162550,228.816,-433.671,0,0
162811,231.201,-432.956,0,0
163071,232.986,-432.266,0,0
163331,235.061,-431.851,0,0
163592,236.459,-432.002,0,0
163852,237.146,-431.646,0,0
164112,238.011,-430.815,0,0
164373,239.557,-429.995,0,0
164633,241.227,-429.977,0,0
164893,242.437,-430.539,0,0
165154,243.081,-431.268,0,0
165414,243.053,-432.048,0,0
165674,242.695,-432.643,0,0
165935,241.9,-433.238,0,0
166195,240.716,-433.413,0,0
166455,239.239,-433.717,0,0
166716,236.839,-433.804,0,0
166976,233.688,-432.777,0,0
167236,230.884,-430.424,0,0
167497,229.145,-427.683,0,0
167757,227.552,-425.246,0,0
168017,225.799,-422.717,0,0
168277,224.064,-420.013,0,0
168538,222.089,-417.168,0,0
168798,219.812,-413.547,0,0
169058,218.08,-409.182,0,0
169319,217.04,-404.531,0,0
169579,216.309,-400.187,0,0
169839,215.646,-395.763,0,0
170100,215.005,-391.043,0,0
170360.075,214.732,-386.217,0,0
170620.4,214.656,-381.272,0,0
170880.725,214.813,-376.186,0,0
171141.05,215.076,-371.187,0,0
171401.375,215.242,-365.82,0,0
171661.7,215.948,-359.852,0,0
171922.025,217.461,-353.923,0,0
172182.35,219.54,-348.317,0,0
172442.675,221.779,-343.207,0,0
172703.0,223.99,-338.155,0,0
172963.325,226.423,-333.161,0,0
173223.65,228.982,-328.394,0,0
173483.975,231.523,-323.78,0,0
173744.3,234.182,-319.423,0,0
174004.625,236.58,-315.144,0,0
174264.95,239.022,-310.788,0,0
174525.275,241.325,-306.627,0,0
174785.6,243.232,-302.291,0,0
175045.925,244.987,-297.54,0,0
175306.25,246.873,-292.091,0,0
175566.575,249.268,-286.277,0,0
175826.9,252.176,-280.333,0,0
176087.225,255.605,-274.452,0,0
176347.55,259.287,-268.821,0,0
176607.875,263.122,-263.41,0,0
176868.2,266.951,-258.179,0,0
177128.525,270.56,-252.887,0,0
177388.85,273.891,-247.128,0,0
177649.175,277.531,-240.635,0,0
177909.5,281.971,-233.534,0,0
178169.825,287.395,-226.461,0,0
178430.15,293.355,-219.593,0,0
178690.475,299.733,-213.027,0,0
178950.8,306.685,-206.42,0,0
179211.125,314.532,-199.838,0,0
179471.45,322.697,-194.592,0,0
179731.775,330.517,-189.211,0,0
179992.1,339.297,-183.921,0,0
180252.425,348.385,-179.631,0,0
180512.75,357.007,-175.75,0,0
180773.075,365.62,-171.633,0,0
181033.4,374.715,-167.564,0,0
181293.725,384.129,-163.551,0,0
181554.05,394.179,-159.497,0,0
181814.375,405.368,-156.026,0,0
182074.7,417.168,-153.611,0,0
182335.025,429.295,-152.446,0,0
182595.35,441.249,-152.753,0,0
182855.675,452.347,-154.068,0,0
183116.0,462.71,-155.901,0,0
183376.325,472.116,-158.389,0,0
183636.65,480.218,-160.918,0,0
183896.975,487.146,-162.489,0,0
184157.3,493.838,-162.565,0,0
184417.625,501.691,-161.375,0,0
184677.95,511.236,-160.363,0,0
184938.275,521.665,-160.301,0,0
185198.6,532.563,-161.448,0,0
185458.925,543.122,-163.701,0,0
185719.25,552.891,-166.683,0,0
185979.575,561.968,-169.4,0,0
186239.9,571.575,-172.029,0,0
186500,581.11,-175.626,0,0
186761,589.913,-179.484,0,0
187021,598.504,-183.402,0,0
187281,606.643,-187.5,0,0
187542,614.589,-191.441,0,0
187802,622.455,-195.189,0,0
188062,630.554,-198.94,0,0
188322,638.745,-203.385,0,0
188583,646.323,-208.295,0,0
188843,653.181,-213.118,0,0
189103,659.56,-217.544,0,0
189364,665.782,-221.386,0,0
189624,672.313,-224.608,0,0
189884,679.325,-227.83,0,0
190145,686.152,-230.927,0,0
190405,693.53,-233.331,0,0
190665,701.929,-235.834,0,0
190926,711.428,-238.808,0,0
191186,721.659,-243.388,0,0
191446,731.015,-249.627,0,0
191707,738.836,-256.321,0,0
191967,745.25,-262.446,0,0
192227,751.131,-267.018,0,0
192488,757.594,-270.376,0,0
192748,764.783,-272.692,0,0
193008,773.82,-274.004,0,0
193269,785.015,-275.971,0,0
193529,797.192,-278.847,0,0
193789,811.012,-282.426,0,0
194050,826.316,-287.91,0,0
194310,842.063,-295.367,0,0
194570,857.926,-304.556,0,0
194831,873.698,-315.709,0,0
195091,888.833,-328.351,0,0
195351,903.821,-342.113,0,0
195612,918.815,-357.398,0,0
195872,933.656,-375.087,0,0
196132,946.835,-395.301,0,0
196393,957.824,-416.752,0,0
196653,967.222,-438.642,0,0
196913,975.708,-461.431,0,0
197174,982.751,-485.621,0,0
197434,987.995,-510.946,0,0
197694,991.136,-537.433,0,0
197955,991.657,-564.402,0,0
198215,989.688,-591.502,0,0
198475,985.209,-618.298,0,0
198735,978.072,-644.611,0,0
198996,968.52,-669.611,0,0
199256,957.059,-693.344,0,0
199516,943.515,-715.407,0,0
199777,928.217,-735.5,0,0
200037,911.695,-752.948,0,0
200297,895.222,-768.03,0,0
200558,879.165,-781.021,0,0
200818,863.849,-792.644,0,0
201078,849.048,-803.673,0,0
201339,834.723,-814.8,0,0
201599,819.894,-826.035,0,0
201859,803.854,-837.649,0,0
202120,785.339,-848.224,0,0
202380.025,764.414,-855.922,0,0
202640.35,743.566,-860.04,0,0
202900.675,724.075,-860.756,0,0
203161.0,706.76,-859.775,0,0
203421.325,691.358,-857.734,0,0
203681.65,677.792,-855.273,0,0
203941.975,665.66,-853.526,0,0
204202.3,653.52,-852.13,0,0
204462.625,641.26,-850.239,0,0
204722.95,629.5,-847.684,0,0
204983.275,617.967,-844.942,0,0
205243.6,606.284,-841.114,0,0
205503.925,595.154,-835.925,0,0
205764.25,585.308,-829.604,0,0
206024.575,576.909,-822.494,0,0
206284.9,570.163,-815.189,0,0
206545.225,564.956,-807.993,0,0
206805.55,561.271,-801.174,0,0
207065.875,558.539,-795.421,0,0
207326.2,556.092,-790.424,0,0
207586.525,554.02,-785.712,0,0
207846.85,552.705,-781.279,0,0
208107.175,551.895,-777.692,0,0
208367.5,551.119,-774.901,0,0
208627.825,550.281,-772.511,0,0
208888.15,549.295,-770.399,0,0
209148.475,548.231,-768.383,0,0
209408.8,547.043,-766.14,0,0
209669.125,546.165,-763.527,0,0
209929.45,546.152,-760.803,0,0
210189.775,546.941,-758.426,0,0
210450.1,548.04,-756.711,0,0
210710.425,549.713,-755.65,0,0
210970.75,551.242,-755.14,0,0
211231.075,552.903,-755.042,0,0
211491.4,554.927,-755.329,0,0
211751.725,557.096,-756.507,0,0
212012.05,559.121,-758.417,0,0
212272.375,560.573,-760.828,0,0
212532.7,561.854,-763.539,0,0
212793.025,562.851,-766.672,0,0
213053.35,563.559,-770.144,0,0
213313.675,563.828,-773.817,0,0
213574.0,563.844,-777.663,0,0
213834.325,563.523,-781.743,0,0
214094.65,562.791,-785.795,0,0
214354.975,561.954,-789.84,0,0
214615.3,560.775,-793.914,0,0
214875.625,559.698,-798.26,0,0
215135.95,558.307,-802.686,0,0
215396.275,556.518,-807.387,0,0
215656.6,554.56,-812.164,0,0
215916.925,551.524,-817.287,0,0
216177.25,548.302,-821.511,0,0
216437.575,545.004,-826.049,0,0
216697.9,541.469,-830.322,0,0
216958.225,537.766,-834.461,0,0
217218.55,533.985,-838.467,0,0
217478.875,530.063,-842.398,0,0
217739.2,526.119,-846.421,0,0
217999.525,521.75,-850.697,0,0
218259.85,516.885,-854.789,0,0
218520,511.688,-858.784,0,0
218780,505.855,-862.388,0,0
219041,499.865,-865.55,0,0
219301,493.763,-868.365,0,0
219561,487.513,-870.821,0,0
219822,481.062,-872.989,0,0
220082,474.5,-874.695,0,0
220342,467.689,-876.296,0,0
220603,460.939,-876.894,0,0
220863,454.185,-877.086,0,0
221123,447.685,-876.845,0,0
221384,441.549,-875.92,0,0
221644,435.883,-874.921,0,0
221904,430.594,-873.79,0,0
222165,425.436,-872.512,0,0
222425,420.517,-870.892,0,0
222685,416.019,-869.223,0,0
222946,411.866,-867.351,0,0
223206,408.323,-865.393,0,0
223466,405.284,-863.594,0,0
223727,402.476,-862.219,0,0
223987,399.798,-861.048,0,0
224247,397.178,-860.134,0,0
224508,394.768,-859.278,0,0
224768,392.392,-858.527,0,0
225028,390.404,-858.03,0,0
225289,388.33,-857.796,0,0
225549,386.605,-858.043,0,0
225809,384.377,-858.634,0,0
226070,382.011,-859.672,0,0
226330,379.248,-860.704,0,0
226590,376.385,-861.738,0,0
226851,373.211,-862.844,0,0
227111,369.755,-863.888,0,0
227371,365.872,-864.854,0,0
227632,361.842,-865.508,0,0
227892,357.69,-865.698,0,0
228152,353.871,-865.499,0,0
228413,350.371,-865.34,0,0
228673,347.243,-865.246,0,0
228933,344.2,-865.603,0,0
229193,340.987,-866.212,0,0
229454,337.542,-867.219,0,0
229714,333.842,-868.189,0,0
229974,329.733,-869.191,0,0
230235,325.325,-870.027,0,0
230495,320.572,-870.784,0,0
230755,315.689,-871.282,0,0
231016,310.568,-871.609,0,0
231276,305.329,-871.742,0,0
231536,299.897,-871.63,0,0
231797,294.447,-871.093,0,0
232057,289.067,-870.393,0,0
232317,283.673,-869.579,0,0
232578,278.111,-868.737,0,0
232838,272.417,-867.454,0,0
233098,266.689,-865.955,0,0
233359,260.828,-864.142,0,0
233619,255.039,-861.868,0,0
233879,249.318,-859.21,0,0
234140,243.78,-856.25,0,0
234400,238.38,-852.944,0,0
234660.3,233.36,-849.274,0,0
234920.625,228.552,-845.362,0,0
235180.95,224.083,-841.333,0,0
235441.275,220.043,-837.108,0,0
235701.6,216.147,-832.855,0,0
235961.925,212.644,-828.485,0,0
236222.25,209.379,-824.132,0,0
236482.575,206.42,-819.704,0,0
236742.9,203.735,-815.326,0,0
237003.225,201.256,-811.034,0,0
237263.55,199.022,-806.75,0,0
237523.875,196.839,-802.535,0,0
237784.2,194.794,-798.318,0,0
238044.525,192.923,-794.011,0,0
238304.85,191.414,-789.625,0,0
238565.175,190.339,-785.262,0,0
238825.5,189.495,-780.954,0,0
239085.825,189.087,-777.013,0,0
239346.15,188.935,-773.283,0,0
239606.475,188.838,-769.973,0,0
239866.8,188.77,-766.895,0,0
240127.125,188.826,-764.011,0,0
240387.45,188.901,-761.481,0,0
240647.775,188.965,-759.119,0,0
240908.1,188.962,-757.157,0,0
241168.425,188.814,-755.477,0,0
241428.75,188.383,-753.93,0,0
241689.075,187.643,-752.447,0,0
241949.4,186.781,-750.909,0,0
242209.725,185.622,-749.372,0,0
242470.05,184.367,-747.679,0,0
242730.375,183.102,-745.766,0,0
242990.7,181.856,-743.814,0,0
243251.025,180.604,-741.856,0,0
243511.35,179.241,-739.851,0,0
243771.675,177.873,-737.596,0,0
244032.0,176.602,-735.16,0,0
244292.325,175.489,-732.604,0,0
244552.65,174.607,-730.2,0,0
244812.975,173.745,-727.763,0,0
245073.3,172.978,-725.389,0,0
245333.625,172.111,-722.872,0,0
245593.95,171.432,-720.126,0,0
245854.275,170.996,-717.522,0,0
246114.6,170.819,-715.031,0,0
246374.925,170.774,-712.771,0,0
246635.25,170.796,-710.749,0,0
246895.575,170.636,-708.876,0,0
247155.9,170.356,-707.09,0,0
247416.225,170.006,-705.284,0,0
247676.55,169.582,-703.408,0,0
247936.875,169.196,-701.604,0,0
248197.2,168.83,-699.7,0,0
248457.525,168.479,-697.808,0,0
248717.85,168.072,-695.93,0,0
248978.175,167.657,-694.027,0,0
249238.5,167.332,-692.019,0,0
249498.825,167.044,-690.08,0,0
249759.15,166.843,-688.069,0,0
250019.475,166.652,-686.086,0,0
250279.8,166.557,-684.135,0,0
250540,166.43,-682.056,0,0
250800,166.552,-680.061,0,0
251061,166.738,-678.001,0,0
251321,167.088,-676.138,0,0
251581,167.587,-674.298,0,0
251842,168.141,-672.634,0,0
252102,168.762,-671.099,0,0
252362,169.463,-669.749,0,0
252623,170.212,-668.573,0,0
252883,170.884,-667.706,0,0
253143,171.406,-667.088,0,0
253404,171.745,-666.523,0,0
253664,171.884,-666.111,0,0
253924,171.782,-665.739,0,0
254185,171.536,-665.374,0,0
254445,171.107,-664.922,0,0
254705,170.472,-664.484,0,0
254966,169.795,-663.898,0,0
255226,168.816,-663.312,0,0
255486,167.722,-662.48,0,0
255747,166.622,-661.363,0,0
256007,165.462,-660.067,0,0
256267,164.412,-658.6,0,0
256528,163.361,-657.065,0,0
256788,162.293,-655.345,0,0
257048,161.359,-653.413,0,0
257309,160.55,-651.297,0,0
257569,159.909,-649.114,0,0
257829,159.491,-646.855,0,0
258090,159.178,-644.572,0,0
258350,159.006,-642.151,0,0
258610,159.063,-639.788,0,0
258871,159.287,-637.411,0,0
259131,159.754,-635.058,0,0
259391,160.473,-632.839,0,0
259651,161.356,-630.896,0,0
259912,162.216,-629.124,0,0
260172,163.141,-627.558,0,0
260432,163.945,-626.075,0,0
260693,164.684,-624.628,0,0
260953,165.499,-623.203,0,0
261213,166.298,-621.908,0,0
261474,167.094,-620.707,0,0
261734,167.793,-619.518,0,0
261994,168.477,-618.438,0,0
262255,169.014,-617.421,0,0
262515,169.411,-616.227,0,0
262775,169.76,-614.896,0,0
263036,170.22,-613.401,0,0
263296,170.832,-611.863,0,0
263556,171.556,-610.387,0,0
263817,172.247,-608.897,0,0
264077,172.987,-607.335,0,0
264337,173.768,-605.772,0,0
264598,174.613,-604.024,0,0
264858,175.5,-602.194,0,0
265118,176.749,-600.265,0,0
265379,178.071,-598.316,0,0
265639,179.664,-596.22,0,0
265899,181.61,-594.165,0,0
266160,183.87,-592.163,0,0
266420,186.462,-590.335,0,0
266680.25,189.354,-588.722,0,0
266940.575,192.541,-587.315,0,0
267200.9,195.974,-586.236,0,0
267461.225,199.665,-585.469,0,0
267721.55,203.641,-585.161,0,0
267981.875,207.61,-585.328,0,0
268242.2,211.599,-585.998,0,0
268502.525,215.401,-587.042,0,0
268762.85,219.185,-588.388,0,0
269023.175,222.859,-590.029,0,0
269283.5,226.466,-591.964,0,0
269543.825,230.092,-594.167,0,0
269804.15,233.675,-596.749,0,0
270064.475,237.187,-599.85,0,0
270324.8,240.607,-603.545,0,0
270585.125,243.562,-607.668,0,0
270845.45,246.126,-612.291,0,0
271105.775,248.15,-617.192,0,0
271366.1,249.701,-622.311,0,0
271626.425,250.819,-627.54,0,0
271886.75,251.542,-632.983,0,0
272147.075,251.856,-638.605,0,0
272407.4,251.66,-644.455,0,0
272667.725,250.907,-650.51,0,0
272928.05,249.401,-656.675,0,0
273188.375,247.11,-662.857,0,0
273448.7,244.035,-668.787,0,0
273709.025,240.074,-674.437,0,0
273969.35,235.513,-679.449,0,0
274229.675,230.464,-683.806,0,0
274490.0,225.084,-687.546,0,0
274750.325,219.5,-690.513,0,0
275010.65,213.804,-692.938,0,0
275270.975,208.142,-694.709,0,0
275531.3,202.473,-696.071,0,0
275791.625,196.923,-696.908,0,0
276051.95,191.434,-697.328,0,0
276312.275,186.11,-697.305,0,0
276572.6,180.935,-696.928,0,0
276832.925,175.944,-696.219,0,0
277093.25,171.161,-695.221,0,0
277353.575,166.61,-693.927,0,0
277613.9,162.252,-692.442,0,0
277874.225,158.134,-690.788,0,0
278134.55,154.16,-688.985,0,0
278394.875,150.33,-686.968,0,0
278655.2,146.68,-684.754,0,0
278915.525,143.254,-682.286,0,0
279175.85,140.126,-679.608,0,0
279436.175,137.362,-676.868,0,0
279696.5,134.806,-673.995,0,0
279956.825,132.643,-671.111,0,0
280217.15,130.683,-668.289,0,0
280477.475,129.032,-665.402,0,0
280737.8,127.709,-662.654,0,0
280998.125,126.601,-660.041,0,0
281258.45,125.644,-657.566,0,0
281518.775,124.828,-655.23,0,0
281779.1,124.126,-653.004,0,0
282039.425,123.544,-650.88,0,0
282299.75,123.087,-648.9,0,0
282560,122.711,-647.115,0,0
282820,122.317,-645.55,0,0
283081,121.824,-644.085,0,0
283341,121.216,-642.599,0,0
283601,120.618,-641.067,0,0
283862,120.112,-639.485,0,0
284122,119.619,-637.968,0,0
284382,119.23,-636.443,0,0
284643,118.898,-634.857,0,0
284903,118.58,-633.264,0,0
285163,118.493,-631.768,0,0
285424,118.485,-630.242,0,0
285684,118.735,-628.833,0,0
285944,119.006,-627.626,0,0
286205,119.407,-626.485,0,0
286465,119.93,-625.465,0,0
286725,120.619,-624.651,0,0
286986,121.382,-624.112,0,0
287246,122.245,-623.943,0,0
287506,122.99,-624.149,0,0
287767,123.579,-624.684,0,0
288027,123.904,-625.521,0,0
288287,123.891,-626.578,0,0
288548,123.525,-627.761,0,0
288808,122.765,-629.006,0,0
289068,121.659,-630.241,0,0
289329,120.19,-631.345,0,0
289589,118.445,-632.278,0,0
289849,116.368,-632.955,0,0
290109,114.09,-633.291,0,0
290370,111.8,-633.381,0,0
290630,109.597,-633.145,0,0
290890,107.378,-632.773,0,0
291151,105.252,-632.232,0,0
291411,103.158,-631.598,0,0
291671,101.109,-630.914,0,0
291932,99.0193,-630.108,0,0
292192,96.9304,-629.178,0,0
292452,94.8987,-628.144,0,0
292713,92.914,-626.967,0,0
292973,90.9896,-625.717,0,0
293233,89.0929,-624.383,0,0
293494,87.2581,-622.983,0,0
293754,85.4678,-621.451,0,0
294014,83.7388,-619.859,0,0
294275,82.1336,-618.135,0,0
294535,80.5684,-616.394,0,0
294795,79.1418,-614.538,0,0
295056,77.8957,-612.655,0,0
295316,76.6801,-610.755,0,0
295576,75.633,-608.922,0,0
295837,74.6594,-607.107,0,0
296097,73.7261,-605.31,0,0
296357,72.8605,-603.559,0,0
296618,72.0009,-601.825,0,0
296878,71.1689,-600.113,0,0
297138,70.3979,-598.384,0,0
297399,69.6156,-596.677,0,0
297659,68.8735,-594.94,0,0
297919,68.1757,-593.207,0,0
298180,67.4924,-591.462,0,0
298440,66.8547,-589.677,0,0
298700.2,66.2588,-587.931,0,0
298960.525,65.7177,-586.121,0,0
299220.85,65.2039,-584.339,0,0
299481.175,64.7674,-582.542,0,0
299741.5,64.3461,-580.7,0,0
300001.825,64.0404,-578.818,0,0
300262.15,63.8087,-577.031,0,0
300522.475,63.5958,-575.256,0,0
300782.8,63.4536,-573.463,0,0
301043.125,63.3761,-571.687,0,0
301303.45,63.4201,-569.928,0,0
301563.775,63.5174,-568.226,0,0
301824.1,63.6609,-566.588,0,0
302084.425,63.8478,-565.03,0,0
302344.75,64.0676,-563.492,0,0
302605.075,64.3271,-562.001,0,0
302865.4,64.6184,-560.593,0,0
303125.725,64.9237,-559.212,0,0
303386.05,65.275,-557.895,0,0
303646.375,65.6149,-556.643,0,0
303906.7,65.9758,-555.444,0,0
304167.025,66.3632,-554.265,0,0
304427.35,66.7636,-553.132,0,0
304687.675,67.1674,-552.092,0,0
304948.0,67.6081,-551.057,0,0
305208.325,68.0526,-550.122,0,0
305468.65,68.4734,-549.246,0,0
305728.975,68.8778,-548.44,0,0
305989.3,69.2462,-547.694,0,0
306249.625,69.5763,-546.971,0,0
306509.95,69.8712,-546.267,0,0
306770.275,70.1707,-545.593,0,0
307030.6,70.4466,-544.911,0,0
307290.925,70.7582,-544.267,0,0
307551.25,71.0696,-543.659,0,0
307811.575,71.4086,-543.145,0,0
308071.9,71.7153,-542.694,0,0
308332.225,71.9678,-542.33,0,0
308592.55,72.1372,-542.056,0,0
308852.875,72.1894,-541.841,0,0
309113.2,72.0887,-541.61,0,0
309373.525,71.938,-541.297,0,0
309633.85,71.7179,-540.918,0,0
309894.175,71.4554,-540.49,0,0
310154.5,71.2492,-539.967,0,0
310414.825,71.0366,-539.447,0,0
310675.15,70.8421,-538.878,0,0
310935.475,70.6914,-538.316,0,0
311195.8,70.543,-537.778,0,0
311456.125,70.4341,-537.274,0,0
311716.45,70.3128,-536.805,0,0
311976.775,70.1378,-536.359,0,0
312237.1,69.9225,-535.937,0,0
312497.425,69.6744,-535.508,0,0
312757.75,69.4048,-535.049,0,0
313018.075,69.1023,-534.589,0,0
313278.4,68.7812,-534.104,0,0
313538.725,68.4297,-533.593,0,0
313799.05,68.0762,-533.062,0,0
314059.375,67.7223,-532.511,0,0
314319.7,67.3929,-531.939,0,0
314580,67.0261,-531.286,0,0
314840,66.6715,-530.804,0,0
315101,66.2988,-530.154,0,0
315361,65.8702,-529.607,0,0
315621,65.5099,-528.916,0,0
315882,65.1382,-528.155,0,0
316142,64.7047,-527.445,0,0
316402,64.4324,-526.754,0,0
316663,64.1517,-525.974,0,0
316923,63.9412,-525.236,0,0
317183,63.6449,-524.456,0,0
317444,63.4561,-523.796,0,0
317704,63.1558,-523.108,0,0
317964,62.9114,-522.407,0,0
318225,62.6459,-521.705,0,0
318485,62.3875,-520.894,0,0
318745,62.209,-520.197,0,0
319006,61.9264,-519.349,0,0
319266,61.9225,-518.53,0,0
319526,61.7703,-517.851,0,0
319787,61.777,-517.193,0,0
320047,61.668,-516.609,0,0
320307,61.5719,-515.881,0,0
320567,61.498,-515.287,0,0
320828,61.458,-514.735,0,0
321088,61.3586,-514.18,0,0
321348,61.226,-513.676,0,0
321609,61.1585,-513.209,0,0
321869,60.9651,-512.725,0,0
322129,60.8936,-512.271,0,0
322390,60.6985,-511.791,0,0
322650,60.5244,-511.387,0,0
322910,60.2576,-511.007,0,0
323171,59.9955,-510.617,0,0
323431,59.7253,-510.194,0,0
323691,59.344,-509.841,0,0
323952,58.9065,-509.293,0,0
324212,58.554,-508.92,0,0
324472,58.1285,-508.424,0,0
324733,57.6468,-507.958,0,0
324993,57.2173,-507.349,0,0
325253,56.7407,-506.789,0,0
325514,56.2482,-506.192,0,0
325774,55.799,-505.553,0,0
326034,55.3637,-504.912,0,0
326295,54.9158,-504.158,0,0
326555,54.4805,-503.439,0,0
326815,54.0406,-502.724,0,0
327076,53.7038,-501.99,0,0
327336,53.3511,-501.251,0,0
327596,52.976,-500.515,0,0
327857,52.6754,-499.77,0,0
328117,52.3815,-499.068,0,0
328377,52.0403,-498.397,0,0
328638,51.6305,-497.689,0,0
328898,51.2651,-496.993,0,0
329158,50.9056,-496.214,0,0
329419,50.5336,-495.429,0,0
329679,50.203,-494.723,0,0
329939,49.8165,-493.888,0,0
330200,49.4835,-493.126,0,0
330460,49.1735,-492.291,0,0
330720.15,48.9376,-491.513,0,0
330980.475,48.5932,-490.69,0,0
331240.8,48.3414,-489.855,0,0
331501.125,47.9913,-489.034,0,0
331761.45,47.6316,-488.172,0,0
332021.775,47.3859,-487.284,0,0
332282.1,47.095,-486.427,0,0
332542.425,46.9324,-485.493,0,0
332802.75,46.7324,-484.593,0,0
333063.075,46.5449,-483.662,0,0
333323.4,46.343,-482.779,0,0
333583.725,46.2114,-481.822,0,0
333844.05,46.1417,-480.886,0,0
334104.375,46.1392,-480.003,0,0
334364.7,46.0988,-479.043,0,0
334625.025,46.0742,-478.239,0,0
334885.35,46.1547,-477.354,0,0
335145.675,46.2296,-476.519,0,0
335406.0,46.3074,-475.777,0,0
335666.325,46.3791,-475.113,0,0
335926.65,46.4374,-474.396,0,0
336186.975,46.5183,-473.769,0,0
336447.3,46.5553,-473.112,0,0
336707.625,46.6096,-472.521,0,0
336967.95,46.609,-471.939,0,0
337228.275,46.6025,-471.353,0,0
337488.6,46.6172,-470.818,0,0
337748.925,46.5594,-470.279,0,0
338009.25,46.4698,-469.75,0,0
338269.575,46.3525,-469.23,0,0
338529.9,46.2313,-468.689,0,0
338790.225,46.0209,-468.106,0,0
339050.55,45.8401,-467.592,0,0
339310.875,45.6887,-466.988,0,0
339571.2,45.4862,-466.432,0,0
339831.525,45.2956,-465.793,0,0
340091.85,45.0972,-465.205,0,0
340352.175,44.8708,-464.584,0,0
340612.5,44.7107,-463.9,0,0
340872.825,44.456,-463.284,0,0
341133.15,44.1992,-462.627,0,0
341393.475,43.9414,-461.953,0,0
341653.8,43.7473,-461.262,0,0
341914.125,43.5687,-460.543,0,0
342174.45,43.2938,-459.808,0,0
342434.775,43.1303,-459.067,0,0
342695.1,42.8849,-458.282,0,0
342955.425,42.725,-457.522,0,0
343215.75,42.5567,-456.775,0,0
343476.075,42.3734,-455.973,0,0
343736.4,42.2055,-455.13,0,0
343996.725,42.0799,-454.318,0,0
344257.05,41.9283,-453.54,0,0
344517.375,41.8,-452.684,0,0
344777.7,41.7038,-451.802,0,0
345038.025,41.6362,-451.018,0,0
345298.35,41.589,-450.099,0,0
345558.675,41.5588,-449.258,0,0
345819.0,41.548,-448.471,0,0
346079.325,41.5357,-447.604,0,0
346339.65,41.5532,-446.767,0,0
346599.975,41.5854,-445.956,0,0
346860,41.6109,-445.133,0,0
347121,41.6626,-444.311,0,0
347381,41.7867,-443.566,0,0
347641,41.7993,-442.728,0,0
347902,41.8711,-441.971,0,0
348162,41.967,-441.194,0,0
348422,42.032,-440.417,0,0
348683,42.1616,-439.614,0,0
348943,42.268,-438.857,0,0
349203,42.3983,-438.069,0,0
349464,42.5424,-437.309,0,0
349724,42.675,-436.53,0,0
349984,42.8503,-435.783,0,0
350245,43.0675,-435.035,0,0
350505,43.2503,-434.322,0,0
350765,43.4883,-433.602,0,0
351025,43.6991,-432.908,0,0
351286,43.9703,-432.257,0,0
351546,44.2427,-431.607,0,0
351806,44.5009,-431,0,0
352067,44.7188,-430.421,0,0
352327,44.9617,-429.831,0,0
352587,45.2139,-429.249,0,0
352848,45.4294,-428.723,0,0
353108,45.6649,-428.172,0,0
353368,45.9101,-427.659,0,0
353629,46.1111,-427.145,0,0
353889,46.3161,-426.632,0,0
354149,46.4876,-426.14,0,0
354410,46.6964,-425.661,0,0
354670,46.9008,-425.15,0,0
354930,47.0834,-424.684,0,0
355191,47.241,-424.204,0,0
355451,47.4718,-423.734,0,0
355711,47.6322,-423.331,0,0
355972,47.8273,-422.868,0,0
356232,47.9723,-422.422,0,0
356492,48.1212,-422.032,0,0
356753,48.2638,-421.603,0,0
357013,48.4052,-421.158,0,0
357273,48.5037,-420.748,0,0
357534,48.6643,-420.314,0,0
357794,48.7633,-419.9,0,0
358054,48.8809,-419.466,0,0
358315,48.9633,-419.076,0,0
358575,49.1037,-418.631,0,0
358835,49.174,-418.226,0,0
359096,49.3375,-417.843,0,0
359356,49.4217,-417.382,0,0
359616,49.508,-416.964,0,0
359877,49.6144,-416.551,0,0
360137,49.7225,-416.153,0,0
360397,49.8088,-415.718,0,0
360658,49.9374,-415.323,0,0
360918,50.0041,-414.931,0,0
361178,50.148,-414.495,0,0
361438,50.2374,-414.152,0,0
361699,50.3405,-413.75,0,0
361959,50.4148,-413.387,0,0
362219,50.5372,-413.021,0,0
362480,50.6302,-412.624,0,0
362740.1,50.6663,-412.29,0,0
363000.425,50.7468,-411.874,0,0
363260.75,50.8119,-411.518,0,0
363521.075,50.8646,-411.162,0,0
363781.4,50.935,-410.813,0,0
364041.725,50.9642,-410.45,0,0
364302.05,51.0356,-410.097,0,0
364562.375,51.0608,-409.697,0,0
364822.7,51.1193,-409.372,0,0
365083.025,51.159,-408.996,0,0
365343.35,51.1663,-408.661,0,0
365603.675,51.2019,-408.293,0,0
365864.0,51.138,-407.926,0,0
366124.325,51.1828,-407.518,0,0
366384.65,51.1666,-407.16,0,0
366644.975,51.2129,-406.734,0,0
366905.3,51.2109,-406.345,0,0
367165.625,51.2366,-405.935,0,0
367425.95,51.2391,-405.525,0,0
367686.275,51.3001,-405.161,0,0
367946.6,51.2855,-404.718,0,0
368206.925,51.3188,-404.308,0,0
368467.25,51.3401,-403.861,0,0
368727.575,51.3371,-403.419,0,0
368987.9,51.4058,-402.952,0,0
369248.225,51.5017,-402.47,0,0
369508.55,51.623,-402.001,0,0
369768.875,51.7545,-401.537,0,0
370029.2,51.9665,-401.113,0,0
370289.525,52.1837,-400.714,0,0
370549.85,52.397,-400.329,0,0
370810.175,52.6484,-400.036,0,0
371070.5,52.8609,-399.778,0,0
371330.825,53.0665,-399.557,0,0
371591.15,53.1998,-399.354,0,0
371851.475,53.3468,-399.176,0,0
372111.8,53.5005,-399.034,0,0
372372.125,53.5406,-398.832,0,0
372632.45,53.6578,-398.733,0,0
372892.775,53.6726,-398.638,0,0
373153.1,53.6871,-398.498,0,0
373413.425,53.631,-398.44,0,0
373673.75,53.5473,-398.309,0,0
373934.075,53.4438,-398.199,0,0
374194.4,53.3095,-398.06,0,0
374454.725,53.1159,-397.93,0,0
374715.05,52.9021,-397.759,0,0
374975.375,52.6924,-397.529,0,0
375235.7,52.4228,-397.227,0,0
375496.025,52.1752,-396.901,0,0
375756.35,51.9202,-396.533,0,0
376016.675,51.7375,-396.146,0,0
376277.0,51.5737,-395.747,0,0
376537.325,51.5089,-395.317,0,0
376797.65,51.3827,-394.935,0,0
377057.975,51.3257,-394.55,0,0
377318.3,51.2444,-394.179,0,0
377578.625,51.1829,-393.936,0,0
377838.95,51.0873,-393.596,0,0
378099.275,50.9278,-393.315,0,0
378359.6,50.7714,-393.032,0,0
378619.925,50.5455,-392.729,0,0
378880,50.3072,-392.38,0,0
379141,50.028,-391.982,0,0
379401,49.7963,-391.517,0,0
379661,49.5349,-391.021,0,0
379922,49.3602,-390.398,0,0
380182,49.2466,-389.809,0,0
380442,49.2039,-389.175,0,0
380703,49.2658,-388.589,0,0
380963,49.4059,-388.061,0,0
381223,49.5394,-387.525,0,0
381483,49.7384,-387.158,0,0
381744,49.8965,-386.826,0,0
382004,50.0777,-386.623,0,0
382264,50.1484,-386.463,0,0
382525,50.1911,-386.29,0,0
382785,50.1628,-386.141,0,0
383045,50.063,-386.016,0,0
383306,49.957,-385.848,0,0
383566,49.7611,-385.727,0,0
383826,49.5657,-385.536,0,0
384087,49.2644,-385.35,0,0
384347,49.0077,-385.119,0,0
384607,48.6953,-384.884,0,0
384868,48.3648,-384.547,0,0
385128,48.0487,-384.226,0,0
385388,47.6856,-383.877,0,0
385649,47.3478,-383.458,0,0
385909,46.9961,-383.057,0,0
386169,46.6867,-382.578,0,0
386430,46.3033,-382.057,0,0
386690,45.9947,-381.554,0,0
386950,45.6985,-381.02,0,0
387211,45.3773,-380.466,0,0
387471,45.1309,-379.878,0,0
387731,44.8811,-379.251,0,0
387992,44.6181,-378.593,0,0
388252,44.4346,-377.975,0,0
388512,44.215,-377.305,0,0
388773,44.1307,-376.648,0,0
389033,44.0046,-375.977,0,0
389293,43.8943,-375.319,0,0
389554,43.8523,-374.711,0,0
389814,43.7926,-374.066,0,0
390074,43.7582,-373.446,0,0
390335,43.7478,-372.842,0,0
390595,43.7206,-372.253,0,0
390855,43.6677,-371.65,0,0
391116,43.6414,-371.107,0,0
391376,43.6267,-370.517,0,0
391636,43.5936,-369.961,0,0
391896,43.5715,-369.405,0,0
392157,43.5782,-368.859,0,0
392417,43.546,-368.323,0,0
392677,43.4746,-367.771,0,0
392938,43.4759,-367.223,0,0
393198,43.4193,-366.656,0,0
393458,43.3813,-366.078,0,0
393719,43.3653,-365.482,0,0
393979,43.3625,-364.927,0,0
394239,43.3271,-364.348,0,0
394500,43.2942,-363.733,0,0
394760.05,43.2887,-363.114,0,0
395020.375,43.3582,-362.491,0,0
395280.7,43.3762,-361.917,0,0
395541.025,43.4239,-361.309,0,0
395801.35,43.4741,-360.726,0,0
396061.675,43.5461,-360.136,0,0
396322.0,43.6101,-359.573,0,0
396582.325,43.7431,-358.995,0,0
396842.65,43.8115,-358.475,0,0
397102.975,43.8891,-357.917,0,0
397363.3,43.9379,-357.395,0,0
397623.625,44.035,-356.852,0,0
397883.95,44.1084,-356.341,0,0
398144.275,44.1738,-355.792,0,0
398404.6,44.275,-355.269,0,0
398664.925,44.3536,-354.757,0,0
398925.25,44.4204,-354.272,0,0
399185.575,44.508,-353.735,0,0
399445.9,44.5974,-353.243,0,0
399706.225,44.6555,-352.725,0,0
399966.55,44.6972,-352.209,0,0
400006.6,44.7228,-352.125,0,0