File: Accelerated corrosion test data/2025-10-22_09-25-28/sample_5.csv
Frequency (Hz),Impedance (ohms),Phase (Radians),Temperature (C),Humidity (%)
10000.0,3768.36,-3338.53,0,0
10260.325,3702.37,-3328.37,0,0
10520.65,3636.37,-3247.44,0,0
10780.975,3556.27,-3144.6,0,0
11041.3,3489.59,-3040.21,0,0
11301.625,3446.68,-3159.2,0,0
11561.95,3391.71,-3142.91,0,0
11822.275,3339.5,-3147.72,0,0
12082.6,3286.25,-3142.71,0,0
12342.925,3232.89,-3110.16,0,0
12603.25,3183.84,-3113.47,0,0
12863.575,3134.15,-3108.73,0,0
13123.9,3086.03,-3102.6,0,0
13384.225,3037.69,-3102.5,0,0
13644.55,2992.33,-3083.73,0,0
13904.875,2946.8,-3069.51,0,0
14165.2,2902.78,-3060.75,0,0
14425.525,2860.8,-3033.64,0,0
14685.8,2818.07,-3028.45,0,0
14946.175,2775.5,-3018.29,0,0
15206.5,2736.01,-3007.09,0,0
15466.825,2695.97,-2998.52,0,0
15727.15,2656.53,-2988.25,0,0
15987.5,2618.71,-2976.08,0,0
16247.8,2581.16,-2967.69,0,0
16508.125,2545.46,-2948.79,0,0
16768.45,2508.25,-2947.17,0,0
17028.775,2473.73,-2928.09,0,0
17289.1,2438.74,-2920.06,0,0
17549.425,2403.03,-2917.49,0,0
17809.75,2372.32,-2894.21,0,0
18070.075,2337.92,-2887.31,0,0
18330.4,2306.33,-2874.15,0,0
18590.725,2277.63,-2853.83,0,0
18851.05,2248.63,-2833.45,0,0
19111.375,2217.86,-2824.08,0,0
19371.7,2183.32,-2830.92,0,0
19632.025,2159.14,-2801.05,0,0
19892.35,2131.44,-2787.36,0,0
20152.675,2099.39,-2786.64,0,0
20413.0,2077.19,-2760.38,0,0
20673.3,2047.89,-2751.74,0,0
20933.65,2019.28,-2749.7,0,0
21193.975,1978.73,-2781.05,0,0
21454.3,1957.01,-2757.85,0,0
21714.625,1933.28,-2741.92,0,0
21974.9,1923.17,-2688.7,0,0
22235.275,1898.75,-2676.78,0,0
22495.6,1875.59,-2663.6,0,0
22755.925,1852.99,-2650.07,0,0
23016.25,1829.57,-2638.86,0,0
23276.6,1809.51,-2621.19,0,0
23536.9,1785.66,-2613.45,0,0
23797.225,1764.3,-2601.28,0,0
24057.55,1743.85,-2587.45,0,0
24317.875,1723.47,-2573.84,0,0
24578.2,1703.17,-2561.27,0,0
24838.525,1684.06,-2547.35,0,0
25098.85,1665.8,-2533.2,0,0
25359.175,1643.29,-2527.86,0,0
25619.5,1624.96,-2515.28,0,0
25879.8,1605.21,-2504.77,0,0
26140.1,1586.98,-2496.84,0,0
26400.5,1572.56,-2476.59,0,0
26660.8,1555.74,-2463.29,0,0
26921.1,1538.72,-2450.04,0,0
27181.4,1520.44,-2441.21,0,0
27441.8,1504.25,-2427.86,0,0
27702.1,1472.1,-2446.07,0,0
27962.4,1456.03,-2434.03,0,0
28222.7,1444.86,-2412.59,0,0
28483.1,1435.18,-2390,0,0
28743.4,1420.17,-2377.63,0,0
29003.7,1406.47,-2363.29,0,0
29264,1387.97,-2358.3,0,0
29524.4,1375.52,-2342.93,0,0
29784.7,1359.45,-2334.43,0,0
30045,1347.67,-2318.39,0,0
30305.3,1332.79,-2309.06,0,0
30565.7,1317.53,-2300.28,0,0
30826,1304.17,-2288.76,0,0
31086.3,1289.57,-2279.63,0,0
31346.6,1277.9,-2266.29,0,0
31607,1264.87,-2255.71,0,0
31867.3,1251.6,-2245.75,0,0
32127.6,1241.33,-2231.36,0,0
32387.9,1227.36,-2222.87,0,0
32648.3,1216.5,-2210.28,0,0
32908.6,1207.23,-2195.57,0,0
33168.9,1195.59,-2185.16,0,0
33429.2,1183.3,-2175.6,0,0
33689.6,1172.49,-2164.06,0,0
33949.9,1166.91,-2145.16,0,0
34210.2,1154.31,-2137.34,0,0
34470.5,1137.7,-2136.39,0,0
34730.9,1124.52,-2129.59,0,0
34991.2,1112.94,-2120.84,0,0
35251.5,1108.2,-2103.01,0,0
35511.8,1091.13,-2102.37,0,0
35772.2,1083.4,-2089.17,0,0
36032.5,1076.38,-2075.15,0,0
36292.8,1055.95,-2079.97,0,0
36553.1,1052.72,-2061.6,0,0
36813.5,1043.4,-2051.78,0,0
37073.8,1034.45,-2041.21,0,0
37334.1,1035.92,-2017.34,0,0
37594.4,1020.58,-2016.56,0,0
37854.8,1002.92,-2018.75,0,0
38115.1,994.557,-2008.63,0,0
38375.4,993.617,-1988.63,0,0
38635.7,974.64,-1993.04,0,0
38896.1,965.156,-1985.3,0,0
39156.4,966.476,-1963.94,0,0
39416.7,952.085,-1962.83,0,0
39677,944.686,-1952.97,0,0
39937.4,929.75,-1952.57,0,0
40197.7,926.033,-1938.63,0,0
40458,920.135,-1927.31,0,0
40718.3,904.754,-1927.89,0,0
40978.7,896.883,-1919.45,0,0
41239,889.464,-1910.64,0,0
41499.3,881.203,-1902.95,0,0
41759.6,875.734,-1892.31,0,0
42020,861.473,-1892.08,0,0
42280.275,862.711,-1875.61,0,0
42540.6,856.678,-1865.92,0,0
42800.925,848.258,-1859.52,0,0
43061.25,841.906,-1850.6,0,0
43321.575,835.553,-1841.87,0,0
43581.9,829.944,-1832.55,0,0
43842.225,825.858,-1821.72,0,0
44102.55,810.333,-1823.5,0,0
44362.875,812.713,-1805.58,0,0
44623.2,801.356,-1803.06,0,0
44883.525,797.061,-1793.31,0,0
45143.85,788.273,-1788.33,0,0
45404.175,779.402,-1783.45,0,0
45664.5,783.776,-1764.74,0,0
45924.825,767.701,-1767.8,0,0
46185.15,762.142,-1759.86,0,0
46445.475,745.378,-1763.87,0,0
46705.8,752.847,-1742.57,0,0
46966.125,747.612,-1734.84,0,0
47226.45,742.79,-1726.68,0,0
47486.775,737.295,-1719.53,0,0
47747.1,734.365,-1709.67,0,0
48007.425,728.395,-1702.88,0,0
48267.75,731.874,-1686.88,0,0
48528.075,720.075,-1686.46,0,0
48788.4,698.868,-1695.91,0,0
49048.725,693.274,-1689.7,0,0
49309.05,702.729,-1668.4,0,0
49569.375,692.447,-1667.01,0,0
49829.7,694.913,-1653.03,0,0
50090.025,687.385,-1649.37,0,0
50350.35,678.61,-1646.62,0,0
50610.675,679.163,-1634.96,0,0
50871.0,672.553,-1630.58,0,0
51131.325,658.6,-1633.16,0,0
51391.65,656.479,-1624.29,0,0
51651.975,651.275,-1618.59,0,0
51912.3,647.127,-1612.02,0,0
52172.625,643.197,-1605.21,0,0
52432.95,636.728,-1600.65,0,0
52693.275,632.115,-1594.44,0,0
52953.6,628.28,-1587.49,0,0
53213.925,623.969,-1581.25,0,0
53474.25,619.535,-1575.16,0,0
53734.575,615.94,-1568.54,0,0
53994.9,612.051,-1562.1,0,0
54255.225,609.122,-1555,0,0
54515.55,605.031,-1548.79,0,0
54775.875,601.948,-1541.98,0,0
55036.2,598.739,-1535.19,0,0
55296.525,596.082,-1527.96,0,0
55556.85,591.115,-1523.19,0,0
55817.175,587.941,-1516.92,0,0
56077.5,583.782,-1511.7,0,0
56337.825,581.396,-1505.01,0,0
56598.15,576.918,-1500.22,0,0
56858.475,572.945,-1494.91,0,0
57118.8,570.033,-1488.86,0,0
57379.125,564.88,-1484.71,0,0
57639.45,561.475,-1479.02,0,0
57899.775,557.791,-1473.68,0,0
58160.1,555.292,-1468.03,0,0
58420.4,551.325,-1463.07,0,0
58680.7,548.546,-1456.94,0,0
58941.1,544.267,-1452.24,0,0
59201.4,539.911,-1447.46,0,0
59461.7,537.603,-1440.98,0,0
59722,533.972,-1435.75,0,0
59982.4,520.559,-1438.81,0,0
60242.7,525.398,-1426.54,0,0
60503,510.682,-1430.54,0,0
60763.3,507.547,-1424.85,0,0
61023.7,504.63,-1419.19,0,0
61284,501.804,-1413.53,0,0
61544.3,498.722,-1408.25,0,0
61804.6,495.908,-1402.76,0,0
62065,492.772,-1397.38,0,0
62325.3,489.826,-1392.26,0,0
62585.6,486.958,-1386.94,0,0
62845.9,484.836,-1381.55,0,0
63106.3,482.149,-1376.39,0,0
63366.6,479.74,-1371.14,0,0
63626.9,476.694,-1366.58,0,0
63887.2,474.776,-1361.14,0,0
64147.6,471.95,-1356.22,0,0
64407.9,469.439,-1351.19,0,0
64668.2,467.124,-1346.06,0,0
64928.5,465.047,-1340.93,0,0
65188.9,463.641,-1335.01,0,0
65449.2,461.394,-1329.4,0,0
65709.5,460.2,-1323.68,0,0
65969.8,457.147,-1319.04,0,0
66230.2,452.809,-1315.72,0,0
66490.5,446.634,-1313.54,0,0
66750.8,444.221,-1308.88,0,0
67011.1,441.851,-1304.21,0,0
67271.5,439.122,-1299.82,0,0
67531.8,436.331,-1295.45,0,0
67792.1,434.381,-1290.51,0,0
68052.4,432.174,-1286.04,0,0
68312.8,429.927,-1281.72,0,0
68573.1,427.655,-1277.14,0,0
68833.4,425.51,-1272.38,0,0
69093.7,423.79,-1267.69,0,0
69354.1,421.534,-1263.15,0,0
69614.4,419.39,-1258.86,0,0
69874.7,417.595,-1254.11,0,0
70135,415.701,-1249.9,0,0
70395.4,413.954,-1245.56,0,0
70655.7,411.815,-1241.53,0,0
70916,409.469,-1237.41,0,0
71176.3,407.303,-1233.36,0,0
71436.7,405.697,-1228.95,0,0
71697,401.946,-1226.27,0,0
71957.3,398.684,-1222.96,0,0
72217.6,396.69,-1218.79,0,0
72478,394.689,-1214.65,0,0
72738.3,392.808,-1210.65,0,0
72998.6,390.944,-1206.67,0,0
73258.9,389.075,-1202.62,0,0
73519.3,387.608,-1198.33,0,0
73779.6,385.487,-1194.64,0,0
74039.9,383.666,-1190.84,0,0
74300.225,393.813,-1178.87,0,0
74560.55,390.909,-1175.99,0,0
74820.875,387.321,-1173.68,0,0
75081.2,386.418,-1169.2,0,0
75341.525,469.531,-1090.51,0,0
75601.85,386.764,-1158.77,0,0
75862.175,384.864,-1154.94,0,0
76122.5,380.071,-1153.3,0,0
76382.825,378.576,-1149.1,0,0
76643.15,376.31,-1145.66,0,0
76903.475,376.761,-1140.29,0,0
77163.8,372.872,-1137.95,0,0
77424.125,370.165,-1134.69,0,0
77684.45,367.849,-1131.22,0,0
77944.775,365.431,-1127.86,0,0
78205.1,365.282,-1122.89,0,0
78465.425,363.45,-1119.23,0,0
78725.75,359.931,-1117.01,0,0
78986.075,359.916,-1112.17,0,0
79246.4,358.043,-1108.64,0,0
79506.725,355.432,-1105.77,0,0
79767.05,355.425,-1101.01,0,0
80027.375,354.457,-1097.3,0,0
80287.7,350.367,-1095.51,0,0
80548.025,348.03,-1092.37,0,0
80808.35,345.821,-1089.15,0,0
81068.675,345.773,-1084.55,0,0
81329.0,342.642,-1082.04,0,0
81589.325,341.19,-1078.23,0,0
81849.65,338.127,-1075.66,0,0
82109.975,339.22,-1070.17,0,0
82370.3,335.172,-1068.17,0,0
82630.625,334.391,-1064.01,0,0
82890.95,331.907,-1060.79,0,0
83151.275,332.617,-1055.79,0,0
83411.6,332.692,-1050.95,0,0
83671.925,355.034,-1029.87,0,0
83932.25,330.451,-1043.32,0,0
84192.575,343.956,-1028.98,0,0
84452.9,334.177,-1031.49,0,0
84713.225,332.421,-1028.35,0,0
84973.55,319.997,-1032.59,0,0
85233.875,325.061,-1024.81,0,0
85494.2,324.144,-1021.16,0,0
85754.525,322.547,-1018.01,0,0
86014.85,322.126,-1014.04,0,0
86275.175,318.163,-1012.33,0,0
86535.5,318.054,-1008.14,0,0
86795.825,317.153,-1004.33,0,0
87056.15,316.334,-1000.51,0,0
87316.475,310.305,-1000.06,0,0
87576.8,309.335,-996.25,0,0
87837.125,307.026,-993.358,0,0
88097.45,305.988,-989.602,0,0
88357.775,305.675,-985.338,0,0
88618.1,306.215,-980.764,0,0
88878.425,302.046,-979.055,0,0
89138.75,294.81,-979.639,0,0
89399.075,289.813,-978.758,0,0
89659.4,289.552,-975.111,0,0
89919.725,288.639,-971.803,0,0
90180,287.508,-968.853,0,0
90440.4,286.894,-965.571,0,0
90700.7,285.685,-962.828,0,0
90961,284.474,-959.989,0,0
91221.3,283.691,-956.68,0,0
91481.7,281.833,-954.543,0,0
91742,281.402,-951.259,0,0
92002.3,281.512,-947.612,0,0
92262.6,281.058,-944.511,0,0
92523,278.644,-942.535,0,0
92783.3,277.87,-939.45,0,0
93043.6,277.53,-936.004,0,0
93303.9,276.7,-932.802,0,0
93564.3,274.821,-930.266,0,0
93824.6,282.574,-921.617,0,0
94084.9,281.066,-918.628,0,0
94345.2,271.846,-920.874,0,0
94605.6,273.585,-916.001,0,0
94865.9,264.361,-918.162,0,0
95126.2,263.009,-915.36,0,0
95386.5,262.079,-912.411,0,0
95646.9,261.119,-909.321,0,0
95907.2,259.695,-906.681,0,0
96167.5,259.263,-903.419,0,0
96427.8,257.654,-900.78,0,0
96688.2,257.08,-897.52,0,0
96948.5,254.893,-895.269,0,0
97208.8,252.213,-893.281,0,0
97469.1,251.195,-890.306,0,0
97729.5,251.217,-886.577,0,0
97989.8,250.375,-883.483,0,0
98250.1,249.202,-880.595,0,0
98510.4,248.336,-877.54,0,0
98770.8,246.864,-874.808,0,0
99031.1,246.35,-871.64,0,0
99291.4,245.456,-868.625,0,0
99551.7,244.856,-865.507,0,0
99812.1,244.189,-862.447,0,0
100072,261.406,-847.984,0,0
100333,254.97,-848.646,0,0
100593,250.548,-848.443,0,0
100853,243.867,-849.705,0,0
101114,249.955,-842.769,0,0
101374,249.664,-839.864,0,0
101634,249.619,-836.708,0,0
101895,239.511,-839.994,0,0
102155,283.538,-805.975,0,0
102415,248.948,-827.786,0,0
102676,241.656,-829.216,0,0
102936,242.7,-825.339,0,0
103196,232.754,-828.235,0,0
103457,241.831,-819.428,0,0
103717,237.802,-818.768,0,0
103977,236.863,-816.138,0,0
104238,236.534,-813.126,0,0
104498,235.311,-810.766,0,0
104758,233.652,-808.665,0,0
105019,232.691,-806.071,0,0
105279,231.518,-803.55,0,0
105539,230.366,-800.999,0,0
105800,229.448,-798.343,0,0
106060,228.473,-795.513,0,0
106320.175,226.909,-793.199,0,0
106580.5,225.747,-790.54,0,0
106840.825,225.014,-787.67,0,0
107101.15,224.211,-784.811,0,0
107361.475,223.777,-781.742,0,0
107621.8,223.305,-778.769,0,0
107882.125,222.615,-775.895,0,0
108142.45,221.218,-773.485,0,0
108402.775,220.448,-770.709,0,0
108663.1,219.596,-768.125,0,0
108923.425,218.861,-765.379,0,0
109183.75,218.1,-762.696,0,0
109444.075,217.393,-759.955,0,0
109704.4,216.844,-757.187,0,0
109964.725,216.008,-754.511,0,0
110225.05,215.716,-751.417,0,0
110485.375,214.767,-748.768,0,0
110745.7,214.254,-746.018,0,0
111006.025,213.546,-743.176,0,0
111266.35,212.683,-740.382,0,0
111526.675,212.093,-737.602,0,0
111787.0,211.314,-735.062,0,0
112047.325,210.602,-732.15,0,0
112307.65,210.291,-729.201,0,0
112567.975,209.566,-726.438,0,0
112828.3,208.726,-723.89,0,0
113088.625,208.308,-721.187,0,0
113348.95,208.095,-718.314,0,0
113609.275,207.43,-715.682,0,0
113869.6,206.95,-713.055,0,0
114129.925,206.507,-710.326,0,0
114390.25,206.143,-707.673,0,0
114650.575,205.692,-705.245,0,0
114910.9,205.538,-702.379,0,0
115171.225,204.827,-699.708,0,0
115431.55,204.563,-696.763,0,0
115691.875,204.045,-693.96,0,0
115952.2,203.896,-691.182,0,0
116212.525,203.261,-688.756,0,0
116472.85,202.551,-686.28,0,0
116733.175,202.426,-683.296,0,0
116993.5,202.14,-680.528,0,0
117253.825,201.721,-677.838,0,0
117514.15,201.424,-675.298,0,0
117774.475,200.984,-672.838,0,0
118034.8,200.479,-670.429,0,0
118295.125,200.143,-667.986,0,0
118555.45,199.94,-665.568,0,0
118815.775,199.694,-663.166,0,0
119076.1,199.342,-660.856,0,0
119336.425,199.015,-658.517,0,0
119596.75,198.697,-656.176,0,0
119857.075,198.43,-653.899,0,0
120117.4,198.286,-651.516,0,0
120377.725,197.87,-649.205,0,0
120638.05,197.601,-646.857,0,0
120898.375,197.267,-644.539,0,0
121158.7,196.939,-642.199,0,0
121419.025,196.396,-639.991,0,0
121679.35,196.136,-637.615,0,0
121939.675,195.423,-635.482,0,0
122200.0,194.995,-633.143,0,0
122460,194.476,-630.982,0,0
122721,193.868,-628.716,0,0
122981,193.1,-626.465,0,0
123241,192.767,-623.78,0,0
123502,192.344,-621.131,0,0
123762,192.302,-618.233,0,0
124022,191.992,-615.518,0,0
124283,191.464,-613.059,0,0
124543,191.209,-610.379,0,0
124803,191.055,-607.638,0,0
125064,190.942,-604.99,0,0
125324,191.809,-601.73,0,0
125584,192.242,-598.952,0,0
125845,192.032,-596.635,0,0
126105,191.67,-594.386,0,0
126365,191.635,-591.853,0,0
126626,191.728,-589.189,0,0
126886,191.358,-586.948,0,0
127146,190.962,-584.725,0,0
127406,191.048,-582.035,0,0
127667,190.768,-579.812,0,0
127927,190.137,-577.674,0,0
128187,190.176,-575.044,0,0
128448,189.592,-572.78,0,0
128708,189.435,-570.233,0,0
128968,189,-567.877,0,0
129229,189.198,-565.068,0,0
129489,189.069,-562.427,0,0
129749,188.865,-559.783,0,0
130010,188.019,-557.525,0,0
130270,187.88,-554.749,0,0
130530,187.287,-552.324,0,0
130791,186.884,-549.692,0,0
131051,186.363,-547.05,0,0
131311,185.82,-544.365,0,0
131572,185.447,-541.485,0,0
131832,185.34,-538.415,0,0
132092,184.544,-535.899,0,0
132353,184.317,-532.992,0,0
132613,184.294,-529.932,0,0
132873,183.151,-527.769,0,0
133134,181.6,-525.96,0,0
133394,181.386,-523.127,0,0
133654,182.015,-519.548,0,0
133915,182.342,-516.352,0,0
134175,181.837,-513.885,0,0
134435,181.302,-511.464,0,0
134696,181.02,-508.817,0,0
134956,183.61,-503.884,0,0
135216,181.408,-502.792,0,0
135477,182.296,-499.233,0,0
135737,182.606,-496.115,0,0
135997,183.095,-492.977,0,0
136258,183.639,-489.818,0,0
136518,184.65,-486.288,0,0
136778,185.604,-482.886,0,0
137039,185.457,-480.522,0,0
137299,186.145,-477.528,0,0
137559,189.205,-472.373,0,0
137819,188.256,-470.855,0,0
138080,189.391,-467.488,0,0
138340.125,187.827,-466.838,0,0
138600.45,189.277,-463.251,0,0
138860.775,190.503,-459.938,0,0
139121.1,190.775,-457.631,0,0
139381.425,191.356,-454.796,0,0
139641.75,191.918,-452.053,0,0
139902.075,190.519,-451.284,0,0
140162.4,191.429,-448.253,0,0
140422.725,190.999,-446.613,0,0
140683.05,191.953,-443.609,0,0
140943.375,191.472,-441.991,0,0
141203.7,191.769,-439.438,0,0
141464.025,191.758,-437.332,0,0
141724.35,192.06,-434.82,0,0
141984.675,192.51,-432.115,0,0
142245.0,193.07,-429.518,0,0
142505.325,193.592,-426.811,0,0
142765.65,194.008,-424.184,0,0
143025.975,193.962,-422.071,0,0
143286.3,194.625,-419.22,0,0
143546.625,195.121,-416.541,0,0
143806.95,195.599,-413.828,0,0
144067.275,196.08,-411.001,0,0
144327.6,196.498,-408.122,0,0
144587.925,197.058,-405.156,0,0
144848.25,197.548,-402.296,0,0
145108.575,197.999,-399.408,0,0
145368.9,198.523,-396.375,0,0
145629.225,199.089,-393.32,0,0
145889.55,199.727,-390.258,0,0
146149.875,200.368,-387.146,0,0
146410.2,200.913,-384.124,0,0
146670.525,201.57,-380.976,0,0
146930.85,202.321,-377.695,0,0
147191.175,203.072,-374.49,0,0
147451.5,203.96,-371.192,0,0
147711.825,205.047,-367.654,0,0
147972.15,206.128,-364.317,0,0
148232.475,207.108,-361.178,0,0
148492.8,208.099,-357.929,0,0
148753.125,209.061,-354.784,0,0
149013.45,209.995,-351.491,0,0
149273.775,210.994,-348.006,0,0
149534.1,212.002,-344.539,0,0
149794.425,213.163,-341.048,0,0
150054.75,214.284,-337.349,0,0
150315.075,215.281,-333.869,0,0
150575.4,216.492,-330.184,0,0
150835.725,218.016,-326.42,0,0
151096.05,219.666,-322.647,0,0
151356.375,221.368,-318.942,0,0
151616.7,223.149,-315.129,0,0
151877.025,225.076,-311.465,0,0
152137.35,227.063,-307.698,0,0
152397.675,229.032,-304.106,0,0
152658.0,231.099,-300.459,0,0
152918.325,233.338,-296.643,0,0
153178.65,235.697,-292.906,0,0
153438.975,238.242,-289.234,0,0
153699.3,240.8,-285.674,0,0
153959.625,243.46,-282.079,0,0
154219.95,246.196,-278.102,0,0
154480,249.074,-275.086,0,0
154741,252.161,-271.256,0,0
155001,255.343,-267.768,0,0
155261,258.642,-264.593,0,0
155522,262.078,-261.407,0,0
155782,265.529,-258.473,0,0
156042,269.005,-255.597,0,0
156303,272.481,-252.744,0,0
156563,276.052,-250.16,0,0
156823,279.581,-247.257,0,0
157084,283.078,-245.032,0,0
157344,286.473,-243.143,0,0
157604,289.739,-240.769,0,0
157864,292.941,-238.411,0,0
158125,296.148,-235.849,0,0
158385,299.36,-233.228,0,0
158645,302.759,-230.754,0,0
158906,306.367,-228.612,0,0
159166,309.915,-226.02,0,0
159426,313.714,-223.454,0,0
159687,317.656,-220.974,0,0
159947,321.664,-218.696,0,0
160207,325.799,-216.542,0,0
160468,329.724,-214.147,0,0
160728,333.847,-212.138,0,0
160988,338.257,-210.22,0,0
161249,342.657,-208.43,0,0
161509,347.082,-206.843,0,0
161769,351.493,-205.411,0,0
162030,355.93,-203.957,0,0
162290,360.427,-202.662,0,0
162550,364.983,-201.651,0,0
162811,369.204,-200.287,0,0
163071,373.981,-199.941,0,0
163331,378.64,-199.402,0,0
163592,383.188,-199.068,0,0
163852,387.331,-198.574,0,0
164112,390.627,-197.282,0,0
164373,393.959,-196.296,0,0
164633,397.2,-195.372,0,0
164893,403.392,-198.702,0,0
165154,406.839,-198.422,0,0
165414,410.774,-198.727,0,0
165674,414.516,-198.709,0,0
165935,418.267,-198.758,0,0
166195,422.292,-199.384,0,0
166455,425.575,-199.162,0,0
166716,429.281,-199.525,0,0
166976,432.511,-199.156,0,0
167236,436.005,-199.162,0,0
167497,439.362,-198.963,0,0
167757,443.348,-199.836,0,0
168017,446.736,-199.916,0,0
168277,450.08,-200.21,0,0
168538,453.577,-200.649,0,0
168798,456.894,-200.754,0,0
169058,459.636,-200.399,0,0
169319,463.132,-200.936,0,0
169579,466.574,-201.256,0,0
169839,470.061,-201.675,0,0
170100,473.68,-201.998,0,0
170360.075,477.264,-202.368,0,0
170620.4,480.436,-202.417,0,0
170880.725,483.988,-202.933,0,0
171141.05,487.044,-203.242,0,0
171401.375,490.113,-203.763,0,0
171661.7,492.639,-203.884,0,0
171922.025,495.269,-204.103,0,0
172182.35,498.181,-204.504,0,0
172442.675,500.982,-204.911,0,0
172703.0,504.192,-205.791,0,0
172963.325,507.466,-206.831,0,0
173223.65,508.706,-206.022,0,0
173483.975,514.31,-209.931,0,0
173744.3,517.4,-211.123,0,0
174004.625,520.424,-212.224,0,0
174264.95,522.775,-212.445,0,0
174525.275,524.518,-211.991,0,0
174785.6,527.999,-213.377,0,0
175045.925,530.324,-213.437,0,0
175306.25,533.213,-213.787,0,0
175566.575,536.164,-214.197,0,0
175826.9,539.795,-215.272,0,0
176087.225,543.084,-216.065,0,0
176347.55,545.774,-216.275,0,0
176607.875,548.943,-216.799,0,0
176868.2,552.876,-218.08,0,0
177128.525,555.901,-218.483,0,0
177388.85,559.118,-219.12,0,0
177649.175,563.398,-220.886,0,0
177909.5,566.355,-221.587,0,0
178169.825,569.099,-222.128,0,0
178430.15,572.297,-223.185,0,0
178690.475,575.516,-224.351,0,0
178950.8,578.554,-225.458,0,0
179211.125,581.269,-226.27,0,0
179471.45,583.919,-227.036,0,0
179731.775,586.509,-227.744,0,0
179992.1,590.172,-229.384,0,0
180252.425,592.891,-230.208,0,0
180512.75,595.45,-230.657,0,0
180773.075,598.572,-231.715,0,0
181033.4,602.118,-232.969,0,0
181293.725,604.887,-233.244,0,0
181554.05,608.014,-233.777,0,0
181814.375,611.161,-234.153,0,0
182074.7,614.729,-234.98,0,0
182335.025,618.488,-235.794,0,0
182595.35,622.489,-236.992,0,0
182855.675,626.911,-238.644,0,0
183116.0,631.034,-240.197,0,0
183376.325,634.743,-241.466,0,0
183636.65,638.625,-243.019,0,0
183896.975,641.866,-244.176,0,0
184157.3,645.896,-246.211,0,0
184417.625,649.941,-248.365,0,0
184677.95,653.784,-250.562,0,0
184938.275,656.952,-252.153,0,0
185198.6,660.138,-253.797,0,0
185458.925,663.22,-255.349,0,0
185719.25,666.572,-257.105,0,0
185979.575,670.276,-259.219,0,0
186239.9,673.604,-260.831,0,0
186500,676.924,-262.359,0,0
186761,680.477,-264.106,0,0
187021,683.702,-265.519,0,0
187281,687.688,-267.476,0,0
187542,691.199,-268.91,0,0
187802,695.001,-270.353,0,0
188062,697.532,-270.514,0,0
188322,701.682,-271.891,0,0
188583,706.407,-273.686,0,0
188843,711.108,-275.487,0,0
189103,715.297,-276.803,0,0
189364,720.569,-279.082,0,0
189624,726.012,-281.42,0,0
189884,730.961,-283.675,0,0
190145,735.345,-285.066,0,0
190405,741.488,-288.362,0,0
190665,746.004,-290.208,0,0
190926,752.147,-293.724,0,0
191186,755.526,-294.542,0,0
191446,760.042,-296.786,0,0
191707,766.995,-301.578,0,0
191967,774.368,-307.008,0,0
192227,780.558,-311.522,0,0
192488,785.441,-315.095,0,0
192748,791.902,-320.401,0,0
193008,797.161,-324.863,0,0
193269,804.032,-331.392,0,0
193529,809.88,-337.258,0,0
193789,816.846,-344.766,0,0
194050,822.514,-351.38,0,0
194310,828.359,-358.624,0,0
194570,833.615,-365.739,0,0
194831,838.296,-372.395,0,0
195091,842.073,-378.848,0,0
195351,847.525,-387.56,0,0
195612,852.749,-396.527,0,0
195872,855.759,-403.395,0,0
196132,860.292,-412.459,0,0
196393,863.63,-420.764,0,0
196653,867.737,-430.82,0,0
196913,870.729,-440.095,0,0
197174,872.228,-447.846,0,0
197434,875.511,-458.828,0,0
197694,878.251,-469.678,0,0
197955,879.403,-478.839,0,0
198215,880.925,-489.088,0,0
198475,881.955,-499.422,0,0
198735,882.212,-508.904,0,0
198996,881.854,-518.324,0,0
199256,881.628,-528.15,0,0
199516,881.979,-539.64,0,0
199777,880.43,-548.02,0,0
200037,878.578,-556.651,0,0
200297,876.985,-566.236,0,0
200558,874.038,-573.43,0,0
200818,874.3,-589.388,0,0
201078,872.528,-601.693,0,0
201339,869.706,-611.501,0,0
201599,867.168,-622.789,0,0
201859,863.497,-631.875,0,0
202120,859.66,-641.234,0,0
202380.025,855.488,-650.104,0,0
202640.35,851.585,-660.344,0,0
202900.675,846.907,-669.079,0,0
203161.0,841.963,-677.986,0,0
203421.325,836.64,-686.151,0,0
203681.65,831.535,-695.561,0,0
203941.975,825.922,-703.553,0,0
204202.3,820.039,-711.969,0,0
204462.625,813.869,-718.867,0,0
204722.95,807.716,-726.639,0,0
204983.275,800.821,-733.942,0,0
205243.6,794.637,-741.697,0,0
205503.925,787.478,-748.843,0,0
205764.25,780.323,-755.392,0,0
206024.575,773.199,-759.279,0,0
206284.9,765.863,-766.155,0,0
206545.225,758.329,-772.627,0,0
206805.55,751.023,-777.101,0,0
207065.875,743.285,-782.245,0,0
207326.2,735.622,-786.032,0,0
207586.525,727.817,-791.183,0,0
207846.85,720.07,-795.128,0,0
208107.175,712.051,-800.658,0,0
208367.5,704.197,-803.555,0,0
208627.825,696.176,-808.192,0,0
208888.15,688.18,-811.762,0,0
209148.475,680.29,-814.641,0,0
209408.8,672.221,-818.546,0,0
209669.125,664.395,-820.52,0,0
209929.45,657.106,-821.757,0,0
210189.775,648.936,-824.425,0,0
210450.1,641.268,-825.357,0,0
210710.425,633.4,-827.128,0,0
210970.75,625.918,-828.458,0,0
211231.075,618.54,-828.699,0,0
211491.4,611.245,-829.107,0,0
211751.725,603.178,-831.865,0,0
212012.05,595.649,-832.833,0,0
212272.375,588.534,-832.948,0,0
212532.7,581.472,-833.063,0,0
212793.025,574.575,-832.911,0,0
213053.35,568.239,-831.347,0,0
213313.675,560.833,-832.533,0,0
213574.0,553.709,-833.019,0,0
213834.325,546.908,-832.571,0,0
214094.65,541.037,-830.552,0,0
214354.975,534.053,-830.874,0,0
214615.3,528.589,-828.324,0,0
214875.625,523.587,-824.711,0,0
215135.95,515.396,-827.928,0,0
215396.275,510.007,-825.546,0,0
215656.6,503.782,-824.853,0,0
215916.925,497.074,-824.989,0,0
216177.25,492.092,-822.23,0,0
216437.575,487.119,-819.434,0,0
216697.9,481.652,-817.723,0,0
216958.225,476.677,-815.246,0,0
217218.55,470.888,-814.359,0,0
217478.875,466.214,-811.695,0,0
217739.2,460.994,-809.827,0,0
217999.525,456.09,-807.714,0,0
218259.85,450.398,-806.806,0,0
218520,445.65,-804.701,0,0
218780,440.68,-802.798,0,0
219041,435.967,-800.683,0,0
219301,431.512,-797.907,0,0
219561,426.902,-795.551,0,0
219822,423.179,-792.254,0,0
220082,418.628,-790.071,0,0
220342,415.518,-785.936,0,0
220603,411.458,-783.235,0,0
220863,408.34,-779.495,0,0
221123,404.173,-777.228,0,0
221384,400.056,-774.846,0,0
221644,394.681,-774.552,0,0
221904,391.441,-771.258,0,0
222165,389.259,-766.992,0,0
222425,385.271,-765.11,0,0
222685,382.071,-762.426,0,0
222946,378.881,-759.891,0,0
223206,376.716,-756.107,0,0
223466,374.233,-753.066,0,0
223727,372.59,-748.676,0,0
223987,369.919,-746.227,0,0
224247,367.605,-743.083,0,0
224508,366.707,-738.41,0,0
224768,366.254,-733.692,0,0
225028,363.006,-731.943,0,0
225289,360.72,-729.767,0,0
225549,358.243,-727.671,0,0
225809,356.092,-725.363,0,0
226070,353.931,-723.325,0,0
226330,352.715,-719.731,0,0
226590,350.593,-718.001,0,0
226851,349.287,-715.108,0,0
227111,348.235,-712.215,0,0
227371,347.095,-709.428,0,0
227632,345.232,-707.763,0,0
227892,344.52,-704.72,0,0
228152,344.108,-701.245,0,0
228413,342.285,-699.894,0,0
228673,341.618,-697.237,0,0
228933,340.995,-694.479,0,0
229193,340.343,-691.727,0,0
229454,338.987,-690.339,0,0
229714,338.266,-688.102,0,0
229974,337.51,-685.957,0,0
230235,337.525,-683.06,0,0
230495,336.923,-680.957,0,0
230755,336.163,-679.044,0,0
231016,336.286,-676.266,0,0
231276,334.554,-675.946,0,0
231536,334.273,-673.702,0,0
231797,334.168,-671.349,0,0
232057,334.176,-669.04,0,0
232317,335.064,-665.723,0,0
232578,334.266,-664.539,0,0
232838,333.532,-663.427,0,0
233098,333.864,-661.179,0,0
233359,334.043,-658.914,0,0
233619,334.126,-657.125,0,0
233879,333.571,-656.113,0,0
234140,332.79,-655.482,0,0
234400,332.968,-653.955,0,0
234660.3,333.599,-651.71,0,0
234920.625,333.915,-649.916,0,0
235180.95,334.524,-648.007,0,0
235441.275,334.622,-646.773,0,0
235701.6,335.251,-644.947,0,0
235961.925,335.447,-643.761,0,0
236222.25,335.832,-642.412,0,0
236482.575,336.865,-640.426,0,0
236742.9,337.087,-639.435,0,0
237003.225,335.997,-640.56,0,0
237263.55,336.803,-639.102,0,0
237523.875,337.505,-637.977,0,0
237784.2,337.708,-637.453,0,0
238044.525,338.621,-636.283,0,0
238304.85,339.244,-635.331,0,0
238565.175,340.15,-634.194,0,0
238825.5,339.715,-635.009,0,0
239085.825,340.817,-633.748,0,0
239346.15,341.126,-633.763,0,0
239606.475,341.441,-633.517,0,0
239866.8,342.191,-632.863,0,0
240127.125,342.395,-633.071,0,0
240387.45,342.517,-633.349,0,0
240647.775,342.651,-633.589,0,0
240908.1,343.344,-633.02,0,0
241168.425,345.036,-631.161,0,0
241428.75,345.116,-631.359,0,0
241689.075,345.254,-631.59,0,0
241949.4,344.782,-632.816,0,0
242209.725,344.836,-633.393,0,0
242470.05,344.34,-634.429,0,0
242730.375,344.909,-633.887,0,0
242990.7,344.86,-634.175,0,0
243251.025,344.247,-635.344,0,0
243511.35,344.399,-635.292,0,0
243771.675,344.512,-635.134,0,0
244032.0,344.031,-636.011,0,0
244292.325,344.45,-634.983,0,0
244552.65,342.775,-637.51,0,0
244812.975,343.383,-635.988,0,0
245073.3,343.689,-634.89,0,0
245333.625,342.679,-635.866,0,0
245593.95,341.39,-637.113,0,0
245854.275,340.262,-637.959,0,0
246114.6,339.553,-638.237,0,0
246374.925,338.575,-638.498,0,0
246635.25,337.607,-638.649,0,0
246895.575,336.61,-638.619,0,0
247155.9,335.585,-638.871,0,0
247416.225,335.26,-637.667,0,0
247676.55,334.698,-636.98,0,0
247936.875,333.371,-636.871,0,0
248197.2,332.056,-636.913,0,0
248457.525,331.47,-635.759,0,0
248717.85,331.374,-634.052,0,0
248978.175,330.172,-633.924,0,0
249238.5,329.345,-633.249,0,0
249498.825,331.376,-629.122,0,0
249759.15,330.375,-629.214,0,0
250019.475,331.13,-627.561,0,0
250279.8,331,-627.5,0,0
250540,333.853,-623.947,0,0
250800,334.21,-624.679,0,0
251061,334.71,-625.577,0,0
251321,337.851,-623.553,0,0
251581,338.579,-625.455,0,0
251842,340.393,-626.317,0,0
252102,343.729,-625.107,0,0
252362,345.337,-626.457,0,0
252623,345.972,-629.646,0,0
252883,346.625,-632.375,0,0
253143,348.325,-633.551,0,0
253404,348.932,-636.073,0,0
253664,349.028,-638.994,0,0
253924,347.848,-643.368,0,0
254185,346.798,-647.361,0,0
254445,346.314,-649.921,0,0
254705,346.989,-650.598,0,0
254966,343.435,-656.59,0,0
255226,342.207,-659.275,0,0
255486,340.72,-661.528,0,0
255747,334.192,-670.246,0,0
256007,337.069,-666.221,0,0
256267,334.486,-668.821,0,0
256528,333.428,-669.454,0,0
256788,323.625,-680.281,0,0
257048,325.075,-677.093,0,0
257309,323.244,-677.62,0,0
257569,320.739,-678.782,0,0
257829,318.728,-679.094,0,0
258090,315.743,-680.467,0,0
258350,313.086,-681.002,0,0
258610,308.745,-683.407,0,0
258871,306.308,-683.447,0,0
259131,305.247,-681.864,0,0
259391,302.361,-682.329,0,0
259651,300.155,-682.094,0,0
259912,289.118,-690.467,0,0
260172,288.418,-688.151,0,0
260432,283.437,-690.301,0,0
260693,280.393,-690.329,0,0
260953,277.86,-689.86,0,0
261213,275.437,-689.315,0,0
261474,272.375,-689.245,0,0
261734,275.064,-683.88,0,0
261994,265.263,-689.906,0,0
262255,265.344,-687.036,0,0
262515,267.405,-682.369,0,0
262775,265.9,-680.9,0,0
263036,262.324,-681.263,0,0
263296,259.832,-680.684,0,0
263556,258.305,-679.162,0,0
263817,257.591,-677.024,0,0
264077,257.428,-674.497,0,0
264337,244.958,-682.27,0,0
264598,242.509,-681.669,0,0
264858,241.167,-680.212,0,0
265118,239.284,-679.137,0,0
265379,247.014,-670.124,0,0
265639,233.518,-678.413,0,0
265899,239.701,-671.029,0,0
266160,235.325,-672.243,0,0
266420,237.82,-667.871,0,0
266680.25,226.175,-674.553,0,0
266940.575,224.594,-673.357,0,0
267200.9,223.345,-672.168,0,0
267461.225,221.749,-671.032,0,0
267721.55,219.995,-670.129,0,0
267981.875,218.532,-669.116,0,0
268242.2,217.121,-668.034,0,0
268502.525,216.705,-666.386,0,0
268762.85,213.953,-666.147,0,0
269023.175,212.388,-665.223,0,0
269283.5,211.003,-664.281,0,0
269543.825,209.571,-663.414,0,0
269804.15,208.134,-662.43,0,0
270064.475,206.578,-661.589,0,0
270324.8,204.88,-660.7,0,0
270585.125,203.054,-659.938,0,0
270845.45,202.904,-658.149,0,0
271105.775,199.67,-658.2,0,0
271366.1,198.144,-657.246,0,0
271626.425,196.694,-656.241,0,0
271886.75,194.99,-655.342,0,0
272147.075,193.381,-654.268,0,0
272407.4,191.765,-653.227,0,0
272667.725,191.63,-651.287,0,0
272928.05,188.929,-650.862,0,0
273188.375,187.701,-649.559,0,0
273448.7,185.682,-648.694,0,0
273709.025,184.224,-647.563,0,0
273969.35,182.682,-646.338,0,0
274229.675,181.598,-644.921,0,0
274490.0,179.781,-643.938,0,0
274750.325,178.28,-642.668,0,0
275010.65,176.685,-641.443,0,0
275270.975,175.325,-640.127,0,0
275531.3,173.868,-638.861,0,0
275791.625,172.592,-637.447,0,0
276051.95,171.339,-636.035,0,0
276312.275,169.926,-634.61,0,0
276572.6,168.578,-633.241,0,0
276832.925,167.349,-631.705,0,0
277093.25,166.051,-630.26,0,0
277353.575,164.803,-628.746,0,0
277613.9,163.602,-627.203,0,0
277874.225,162.436,-625.629,0,0
278134.55,161.293,-624.077,0,0
278394.875,160.286,-622.409,0,0
278655.2,159.238,-620.79,0,0
278915.525,158.29,-619.217,0,0
279175.85,157.454,-617.496,0,0
279436.175,156.516,-615.874,0,0
279696.5,155.796,-614.178,0,0
279956.825,155.109,-612.552,0,0
280217.15,154.465,-610.912,0,0
280477.475,153.76,-609.373,0,0
280737.8,153.27,-607.812,0,0
280998.125,152.842,-606.212,0,0
281258.45,152.398,-604.73,0,0
281518.775,151.939,-603.298,0,0
281779.1,151.58,-601.876,0,0
282039.425,151.218,-600.547,0,0
282299.75,150.883,-599.225,0,0
282560,150.677,-597.966,0,0
282820,150.326,-596.755,0,0
283081,149.997,-595.55,0,0
283341,149.628,-594.44,0,0
283601,149.325,-593.306,0,0
283862,148.597,-592.362,0,0
284122,147.8,-591.491,0,0
284382,147.441,-590.483,0,0
284643,147.16,-589.41,0,0
284903,146.91,-588.266,0,0
285163,146.536,-587.308,0,0
285424,146.145,-586.296,0,0
285684,145.876,-585.242,0,0
285944,145.562,-584.23,0,0
286205,145.536,-583.08,0,0
286465,144.851,-582.261,0,0
286725,144.512,-581.339,0,0
286986,144.206,-580.345,0,0
287246,143.897,-579.421,0,0
287506,143.572,-578.513,0,0
287767,143.316,-577.589,0,0
288027,143.136,-576.699,0,0
288287,142.893,-575.837,0,0
288548,142.572,-574.992,0,0
288808,142.32,-574.257,0,0
289068,141.602,-573.652,0,0
289329,141.527,-572.822,0,0
289589,141.17,-572.13,0,0
289849,140.788,-571.457,0,0
290109,140.425,-570.798,0,0
290370,139.934,-570.132,0,0
290630,139.544,-569.437,0,0
290890,139.131,-568.755,0,0
291151,138.607,-568.109,0,0
291411,138.047,-567.349,0,0
291671,137.564,-566.663,0,0
291932,137.127,-565.856,0,0
292192,136.527,-565.157,0,0
292452,136.021,-564.365,0,0
292713,135.439,-563.584,0,0
292973,134.977,-562.736,0,0
293233,134.421,-561.937,0,0
293494,133.814,-561.166,0,0
293754,133.249,-560.297,0,0
294014,132.652,-559.504,0,0
294275,132.141,-558.614,0,0
294535,131.695,-557.698,0,0
294795,130.866,-556.904,0,0
295056,130.344,-556.008,0,0
295316,129.804,-555.088,0,0
295576,129.319,-554.079,0,0
295837,128.901,-553.023,0,0
296097,128.303,-552.065,0,0
296357,127.915,-551.057,0,0
296618,127.493,-550.006,0,0
296878,127.062,-548.979,0,0
297138,126.779,-547.891,0,0
297399,126.421,-546.867,0,0
297659,126.199,-545.828,0,0
297919,125.935,-544.81,0,0
298180,125.727,-543.82,0,0
298440,125.601,-542.877,0,0
298700.2,125.591,-541.915,0,0
298960.525,125.438,-541.091,0,0
299220.85,125.372,-540.183,0,0
299481.175,125.34,-539.379,0,0
299741.5,125.3,-538.666,0,0
300001.825,125.197,-537.987,0,0
300262.15,125.069,-537.281,0,0
300522.475,124.99,-536.641,0,0
300782.8,124.846,-536.023,0,0
301043.125,124.742,-535.376,0,0
301303.45,124.538,-534.856,0,0
301563.775,124.311,-534.239,0,0
301824.1,124.029,-533.706,0,0
302084.425,124.145,-533.032,0,0
302344.75,124.42,-532.17,0,0
302605.075,124.156,-531.66,0,0
302865.4,123.241,-531.377,0,0
303125.725,122.96,-530.847,0,0
303386.05,121.764,-530.694,0,0
303646.375,121.487,-530.221,0,0
303906.7,121.069,-529.544,0,0
304167.025,120.629,-529.022,0,0
304427.35,120.261,-528.403,0,0
304687.675,119.881,-527.792,0,0
304948.0,119.465,-527.264,0,0
305208.325,119.086,-526.625,0,0
305468.65,118.76,-525.962,0,0
305728.975,118.417,-525.316,0,0
305989.3,117.975,-524.592,0,0
306249.625,117.621,-524.037,0,0
306509.95,117.213,-523.33,0,0
306770.275,116.643,-522.672,0,0
307030.6,116.329,-522.112,0,0
307290.925,115.851,-521.387,0,0
307551.25,115.54,-520.67,0,0
307811.575,115.183,-519.956,0,0
308071.9,114.634,-519.342,0,0
308332.225,114.297,-518.564,0,0
308592.55,113.676,-517.966,0,0
308852.875,113.331,-517.278,0,0
309113.2,112.922,-516.471,0,0
309373.525,112.741,-515.731,0,0
309633.85,112.485,-514.966,0,0
309894.175,112.469,-514.21,0,0
310154.5,111.7,-513.632,0,0
310414.825,110.933,-513.114,0,0
310675.15,110.407,-512.396,0,0
310935.475,110.45,-511.554,0,0
311195.8,114.464,-508.902,0,0
311456.125,114.414,-508.041,0,0
311716.45,114.236,-507.268,0,0
311976.775,113.78,-506.582,0,0
312237.1,113.278,-505.961,0,0
312497.425,113.451,-505.031,0,0
312757.75,113.036,-504.324,0,0
313018.075,112.701,-503.592,0,0
313278.4,112.541,-502.85,0,0
313538.725,112.444,-502.058,0,0
313799.05,112.553,-501.111,0,0
314059.375,112.347,-500.298,0,0
314319.7,112.2,-499.503,0,0
314580,113.725,-498.021,0,0
314840,114.934,-496.559,0,0
315101,115.201,-495.575,0,0
315361,114.619,-494.962,0,0
315621,114.963,-493.968,0,0
315882,114.38,-493.458,0,0
316142,116.803,-491.421,0,0
316402,116.327,-490.765,0,0
316663,116.171,-490.035,0,0
316923,110.927,-491.669,0,0
317183,111.519,-490.562,0,0
317444,101.986,-494.024,0,0
317704,101.912,-493.245,0,0
317964,112.973,-487.533,0,0
318225,113.274,-486.654,0,0
318485,112.731,-486.062,0,0
318745,112.299,-485.564,0,0
319006,111.853,-484.967,0,0
319266,111.948,-484.024,0,0
319526,111.438,-483.588,0,0
319787,110.759,-483.136,0,0
320047,110.581,-482.509,0,0
320307,110.007,-482.008,0,0
320567,110.647,-481.023,0,0
320828,109.517,-480.84,0,0
321088,110.964,-479.35,0,0
321348,111.127,-478.534,0,0
321609,111.646,-477.633,0,0
321869,110.158,-477.64,0,0
322129,110.719,-476.633,0,0
322390,111.913,-475.452,0,0
322650,111.375,-474.99,0,0
322910,111.584,-474.174,0,0
323171,111.606,-473.471,0,0
323431,111.978,-472.611,0,0
323691,112.487,-471.633,0,0
323952,112.481,-470.966,0,0
324212,112.277,-470.365,0,0
324472,111.735,-469.999,0,0
324733,111.564,-469.314,0,0
324993,110.848,-469.01,0,0
325253,110.586,-468.341,0,0
325514,110.826,-467.507,0,0
325774,112.12,-466.211,0,0
326034,111.555,-465.746,0,0
326295,110.791,-465.339,0,0
326555,110.963,-464.514,0,0
326815,108.906,-464.755,0,0
327076,109.056,-463.983,0,0
327336,108.503,-463.452,0,0
327596,108.891,-462.518,0,0
327857,108.124,-462.11,0,0
328117,107.963,-461.487,0,0
328377,107.914,-460.693,0,0
328638,106.416,-460.639,0,0
328898,105.685,-460.231,0,0
329158,105.353,-459.564,0,0
329419,105.286,-458.889,0,0
329679,105.147,-458.16,0,0
329939,104.693,-457.577,0,0
330200,104.633,-456.888,0,0
330460,103.176,-456.856,0,0
330720.15,104.794,-455.339,0,0
330980.475,106.244,-453.913,0,0
331240.8,100.923,-455.564,0,0
331501.125,106.311,-452.317,0,0
331761.45,105.684,-451.938,0,0
332021.775,106.427,-450.808,0,0
332282.1,88.0246,-457.957,0,0
332542.425,87.7687,-457.281,0,0
332802.75,87.6299,-456.651,0,0
333063.075,87.4155,-456.048,0,0
333323.4,87.2016,-455.406,0,0
333583.725,87.0192,-454.782,0,0
333844.05,86.8721,-454.115,0,0
334104.375,86.7104,-453.525,0,0
334364.7,86.5122,-452.881,0,0
334625.025,86.296,-452.209,0,0
334885.35,86.1696,-451.586,0,0
335145.675,85.9597,-450.986,0,0
335406.0,85.8039,-450.377,0,0
335666.325,85.6784,-449.747,0,0
335926.65,85.4333,-449.139,0,0
336186.975,85.3108,-448.474,0,0
336447.3,85.1191,-447.86,0,0
336707.625,84.9076,-447.277,0,0
336967.95,84.7914,-446.663,0,0
337228.275,84.6651,-446.057,0,0
337488.6,84.4988,-445.453,0,0
337748.925,84.3613,-444.816,0,0
338009.25,84.1702,-444.213,0,0
338269.575,84.0201,-443.629,0,0
338529.9,83.8813,-443.007,0,0
338790.225,96.2287,-437.229,0,0
339050.55,97.2947,-436.089,0,0
339310.875,98.4984,-434.934,0,0
339571.2,96.8497,-435.107,0,0
339831.525,96.8074,-434.394,0,0
340091.85,96.4468,-433.819,0,0
340352.175,95.9459,-433.384,0,0
340612.5,94.6977,-433.28,0,0
340872.825,94.6462,-432.582,0,0
341133.15,94.4131,-432.083,0,0
341393.475,95.3831,-431.036,0,0
341653.8,94.2461,-430.84,0,0
341914.125,94.117,-430.226,0,0
342174.45,94.2099,-429.588,0,0
342434.775,95.0619,-428.59,0,0
342695.1,94.068,-428.374,0,0
342955.425,94.158,-427.665,0,0
343215.75,93.7453,-427.228,0,0
343476.075,93.62,-426.646,0,0
343736.4,93.8157,-425.868,0,0
343996.725,93.0709,-425.594,0,0
344257.05,92.5476,-425.155,0,0
344517.375,93.5848,-424.126,0,0
344777.7,93.9095,-423.346,0,0
345038.025,93.6274,-422.834,0,0
345298.35,93.2123,-422.402,0,0
345558.675,92.6303,-422.055,0,0
345819.0,92.7918,-421.378,0,0
346079.325,92.3608,-420.949,0,0
346339.65,92.3881,-420.333,0,0
346599.975,92.3753,-419.717,0,0
346860,88.403,-420.815,0,0
347121,87.7429,-420.479,0,0
347381,88.0347,-419.755,0,0
347641,90.1767,-418.22,0,0
347902,90.2765,-417.58,0,0
348162,89.8384,-417.157,0,0
348422,89.8705,-416.504,0,0
348683,89.4116,-416.099,0,0
348943,89.4823,-415.454,0,0
349203,88.6323,-415.206,0,0
349464,88.9573,-414.469,0,0
349724,89.4111,-413.626,0,0
349984,89.9168,-412.816,0,0
350245,89.3004,-412.463,0,0
350505,88.4058,-412.203,0,0
350765,86.0023,-412.618,0,0
351025,86.3787,-411.84,0,0
351286,86.3415,-411.248,0,0
351546,86.5668,-410.53,0,0
351806,86.4098,-409.998,0,0
352067,86.2693,-409.446,0,0
352327,85.8702,-409.004,0,0
352587,86.2138,-408.232,0,0
352848,83.5929,-408.664,0,0
353108,83.2722,-408.198,0,0
353368,85.8081,-406.523,0,0
353629,85.3754,-406.106,0,0
353889,83.6992,-406.178,0,0
354149,85.1345,-404.99,0,0
354410,78.9088,-406.821,0,0
354670,82.7058,-404.723,0,0
354930,74.8172,-407.168,0,0
355191,83.8882,-402.995,0,0
355451,83.7745,-402.434,0,0
355711,82.646,-402.294,0,0
355972,82.2194,-401.821,0,0
356232,83.7407,-400.546,0,0
356492,83.3749,-400.115,0,0
356753,81.546,-400.255,0,0
357013,84.4676,-398.407,0,0
357273,83.5549,-398.187,0,0
357534,83.4677,-397.572,0,0
357794,83.3869,-397,0,0
358054,82.882,-396.613,0,0
358315,83.066,-395.918,0,0
358575,82.187,-395.655,0,0
358835,82.2174,-395.021,0,0
359096,81.97,-394.494,0,0
359356,81.7362,-393.96,0,0
359616,81.338,-393.492,0,0
359877,80.7635,-393.082,0,0
360137,80.9467,-392.462,0,0
360397,80.9397,-391.781,0,0
360658,80.8198,-391.191,0,0
360918,80.4713,-390.661,0,0
361178,79.8848,-390.286,0,0
361438,79.6008,-389.824,0,0
361699,79.8782,-389.099,0,0
361959,79.686,-388.535,0,0
362219,79.3463,-388.039,0,0
362480,79.8312,-387.245,0,0
362740.1,78.8522,-387.025,0,0
363000.425,79.4334,-386.134,0,0
363260.75,78.453,-385.916,0,0
363521.075,78.9725,-385.1,0,0
363781.4,79.5714,-384.223,0,0
364041.725,79.3772,-383.683,0,0
364302.05,79.7544,-382.891,0,0
364562.375,79.5464,-382.364,0,0
364822.7,79.8153,-381.67,0,0
365083.025,80.0197,-380.929,0,0
365343.35,80.3726,-380.17,0,0
365603.675,80.1049,-379.665,0,0
365864.0,80.5349,-378.826,0,0
366124.325,80.5774,-378.218,0,0
366384.65,80.7999,-377.52,0,0
366644.975,82.2576,-376.245,0,0
366905.3,82.46,-375.56,0,0
367165.625,82.919,-374.739,0,0
367425.95,82.923,-374.106,0,0
367686.275,83.0389,-373.531,0,0
367946.6,84.276,-372.378,0,0
368206.925,84.6749,-371.628,0,0
368467.25,84.5631,-371.036,0,0
368727.575,85.4104,-370.056,0,0
368987.9,84.9047,-369.743,0,0
369248.225,85.6326,-368.818,0,0
369508.55,85.4085,-368.309,0,0
369768.875,85.4211,-367.751,0,0
370029.2,86.5833,-366.605,0,0
370289.525,86.6378,-366.042,0,0
370549.85,86.1581,-365.709,0,0
370810.175,86.1504,-365.171,0,0
371070.5,85.8017,-364.77,0,0
371330.825,85.5951,-364.324,0,0
371591.15,86.3466,-363.453,0,0
371851.475,86.9538,-362.646,0,0
372111.8,89.9266,-360.617,0,0
372372.125,105.786,-351.234,0,0
372632.45,70.8319,-367.962,0,0
372892.775,98.8575,-354.33,0,0
373153.1,86.1703,-360.065,0,0
373413.425,104.572,-349.916,0,0
373673.75,103.537,-350.096,0,0
373934.075,102.697,-350.12,0,0
374194.4,102.265,-349.915,0,0
374454.725,101.713,-349.794,0,0
374715.05,101.225,-349.673,0,0
374975.375,101.595,-349.027,0,0
375235.7,101.222,-348.815,0,0
375496.025,101.826,-348.027,0,0
375756.35,102.824,-347.01,0,0
376016.675,102.478,-346.79,0,0
376277.0,102.264,-346.513,0,0
376537.325,101.85,-346.333,0,0
376797.65,101.493,-346.122,0,0
377057.975,101.348,-345.806,0,0
377318.3,101.199,-345.411,0,0
377578.625,100.976,-345.117,0,0
377838.95,100.108,-345.183,0,0
378099.275,99.215,-345.212,0,0
378359.6,98.9477,-344.896,0,0
378619.925,98.4794,-344.708,0,0
378880,95.4521,-345.934,0,0
379141,94.0667,-346.162,0,0
379401,93.3721,-346.06,0,0
379661,91.8964,-346.306,0,0
379922,89.8278,-346.814,0,0
380182,82.5415,-349.908,0,0
380442,78.8345,-350.985,0,0
380703,77.1526,-351.2,0,0
380963,76.3724,-350.975,0,0
381223,76.6325,-350.311,0,0
381483,76.2775,-349.944,0,0
381744,75.7855,-349.617,0,0
382004,75.5539,-349.232,0,0
382264,75.6731,-348.639,0,0
382525,75.5751,-348.21,0,0
382785,75.5497,-347.77,0,0
383045,75.1917,-347.439,0,0
383306,75.0588,-347.016,0,0
383566,74.8888,-346.58,0,0
383826,74.6528,-346.133,0,0
384087,74.3121,-345.785,0,0
384347,74.2931,-345.282,0,0
384607,74.2483,-344.785,0,0
384868,73.859,-344.422,0,0
385128,73.7504,-343.901,0,0
385388,73.7696,-343.347,0,0
385649,73.4026,-342.976,0,0
385909,73.9786,-342.164,0,0
386169,73.5867,-341.74,0,0
386430,73.6477,-341.157,0,0
386690,73.4735,-340.695,0,0
386950,73.9901,-339.887,0,0
387211,73.4945,-339.533,0,0
387471,73.7507,-338.825,0,0
387731,73.7269,-338.275,0,0
387992,73.2102,-337.905,0,0
388252,73.2753,-337.289,0,0
388512,73.067,-336.803,0,0
388773,73.4065,-336.053,0,0
389033,73.1783,-335.57,0,0
389293,73.0078,-335.074,0,0
389554,73.1472,-334.457,0,0
389814,73.1966,-333.833,0,0
390074,73.2106,-333.245,0,0
390335,72.9649,-332.749,0,0
390595,73.0251,-332.153,0,0
390855,73.0943,-331.566,0,0
391116,72.6445,-331.179,0,0
391376,72.8881,-330.487,0,0
391636,72.6861,-330.012,0,0
391896,72.3805,-329.57,0,0
392157,72.3035,-329.005,0,0
392417,72.1982,-328.507,0,0
392677,72.3348,-327.859,0,0
392938,72.0447,-327.422,0,0
393198,72.0686,-326.834,0,0
393458,72.1296,-326.212,0,0
393719,72.0919,-325.692,0,0
393979,72.1154,-325.115,0,0
394239,71.6971,-324.749,0,0
394500,71.666,-324.171,0,0
394760.05,71.4487,-323.726,0,0
395020.375,71.5431,-323.099,0,0
395280.7,71.659,-322.472,0,0
395541.025,71.4767,-321.978,0,0
395801.35,71.5335,-321.414,0,0
396061.675,71.5251,-320.85,0,0
396322.0,71.6596,-320.219,0,0
396582.325,71.6918,-319.576,0,0
396842.65,71.9731,-318.946,0,0
397102.975,72.0218,-318.343,0,0
397363.3,72.2123,-317.702,0,0
397623.625,72.2898,-317.096,0,0
397883.95,72.3715,-316.504,0,0
398144.275,72.3738,-315.968,0,0
398404.6,72.6368,-315.254,0,0
398664.925,72.5542,-314.746,0,0
398925.25,72.5334,-314.195,0,0
399185.575,72.6399,-313.613,0,0
399445.9,72.7072,-313.013,0,0
399706.225,72.7932,-312.458,0,0
399966.55,73.0521,-311.789,0,0
400006.6,73.0766,-311.692,0,0