File: Accelerated corrosion test data/2025-10-09_06-00-03/sample_1.csv
Frequency (Hz),Impedance (ohms),Phase (Radians),Temperature (C),Humidity (%)
10000.0,242.187,-12188.8,0,0
10260.325,240.846,-11874.9,0,0
10520.65,231.399,-11595.9,0,0
10780.975,227.375,-11312.5,0,0
11041.3,221.224,-11052.5,0,0
11301.625,215.695,-10796.3,0,0
11561.95,211.954,-10552.7,0,0
11822.275,209.324,-10314.2,0,0
12082.6,226.679,-10083.9,0,0
12342.925,212.431,-9909.56,0,0
12603.25,196.286,-9697.61,0,0
12863.575,191.937,-9496.05,0,0
13123.9,201.375,-9304.04,0,0
13384.225,186.376,-9133.36,0,0
13644.55,182.492,-8952.81,0,0
13904.875,183.398,-8775.19,0,0
14165.2,191.381,-8639.22,0,0
14425.525,213.121,-8470.14,0,0
14685.8,202.946,-8305.78,0,0
14946.175,180.129,-8207.03,0,0
15206.5,183.368,-8044.31,0,0
15466.825,175.074,-7927.06,0,0
15727.15,173.549,-7798.82,0,0
15987.5,161.267,-7668.18,0,0
16247.8,158.413,-7542.24,0,0
16508.125,156.808,-7419.59,0,0
16768.45,160.991,-7302.69,0,0
17028.775,164.46,-7195.67,0,0
17289.1,154.587,-7092.15,0,0
17549.425,154.611,-6988.66,0,0
17809.75,147.173,-6884.76,0,0
18070.075,148.309,-6785.21,0,0
18330.4,142.806,-6690.47,0,0
18590.725,138.494,-6595.51,0,0
18851.05,139.47,-6497.26,0,0
19111.375,136.325,-6416.53,0,0
19371.7,133.68,-6324.56,0,0
19632.025,132.976,-6236.08,0,0
19892.35,136.23,-6150.92,0,0
20152.675,136.694,-6062.77,0,0
20413.0,156.669,-5974.99,0,0
20673.3,168.645,-5934.13,0,0
20933.65,151.853,-5863.91,0,0
21193.975,159.808,-5802.58,0,0
21454.3,144.158,-5727.06,0,0
21714.625,139.074,-5660.41,0,0
21974.9,138.562,-5575.96,0,0
22235.275,174.182,-5532.6,0,0
22495.6,142.512,-5491.35,0,0
22755.925,127.932,-5422.15,0,0
23016.25,123.487,-5355.46,0,0
23276.6,119.848,-5294.27,0,0
23536.9,116.518,-5233.57,0,0
23797.225,113.588,-5172.01,0,0
24057.55,116.119,-5111.89,0,0
24317.875,112.827,-5063.28,0,0
24578.2,111.803,-5003.92,0,0
24838.525,111.181,-4953.56,0,0
25098.85,111.608,-4899.77,0,0
25359.175,106.739,-4851.63,0,0
25619.5,105.775,-4799.41,0,0
25879.8,104.291,-4748.74,0,0
26140.1,103.987,-4699.05,0,0
26400.5,103.749,-4649.38,0,0
26660.8,106.084,-4598.88,0,0
26921.1,114.753,-4551.84,0,0
27181.4,121.053,-4518.05,0,0
27441.8,111.933,-4484.42,0,0
27702.1,104.138,-4435.05,0,0
27962.4,112.122,-4386.11,0,0
28222.7,111.479,-4347.34,0,0
28483.1,121.561,-4304.56,0,0
28743.4,130.867,-4285.96,0,0
29003.7,117.387,-4249.87,0,0
29264,119.066,-4214.93,0,0
29524.4,107.551,-4181.07,0,0
29784.7,106.072,-4139.62,0,0
30045,101.907,-4107.51,0,0
30305.3,100.451,-4068.45,0,0
30565.7,97.5423,-4029.99,0,0
30826,101.459,-3995,0,0
31086.3,103.422,-3966.71,0,0
31346.6,100.122,-3937.38,0,0
31607,94.4051,-3900.16,0,0
31867.3,97.3105,-3866.92,0,0
32127.6,98.9913,-3836.25,0,0
32387.9,98.6245,-3810.58,0,0
32648.3,94.5627,-3778.57,0,0
32908.6,97.1226,-3750.73,0,0
33168.9,91.9014,-3722.53,0,0
33429.2,88.9904,-3694.22,0,0
33689.6,86.7006,-3663.89,0,0
33949.9,86.2044,-3632.98,0,0
34210.2,86.8031,-3607.45,0,0
34470.5,84.1392,-3579.9,0,0
34730.9,82.1277,-3551.86,0,0
34991.2,81.7131,-3524.64,0,0
35251.5,80.8847,-3498.15,0,0
35511.8,80.1797,-3471.74,0,0
35772.2,79.7094,-3446.27,0,0
36032.5,78.2715,-3420.87,0,0
36292.8,77.8216,-3395.22,0,0
36553.1,77.0271,-3371.01,0,0
36813.5,76.5814,-3346.14,0,0
37073.8,76.5063,-3322.31,0,0
37334.1,75.749,-3298.87,0,0
37594.4,75.6596,-3275.59,0,0
37854.8,74.6125,-3252.63,0,0
38115.1,74.1963,-3229.87,0,0
38375.4,73.4646,-3207.04,0,0
38635.7,73.4419,-3185.42,0,0
38896.1,72.8789,-3163.1,0,0
39156.4,72.8469,-3141.43,0,0
39416.7,72.8395,-3121.09,0,0
39677,71.8851,-3100.07,0,0
39937.4,71.5921,-3078.77,0,0
40197.7,71.4996,-3058.38,0,0
40458,71.2664,-3038.04,0,0
40718.3,71.3243,-3017.49,0,0
40978.7,72.7595,-2998.11,0,0
41239,72.5155,-2979.96,0,0
41499.3,72.1824,-2961.64,0,0
41759.6,71.4874,-2943.2,0,0
42020,70.7303,-2923.99,0,0
42280.275,70.6384,-2905.68,0,0
42540.6,71.0416,-2887.86,0,0
42800.925,70.4522,-2870.94,0,0
43061.25,69.8087,-2852.79,0,0
43321.575,69.5085,-2835.74,0,0
43581.9,68.9941,-2818.5,0,0
43842.225,68.4044,-2801.01,0,0
44102.55,68.6,-2783.44,0,0
44362.875,69.3983,-2766.54,0,0
44623.2,69.6724,-2751.54,0,0
44883.525,68.5734,-2735.44,0,0
45143.85,68.7513,-2719.76,0,0
45404.175,68.7448,-2704.46,0,0
45664.5,67.95,-2689.14,0,0
45924.825,67.3488,-2673.95,0,0
46185.15,66.8388,-2658.74,0,0
46445.475,65.8246,-2643.3,0,0
46705.8,65.6221,-2628.06,0,0
46966.125,65.3138,-2613.24,0,0
47226.45,64.9146,-2598.43,0,0
47486.775,64.8694,-2584.12,0,0
47747.1,64.3462,-2569.69,0,0
48007.425,63.8188,-2555.46,0,0
48267.75,63.9061,-2541.45,0,0
48528.075,63.0592,-2528.1,0,0
48788.4,62.1432,-2513.83,0,0
49048.725,61.871,-2499.74,0,0
49309.05,61.9823,-2485.78,0,0
49569.375,61.8092,-2472.86,0,0
49829.7,61.2855,-2459.79,0,0
50090.025,60.7325,-2446.62,0,0
50350.35,60.0888,-2433.26,0,0
50610.675,59.9945,-2420.19,0,0
50871.0,59.7139,-2407.02,0,0
51131.325,59.8309,-2394.43,0,0
51391.65,59.6165,-2382.16,0,0
51651.975,59.1044,-2369.7,0,0
51912.3,58.8168,-2357.24,0,0
52172.625,58.72,-2344.98,0,0
52432.95,58.4537,-2332.79,0,0
52693.275,58.2183,-2320.83,0,0
52953.6,58.1495,-2308.78,0,0
53213.925,58.1488,-2297.15,0,0
53474.25,57.9208,-2285.71,0,0
53734.575,57.7946,-2274.18,0,0
53994.9,57.6106,-2263.1,0,0
54255.225,57.1198,-2252.08,0,0
54515.55,56.7906,-2240.6,0,0
54775.875,56.4968,-2229.4,0,0
55036.2,56.4038,-2218.17,0,0
55296.525,56.4098,-2207.27,0,0
55556.85,56.325,-2196.63,0,0
55817.175,55.8359,-2186.15,0,0
56077.5,55.4334,-2175.24,0,0
56337.825,55.3958,-2164.55,0,0
56598.15,55.4587,-2153.95,0,0
56858.475,55.1998,-2143.63,0,0
57118.8,55.0656,-2133.36,0,0
57379.125,54.9813,-2123.05,0,0
57639.45,55.0552,-2112.88,0,0
57899.775,54.996,-2102.95,0,0
58160.1,54.9899,-2093.15,0,0
58420.4,54.915,-2083.52,0,0
58680.7,54.6608,-2073.71,0,0
58941.1,54.6039,-2063.86,0,0
59201.4,54.8999,-2054.29,0,0
59461.7,54.7968,-2045.18,0,0
59722,54.5009,-2035.77,0,0
59982.4,54.6358,-2026.35,0,0
60242.7,54.5045,-2017.1,0,0
60503,54.6632,-2007.9,0,0
60763.3,55.0031,-1999.23,0,0
61023.7,54.4094,-1990.71,0,0
61284,54.0332,-1981.74,0,0
61544.3,53.7063,-1972.67,0,0
61804.6,53.8796,-1963.88,0,0
62065,53.5439,-1955.42,0,0
62325.3,53.079,-1946.61,0,0
62585.6,52.9482,-1937.73,0,0
62845.9,52.8357,-1928.93,0,0
63106.3,52.9302,-1920.53,0,0
63366.6,52.7576,-1911.93,0,0
63626.9,52.8804,-1903.41,0,0
63887.2,52.9347,-1894.86,0,0
64147.6,53.0392,-1886.55,0,0
64407.9,53.1603,-1878.18,0,0
64668.2,53.3569,-1869.81,0,0
64928.5,53.7676,-1861.61,0,0
65188.9,54.314,-1853.84,0,0
65449.2,55.0946,-1846.19,0,0
65709.5,55.5801,-1839.04,0,0
65969.8,55.5204,-1831.98,0,0
66230.2,55.4368,-1824.74,0,0
66490.5,55.1325,-1817.33,0,0
66750.8,55.1262,-1810.31,0,0
67011.1,54.6303,-1803.42,0,0
67271.5,54.0058,-1795.41,0,0
67531.8,54.5912,-1787.81,0,0
67792.1,54.8489,-1781.12,0,0
68052.4,54.4812,-1774.57,0,0
68312.8,53.9185,-1767.39,0,0
68573.1,53.6691,-1760.13,0,0
68833.4,53.8887,-1752.99,0,0
69093.7,53.6856,-1746.47,0,0
69354.1,53.3827,-1739.51,0,0
69614.4,53.1495,-1732.87,0,0
69874.7,52.5325,-1726.13,0,0
70135,52.0324,-1719.27,0,0
70395.4,51.4866,-1712.28,0,0
70655.7,51.2304,-1705.32,0,0
70916,50.9247,-1698.56,0,0
71176.3,50.7641,-1691.61,0,0
71436.7,50.6048,-1685.02,0,0
71697,50.133,-1678.5,0,0
71957.3,49.5628,-1671.7,0,0
72217.6,49.0744,-1664.92,0,0
72478,48.8833,-1657.92,0,0
72738.3,48.6908,-1651.1,0,0
72998.6,48.7411,-1644.25,0,0
73258.9,48.7439,-1637.66,0,0
73519.3,48.5463,-1631.22,0,0
73779.6,48.4579,-1624.5,0,0
74039.9,48.5132,-1617.98,0,0
74300.225,48.5996,-1611.43,0,0
74560.55,48.5871,-1605.08,0,0
74820.875,48.7186,-1598.6,0,0
75081.2,48.8738,-1592.38,0,0
75341.525,48.8425,-1586.18,0,0
75601.85,48.845,-1579.8,0,0
75862.175,49.0103,-1573.5,0,0
76122.5,49.3294,-1567.36,0,0
76382.825,49.736,-1561.32,0,0
76643.15,49.8534,-1555.52,0,0
76903.475,49.9731,-1549.55,0,0
77163.8,50.2129,-1543.51,0,0
77424.125,50.4228,-1537.87,0,0
77684.45,50.488,-1532.08,0,0
77944.775,50.6553,-1526.11,0,0
78205.1,51.1112,-1520.2,0,0
78465.425,51.7409,-1514.65,0,0
78725.75,52.0975,-1509.64,0,0
78986.075,52.2164,-1504.4,0,0
79246.4,52.155,-1499.19,0,0
79506.725,52.1161,-1493.95,0,0
79767.05,51.8491,-1488.73,0,0
80027.375,51.7022,-1483.38,0,0
80287.7,51.3336,-1478.14,0,0
80548.025,51.0157,-1472.52,0,0
80808.35,50.8376,-1466.98,0,0
81068.675,50.8152,-1461.25,0,0
81329.0,50.9193,-1455.64,0,0
81589.325,51.0434,-1450.22,0,0
81849.65,51.2516,-1444.79,0,0
82109.975,51.3546,-1439.42,0,0
82370.3,51.4327,-1434.18,0,0
82630.625,51.5161,-1428.86,0,0
82890.95,51.5109,-1423.42,0,0
83151.275,51.8202,-1418.03,0,0
83411.6,52.1442,-1412.77,0,0
83671.925,52.3633,-1407.56,0,0
83932.25,52.6634,-1402.39,0,0
84192.575,53.0837,-1397.2,0,0
84452.9,53.4189,-1392.14,0,0
84713.225,53.7175,-1387.01,0,0
84973.55,54.4017,-1382.14,0,0
85233.875,54.9764,-1377.27,0,0
85494.2,55.3586,-1372.8,0,0
85754.525,55.5157,-1368.18,0,0
86014.85,55.6733,-1363.47,0,0
86275.175,55.8743,-1358.8,0,0
86535.5,56.1983,-1354.08,0,0
86795.825,56.3232,-1349.5,0,0
87056.15,56.5011,-1344.74,0,0
87316.475,56.6961,-1340.22,0,0
87576.8,56.8714,-1335.67,0,0
87837.125,56.6425,-1331.25,0,0
88097.45,56.5918,-1326.33,0,0
88357.775,56.6359,-1321.25,0,0
88618.1,57.044,-1316.18,0,0
88878.425,57.5041,-1311.51,0,0
89138.75,57.8843,-1306.67,0,0
89399.075,58.257,-1301.88,0,0
89659.4,58.9923,-1297.04,0,0
89919.725,59.6074,-1292.14,0,0
90180,60.4314,-1287.54,0,0
90440.4,61.1659,-1283.11,0,0
90700.7,61.875,-1278.22,0,0
90961,62.8726,-1273.68,0,0
91221.3,64.1951,-1269.26,0,0
91481.7,65.5494,-1265.02,0,0
91742,66.9782,-1261.05,0,0
92002.3,68.0743,-1257.36,0,0
92262.6,69.2275,-1253.64,0,0
92523,70.5195,-1249.72,0,0
92783.3,72.2968,-1246.23,0,0
93043.6,73.8741,-1243.4,0,0
93303.9,75.2167,-1240.42,0,0
93564.3,77.0812,-1237.91,0,0
93824.6,79.0663,-1236.98,0,0
94084.9,78.9333,-1237.35,0,0
94345.2,76.4282,-1236.58,0,0
94605.6,73.7933,-1233.22,0,0
94865.9,72.9146,-1229.78,0,0
95126.2,71.3253,-1226.7,0,0
95386.5,70.0509,-1223.01,0,0
95646.9,68.4515,-1219.26,0,0
95907.2,67.1779,-1214.81,0,0
96167.5,66.5915,-1209.92,0,0
96427.8,66.7428,-1205.83,0,0
96688.2,66.352,-1202.41,0,0
96948.5,65.4302,-1198.5,0,0
97208.8,64.8155,-1194.23,0,0
97469.1,64.4699,-1189.86,0,0
97729.5,64.3846,-1185.54,0,0
97989.8,64.5002,-1181.44,0,0
98250.1,64.6689,-1177.5,0,0
98510.4,64.5793,-1173.89,0,0
98770.8,64.1701,-1170.17,0,0
99031.1,63.7882,-1166.11,0,0
99291.4,63.7267,-1162,0,0
99551.7,63.5168,-1157.99,0,0
99812.1,63.394,-1153.79,0,0
100072,63.6087,-1149.67,0,0
100333,63.6512,-1145.85,0,0
100593,63.6659,-1141.82,0,0
100853,63.7655,-1137.93,0,0
101114,63.8302,-1134.01,0,0
101374,63.7609,-1130.17,0,0
101634,63.5754,-1126.15,0,0
101895,63.245,-1121.95,0,0
102155,63.0947,-1117.36,0,0
102415,63.3071,-1112.39,0,0
102676,64.2619,-1107.5,0,0
102936,65.4402,-1103.27,0,0
103196,66.4739,-1099.23,0,0
103457,67.445,-1095.2,0,0
103717,68.3882,-1091.15,0,0
103977,69.5772,-1086.98,0,0
104238,71.2416,-1083.02,0,0
104498,73.0059,-1079.77,0,0
104758,74.2193,-1076.8,0,0
105019,75.1318,-1073.7,0,0
105279,75.9883,-1070.28,0,0
105539,77.239,-1066.81,0,0
105800,78.5862,-1063.5,0,0
106060,80.2034,-1060.37,0,0
106320.175,81.6008,-1057.63,0,0
106580.5,82.9523,-1054.92,0,0
106840.825,84.1386,-1052.32,0,0
107101.15,85.4151,-1049.56,0,0
107361.475,86.9586,-1047.2,0,0
107621.8,88.1025,-1045.28,0,0
107882.125,88.7757,-1043.11,0,0
108142.45,89.5754,-1040.75,0,0
108402.775,90.5197,-1038.37,0,0
108663.1,91.5748,-1036.17,0,0
108923.425,92.5806,-1034.27,0,0
109183.75,93.4836,-1032.42,0,0
109444.075,94.1154,-1030.94,0,0
109704.4,94.4048,-1029.44,0,0
109964.725,94.3511,-1027.97,0,0
110225.05,94.0016,-1026.1,0,0
110485.375,93.7311,-1023.7,0,0
110745.7,93.6307,-1021.3,0,0
111006.025,93.6827,-1018.89,0,0
111266.35,93.8399,-1016.11,0,0
111526.675,94.5168,-1013.86,0,0
111787.0,95.0662,-1011.74,0,0
112047.325,95.3183,-1009.76,0,0
112307.65,95.6428,-1007.69,0,0
112567.975,96.0423,-1005.73,0,0
112828.3,96.3055,-1003.93,0,0
113088.625,96.5998,-1002.22,0,0
113348.95,96.7355,-1000.72,0,0
113609.275,96.6688,-999.26,0,0
113869.6,96.1997,-997.818,0,0
114129.925,95.5984,-996.255,0,0
114390.25,94.8334,-994.481,0,0
114650.575,94.257,-992.551,0,0
114910.9,93.6087,-990.75,0,0
115171.225,92.8036,-988.739,0,0
115431.55,91.8692,-986.8,0,0
115691.875,90.7952,-984.727,0,0
115952.2,89.5714,-982.304,0,0
116212.525,88.6151,-979.736,0,0
116472.85,87.7001,-977.094,0,0
116733.175,86.9116,-974.445,0,0
116993.5,86.0415,-971.829,0,0
117253.825,85.0233,-969.023,0,0
117514.15,84.1615,-965.994,0,0
117774.475,83.4613,-962.911,0,0
118034.8,82.9261,-959.738,0,0
118295.125,82.5377,-956.681,0,0
118555.45,82.0624,-953.632,0,0
118815.775,81.6496,-950.463,0,0
119076.1,81.4503,-947.246,0,0
119336.425,81.4018,-944.104,0,0
119596.75,81.4338,-941.106,0,0
119857.075,81.5433,-938.144,0,0
120117.4,81.7457,-935.332,0,0
120377.725,81.9411,-932.682,0,0
120638.05,82.063,-930.152,0,0
120898.375,81.925,-927.77,0,0
121158.7,81.711,-925.262,0,0
121419.025,81.5184,-922.685,0,0
121679.35,81.2579,-920.148,0,0
121939.675,80.8449,-917.514,0,0
122200.0,80.4843,-914.724,0,0
122460,80.1524,-911.939,0,0
122721,79.8531,-909.115,0,0
122981,79.4768,-906.22,0,0
123241,79.3033,-903.173,0,0
123502,79.1734,-900.164,0,0
123762,79.0569,-897.156,0,0
124022,78.9974,-894.164,0,0
124283,79.0159,-891.129,0,0
124543,79.1288,-888.078,0,0
124803,79.2596,-885.199,0,0
125064,79.4057,-882.29,0,0
125324,79.5049,-879.332,0,0
125584,79.6813,-876.393,0,0
125845,79.9154,-873.489,0,0
126105,80.0911,-870.593,0,0
126365,80.3587,-867.709,0,0
126626,80.6637,-864.839,0,0
126886,80.9072,-861.997,0,0
127146,81.2591,-859.203,0,0
127406,81.3965,-856.276,0,0
127667,81.7751,-853.475,0,0
127927,82.0462,-850.51,0,0
128187,82.554,-847.592,0,0
128448,83.0128,-844.81,0,0
128708,83.5468,-842.037,0,0
128968,83.9119,-839.28,0,0
129229,84.3489,-836.343,0,0
129489,84.889,-833.367,0,0
129749,85.6145,-830.356,0,0
130010,86.5133,-827.425,0,0
130270,87.5267,-824.663,0,0
130530,88.5859,-822.121,0,0
130791,89.6215,-819.603,0,0
131051,90.6057,-817.297,0,0
131311,91.6164,-815.07,0,0
131572,92.6058,-812.984,0,0
131832,93.3811,-810.996,0,0
132092,94.0756,-808.933,0,0
132353,94.6632,-806.955,0,0
132613,95.2179,-804.849,0,0
132873,95.7676,-802.603,0,0
133134,96.4484,-800.448,0,0
133394,97.1011,-798.388,0,0
133654,97.6642,-796.333,0,0
133915,98.2275,-794.29,0,0
134175,98.7985,-792.287,0,0
134435,99.2526,-790.304,0,0
134696,99.6389,-788.214,0,0
134956,100.082,-785.978,0,0
135216,100.561,-783.769,0,0
135477,101.149,-781.599,0,0
135737,101.666,-779.37,0,0
135997,102.337,-777.07,0,0
136258,103.109,-774.836,0,0
136518,103.984,-772.681,0,0
136778,104.912,-770.669,0,0
137039,105.838,-768.734,0,0
137299,106.798,-766.839,0,0
137559,107.957,-765.13,0,0
137819,108.988,-763.915,0,0
138080,109.607,-762.833,0,0
138340.125,109.959,-761.643,0,0
138600.45,110.177,-760.365,0,0
138860.775,110.179,-759.047,0,0
139121.1,110.135,-757.458,0,0
139381.425,110.187,-755.742,0,0
139641.75,110.252,-754.138,0,0
139902.075,110.183,-752.565,0,0
140162.4,109.916,-750.79,0,0
140422.725,109.747,-748.81,0,0
140683.05,109.644,-746.797,0,0
140943.375,109.555,-744.734,0,0
141203.7,109.53,-742.574,0,0
141464.025,109.667,-740.37,0,0
141724.35,109.738,-738.309,0,0
141984.675,109.657,-736.025,0,0
142245.0,109.948,-733.678,0,0
142505.325,110.338,-731.492,0,0
142765.65,110.571,-729.453,0,0
143025.975,110.705,-727.347,0,0
143286.3,110.976,-725.153,0,0
143546.625,111.12,-722.886,0,0
143806.95,111.468,-720.541,0,0
144067.275,111.885,-718.341,0,0
144327.6,112.229,-716.14,0,0
144587.925,112.57,-713.854,0,0
144848.25,113.074,-711.57,0,0
145108.575,113.522,-709.33,0,0
145368.9,114.143,-707.046,0,0
145629.225,114.806,-704.971,0,0
145889.55,115.396,-702.955,0,0
146149.875,115.848,-700.92,0,0
146410.2,116.351,-698.731,0,0
146670.525,117.104,-696.528,0,0
146930.85,118.02,-694.581,0,0
147191.175,118.717,-693.062,0,0
147451.5,118.991,-691.46,0,0
147711.825,119.139,-689.594,0,0
147972.15,119.4,-687.465,0,0
148232.475,119.829,-685.304,0,0
148492.8,120.43,-683.215,0,0
148753.125,120.983,-681.286,0,0
149013.45,121.559,-679.292,0,0
149273.775,122.215,-677.462,0,0
149534.1,122.799,-675.816,0,0
149794.425,123.224,-674.314,0,0
150054.75,123.311,-672.82,0,0
150315.075,123.241,-671.167,0,0
150575.4,123.054,-669.322,0,0
150835.725,122.813,-667.329,0,0
151096.05,122.495,-665.119,0,0
151356.375,122.303,-662.629,0,0
151616.7,122.281,-660.167,0,0
151877.025,122.262,-657.693,0,0
152137.35,122.212,-655.192,0,0
152397.675,121.997,-652.541,0,0
152658.0,121.799,-649.53,0,0
152918.325,121.839,-646.193,0,0
153178.65,122.337,-642.813,0,0
153438.975,123.011,-639.579,0,0
153699.3,123.717,-636.455,0,0
153959.625,124.438,-633.26,0,0
154219.95,125.243,-629.908,0,0
154480,126.25,-626.549,0,0
154741,127.435,-623.073,0,0
155001,128.955,-619.669,0,0
155261,130.504,-616.542,0,0
155522,132.028,-613.291,0,0
155782,133.822,-609.903,0,0
156042,135.934,-606.712,0,0
156303,138.158,-603.704,0,0
156563,140.383,-600.808,0,0
156823,142.752,-597.85,0,0
157084,145.537,-595.023,0,0
157344,148.542,-592.697,0,0
157604,151.389,-590.946,0,0
157864,153.8,-589.368,0,0
158125,155.964,-587.563,0,0
158385,158.337,-585.693,0,0
158645,160.528,-584.151,0,0
158906,162.232,-582.491,0,0
159166,163.909,-580.267,0,0
159426,166.003,-577.658,0,0
159687,168.531,-574.983,0,0
159947,171.475,-572.343,0,0
160207,174.783,-569.97,0,0
160468,178.339,-567.939,0,0
160728,182.21,-566.15,0,0
160988,186.296,-564.743,0,0
161249,190.472,-563.989,0,0
161509,194.613,-563.822,0,0
161769,198.23,-564.163,0,0
162030,201.366,-564.692,0,0
162290,204.132,-565.15,0,0
162550,206.623,-565.511,0,0
162811,209.008,-565.644,0,0
163071,211.556,-565.699,0,0
163331,214.165,-565.904,0,0
163592,216.807,-566.258,0,0
163852,219.274,-566.8,0,0
164112,221.545,-567.356,0,0
164373,223.759,-567.876,0,0
164633,225.961,-568.321,0,0
164893,228.253,-568.753,0,0
165154,230.824,-569.268,0,0
165414,233.53,-570.035,0,0
165674,236.378,-571.203,0,0
165935,239.214,-572.891,0,0
166195,241.675,-575.286,0,0
166455,243.357,-577.951,0,0
166716,244.418,-580.331,0,0
166976,245.543,-582.437,0,0
167236,246.656,-584.925,0,0
167497,247.179,-587.674,0,0
167757,247.21,-590.227,0,0
168017,246.954,-592.617,0,0
168277,246.309,-594.925,0,0
168538,245.484,-596.883,0,0
168798,244.514,-598.859,0,0
169058,243.115,-600.592,0,0
169319,241.554,-602.062,0,0
169579,239.728,-603.356,0,0
169839,237.546,-604.079,0,0
170100,235.53,-604.3,0,0
170360.075,233.749,-604.132,0,0
170620.4,232.147,-603.753,0,0
170880.725,230.768,-603.214,0,0
171141.05,229.588,-602.736,0,0
171401.375,228.435,-602.335,0,0
171661.7,227.182,-601.893,0,0
171922.025,225.875,-601.277,0,0
172182.35,224.563,-600.417,0,0
172442.675,223.424,-599.321,0,0
172703.0,222.58,-598.181,0,0
172963.325,221.809,-597.122,0,0
173223.65,221.009,-596.047,0,0
173483.975,220.349,-594.864,0,0
173744.3,219.703,-593.694,0,0
174004.625,219.093,-592.393,0,0
174264.95,218.701,-591.03,0,0
174525.275,218.498,-589.712,0,0
174785.6,218.418,-588.431,0,0
175045.925,218.415,-587.222,0,0
175306.25,218.389,-586.145,0,0
175566.575,218.711,-585.071,0,0
175826.9,219.184,-584.374,0,0
176087.225,219.334,-584.081,0,0
176347.55,219.072,-583.79,0,0
176607.875,218.741,-583.313,0,0
176868.2,218.293,-582.814,0,0
177128.525,217.742,-582.045,0,0
177388.85,217.488,-581.082,0,0
177649.175,217.522,-580.369,0,0
177909.5,217.492,-580.071,0,0
178169.825,217.099,-580.013,0,0
178430.15,216.235,-579.791,0,0
178690.475,215.313,-579.26,0,0
178950.8,214.439,-578.611,0,0
179211.125,213.494,-577.95,0,0
179471.45,212.657,-577.155,0,0
179731.775,211.847,-576.489,0,0
179992.1,210.927,-575.907,0,0
180252.425,209.632,-575.421,0,0
180512.75,208.062,-574.583,0,0
180773.075,206.556,-573.484,0,0
181033.4,204.935,-572.239,0,0
181293.725,203.317,-570.743,0,0
181554.05,201.809,-569.032,0,0
181814.375,200.43,-567.153,0,0
182074.7,199.304,-565.255,0,0
182335.025,198.174,-563.597,0,0
182595.35,196.72,-561.957,0,0
182855.675,195.119,-560.006,0,0
183116.0,193.508,-557.765,0,0
183376.325,191.894,-555.267,0,0
183636.65,190.417,-552.474,0,0
183896.975,189.122,-549.489,0,0
184157.3,188.071,-546.301,0,0
184417.625,187.228,-543.071,0,0
184677.95,186.524,-539.795,0,0
184938.275,185.988,-536.381,0,0
185198.6,185.754,-532.855,0,0
185458.925,185.816,-529.403,0,0
185719.25,185.973,-526.122,0,0
185979.575,186.156,-522.847,0,0
186239.9,186.619,-519.512,0,0
186500,187.25,-516.501,0,0
186761,187.799,-513.553,0,0
187021,188.249,-510.752,0,0
187281,188.665,-507.651,0,0
187542,189.44,-504.569,0,0
187802,190.209,-501.668,0,0
188062,190.992,-498.983,0,0
188322,191.581,-496.321,0,0
188583,192.052,-493.606,0,0
188843,192.545,-490.647,0,0
189103,193.107,-487.645,0,0
189364,193.84,-484.537,0,0
189624,194.63,-481.386,0,0
189884,195.519,-478.281,0,0
190145,196.433,-475.073,0,0
190405,197.475,-471.916,0,0
190665,198.633,-468.774,0,0
190926,199.826,-465.743,0,0
191186,200.897,-462.579,0,0
191446,202.043,-459.353,0,0
191707,203.237,-455.999,0,0
191967,204.676,-452.568,0,0
192227,206.349,-449.178,0,0
192488,208.099,-445.878,0,0
192748,209.84,-442.8,0,0
193008,211.58,-439.568,0,0
193269,213.408,-436.362,0,0
193529,215.289,-433.16,0,0
193789,217.187,-429.958,0,0
194050,219.154,-426.721,0,0
194310,221.125,-423.453,0,0
194570,223.094,-420.085,0,0
194831,225.253,-416.635,0,0
195091,227.497,-413.125,0,0
195351,229.925,-409.567,0,0
195612,232.507,-406.057,0,0
195872,235.119,-402.559,0,0
196132,237.947,-399.09,0,0
196393,240.733,-395.427,0,0
196653,243.833,-391.77,0,0
196913,247.218,-388.089,0,0
197174,250.827,-384.62,0,0
197434,254.359,-381.228,0,0
197694,258.153,-377.827,0,0
197955,262.081,-374.493,0,0
198215,266.264,-371.156,0,0
198475,270.564,-368.115,0,0
198735,274.908,-365.301,0,0
198996,279.24,-362.642,0,0
199256,283.352,-360.012,0,0
199516,287.485,-357.219,0,0
199777,291.646,-354.418,0,0
200037,295.868,-351.304,0,0
200297,300.263,-348.046,0,0
200558,305.048,-344.677,0,0
200818,310.186,-341.223,0,0
201078,315.649,-337.863,0,0
201339,321.398,-334.453,0,0
201599,327.624,-330.975,0,0
201859,334.363,-327.728,0,0
202120,341.556,-324.746,0,0
202380.025,349.105,-322.017,0,0
202640.35,357.135,-319.956,0,0
202900.675,365.333,-318.164,0,0
203161.0,373.476,-316.888,0,0
203421.325,381.772,-315.618,0,0
203681.65,390.371,-314.503,0,0
203941.975,399.612,-313.563,0,0
204202.3,409.411,-313.277,0,0
204462.625,419.786,-313.707,0,0
204722.95,430.501,-315.203,0,0
204983.275,441.195,-317.829,0,0
205243.6,451.629,-321.614,0,0
205503.925,461.343,-326.231,0,0
205764.25,470.599,-331.288,0,0
206024.575,479.285,-337.033,0,0
206284.9,487.444,-343.063,0,0
206545.225,495.332,-349.271,0,0
206805.55,503.042,-356.214,0,0
207065.875,510.13,-363.971,0,0
207326.2,516.181,-372.194,0,0
207586.525,521.162,-380.536,0,0
207846.85,525.455,-388.713,0,0
208107.175,529.181,-396.669,0,0
208367.5,532.503,-404.649,0,0
208627.825,535.388,-412.661,0,0
208888.15,537.543,-420.805,0,0
209148.475,539.012,-428.773,0,0
209408.8,539.779,-436.437,0,0
209669.125,540.147,-443.792,0,0
209929.45,539.962,-450.938,0,0
210189.775,539.115,-457.757,0,0
210450.1,537.6,-463.845,0,0
210710.425,535.889,-469.079,0,0
210970.75,534.006,-473.779,0,0
211231.075,531.989,-477.773,0,0
211491.4,529.99,-480.989,0,0
211751.725,528.336,-483.672,0,0
212012.05,526.693,-485.82,0,0
212272.375,525.23,-487.147,0,0
212532.7,524.532,-487.591,0,0
212793.025,525.041,-487.748,0,0
213053.35,526.537,-488.243,0,0
213313.675,528.494,-489.403,0,0
213574.0,530.775,-491.061,0,0
213834.325,532.875,-493.184,0,0
214094.65,534.806,-495.356,0,0
214354.975,536.973,-497.45,0,0
214615.3,539.325,-499.796,0,0
214875.625,541.698,-502.585,0,0
215135.95,543.883,-505.355,0,0
215396.275,546.181,-508.12,0,0
215656.6,548.644,-511.291,0,0
215916.925,550.928,-515.019,0,0
216177.25,552.486,-518.873,0,0
216437.575,553.59,-522.359,0,0
216697.9,554.469,-525.17,0,0
216958.225,555.618,-527.369,0,0
217218.55,557.515,-529.27,0,0
217478.875,560.268,-531.196,0,0
217739.2,563.632,-533.875,0,0
217999.525,566.889,-537.284,0,0
218259.85,569.93,-541.165,0,0
218520,572.47,-545.18,0,0
218780,574.888,-548.923,0,0
219041,577.422,-552.478,0,0
219301,580.357,-556.11,0,0
219561,583.56,-559.898,0,0
219822,587.015,-564.012,0,0
220082,590.601,-568.617,0,0
220342,594.124,-573.545,0,0
220603,597.748,-578.841,0,0
220863,601.52,-584.352,0,0
221123,605.366,-590.447,0,0
221384,609.278,-596.966,0,0
221644,613.118,-604.34,0,0
221904,616.633,-612.392,0,0
222165,619.704,-621.19,0,0
222425,622.093,-630.571,0,0
222685,623.695,-640.126,0,0
222946,624.585,-649.969,0,0
223206,624.889,-659.942,0,0
223466,624.471,-669.744,0,0
223727,623.628,-679.724,0,0
223987,622.236,-689.651,0,0
224247,620.27,-699.423,0,0
224508,617.668,-709.061,0,0
224768,614.913,-718.342,0,0
225028,611.985,-727.439,0,0
225289,608.585,-736.744,0,0
225549,604.94,-745.929,0,0
225809,600.827,-754.981,0,0
226070,596.468,-764.65,0,0
226330,591.304,-773.933,0,0
226590,585.462,-783.249,0,0
226851,578.93,-792.163,0,0
227111,571.763,-800.722,0,0
227371,564.102,-808.673,0,0
227632,556.108,-816.103,0,0
227892,547.639,-823.194,0,0
228152,538.736,-829.744,0,0
228413,529.465,-835.583,0,0
228673,519.767,-840.678,0,0
228933,510.143,-844.946,0,0
229193,500.659,-848.478,0,0
229454,491.325,-851.531,0,0
229714,482.11,-854.043,0,0
229974,472.83,-856.123,0,0
230235,463.82,-857.582,0,0
230495,455.052,-858.712,0,0
230755,446.351,-859.296,0,0
231016,438.097,-859.429,0,0
231276,430.178,-859.254,0,0
231536,422.544,-858.865,0,0
231797,415.31,-858.263,0,0
232057,408.289,-857.401,0,0
232317,401.674,-856.352,0,0
232578,395.38,-855.295,0,0
232838,389.526,-854.107,0,0
233098,383.948,-853.177,0,0
233359,378.343,-852.217,0,0
233619,373.049,-851.515,0,0
233879,367.654,-850.638,0,0
234140,362.206,-849.833,0,0
234400,357.025,-848.896,0,0
234660.3,351.755,-847.872,0,0
234920.625,346.561,-846.638,0,0
235180.95,341.68,-845.73,0,0
235441.275,336.998,-844.527,0,0
235701.6,332.128,-843.483,0,0
235961.925,327.281,-842.412,0,0
236222.25,322.512,-841.163,0,0
236482.575,317.758,-839.893,0,0
236742.9,312.921,-838.524,0,0
237003.225,308.347,-837.136,0,0
237263.55,303.776,-835.517,0,0
237523.875,299.322,-833.782,0,0
237784.2,294.981,-832.048,0,0
238044.525,290.901,-830.259,0,0
238304.85,286.895,-828.657,0,0
238565.175,282.821,-827.007,0,0
238825.5,278.799,-825.442,0,0
239085.825,274.686,-823.809,0,0
239346.15,270.482,-821.986,0,0
239606.475,266.458,-819.946,0,0
239866.8,262.501,-817.841,0,0
240127.125,258.591,-815.698,0,0
240387.45,254.938,-813.379,0,0
240647.775,251.421,-811.174,0,0
240908.1,248.063,-808.925,0,0
241168.425,244.56,-806.616,0,0
241428.75,241.2,-804.397,0,0
241689.075,237.963,-801.934,0,0
241949.4,234.819,-799.512,0,0
242209.725,231.881,-797.027,0,0
242470.05,229.043,-794.637,0,0
242730.375,226.257,-792.294,0,0
242990.7,223.533,-789.979,0,0
243251.025,220.815,-787.677,0,0
243511.35,218.234,-785.351,0,0
243771.675,215.719,-782.988,0,0
244032.0,213.286,-780.71,0,0
244292.325,210.859,-778.571,0,0
244552.65,208.395,-776.286,0,0
244812.975,205.911,-774.183,0,0
245073.3,203.509,-771.907,0,0
245333.625,201.144,-769.673,0,0
245593.95,198.912,-767.395,0,0
245854.275,196.6,-765.19,0,0
246114.6,194.3,-762.909,0,0
246374.925,192.014,-760.718,0,0
246635.25,189.713,-758.323,0,0
246895.575,187.466,-755.961,0,0
247155.9,185.265,-753.44,0,0
247416.225,183.241,-750.947,0,0
247676.55,181.289,-748.405,0,0
247936.875,179.378,-745.877,0,0
248197.2,177.52,-743.341,0,0
248457.525,175.761,-740.877,0,0
248717.85,174.036,-738.412,0,0
248978.175,172.379,-735.891,0,0
249238.5,170.742,-733.441,0,0
249498.825,169.269,-731.01,0,0
249759.15,167.816,-728.448,0,0
250019.475,166.319,-726.056,0,0
250279.8,164.914,-723.69,0,0
250540,163.464,-721.311,0,0
250800,162.031,-718.951,0,0
251061,160.647,-716.492,0,0
251321,159.353,-714.045,0,0
251581,158.091,-711.616,0,0
251842,156.868,-709.196,0,0
252102,155.622,-706.746,0,0
252362,154.489,-704.274,0,0
252623,153.378,-701.821,0,0
252883,152.3,-699.371,0,0
253143,151.263,-696.949,0,0
253404,150.28,-694.491,0,0
253664,149.255,-692.021,0,0
253924,148.265,-689.441,0,0
254185,147.294,-686.842,0,0
254445,146.554,-684.118,0,0
254705,145.926,-681.521,0,0
254966,145.498,-678.894,0,0
255226,144.962,-676.456,0,0
255486,144.673,-674.011,0,0
255747,144.234,-671.627,0,0
256007,143.935,-669.265,0,0
256267,143.583,-666.929,0,0
256528,143.234,-664.597,0,0
256788,142.946,-662.3,0,0
257048,142.675,-659.966,0,0
257309,142.434,-657.653,0,0
257569,142.25,-655.323,0,0
257829,142.089,-652.968,0,0
258090,141.983,-650.594,0,0
258350,141.976,-648.207,0,0
258610,142.055,-645.77,0,0
258871,142.198,-643.432,0,0
259131,142.518,-641.012,0,0
259391,142.929,-638.621,0,0
259651,143.438,-636.29,0,0
259912,144.024,-634.151,0,0
260172,144.746,-631.953,0,0
260432,145.595,-629.962,0,0
260693,146.433,-628.039,0,0
260953,147.337,-626.278,0,0
261213,148.246,-624.544,0,0
261474,149.245,-622.93,0,0
261734,150.227,-621.383,0,0
261994,151.24,-619.948,0,0
262255,152.237,-618.635,0,0
262515,153.241,-617.377,0,0
262775,154.254,-616.198,0,0
263036,155.235,-615.002,0,0
263296,156.262,-613.954,0,0
263556,157.329,-612.915,0,0
263817,158.403,-611.948,0,0
264077,159.54,-611.083,0,0
264337,160.683,-610.27,0,0
264598,161.875,-609.659,0,0
264858,163.019,-609.048,0,0
265118,164.388,-608.512,0,0
265379,165.723,-608.169,0,0
265639,167.143,-608.005,0,0
265899,168.561,-608.155,0,0
266160,169.918,-608.528,0,0
266420,171.179,-609.114,0,0
266680.25,172.247,-610.004,0,0
266940.575,173.173,-611.114,0,0
267200.9,173.787,-612.426,0,0
267461.225,174.071,-613.891,0,0
267721.55,173.967,-615.426,0,0
267981.875,173.625,-616.893,0,0
268242.2,172.924,-618.349,0,0
268502.525,171.891,-619.762,0,0
268762.85,170.552,-620.933,0,0
269023.175,168.99,-621.963,0,0
269283.5,167.243,-622.711,0,0
269543.825,165.338,-623.167,0,0
269804.15,163.309,-623.391,0,0
270064.475,161.223,-623.424,0,0
270324.8,159.14,-623.119,0,0
270585.125,157.023,-622.64,0,0
270845.45,155.012,-621.866,0,0
271105.775,153.056,-620.889,0,0
271366.1,151.266,-619.737,0,0
271626.425,149.522,-618.398,0,0
271886.75,147.948,-616.974,0,0
272147.075,146.504,-615.364,0,0
272407.4,145.222,-613.695,0,0
272667.725,144.089,-611.973,0,0
272928.05,143.067,-610.165,0,0
273188.375,142.264,-608.358,0,0
273448.7,141.581,-606.502,0,0
273709.025,141.048,-604.718,0,0
273969.35,140.659,-602.986,0,0
274229.675,140.368,-601.304,0,0
274490.0,140.13,-599.651,0,0
274750.325,139.928,-598.07,0,0
275010.65,139.812,-596.513,0,0
275270.975,139.841,-594.98,0,0
275531.3,139.881,-593.534,0,0
275791.625,139.948,-592.197,0,0
276051.95,140.012,-590.878,0,0
276312.275,140.1,-589.475,0,0
276572.6,140.266,-588.147,0,0
276832.925,140.546,-586.799,0,0
277093.25,140.903,-585.532,0,0
277353.575,141.373,-584.362,0,0
277613.9,141.901,-583.351,0,0
277874.225,142.435,-582.501,0,0
278134.55,142.905,-581.748,0,0
278394.875,143.343,-581.046,0,0
278655.2,143.723,-580.407,0,0
278915.525,144.097,-579.799,0,0
279175.85,144.505,-579.321,0,0
279436.175,144.837,-578.876,0,0
279696.5,145.161,-578.537,0,0
279956.825,145.351,-578.218,0,0
280217.15,145.495,-577.974,0,0
280477.475,145.598,-577.741,0,0
280737.8,145.674,-577.546,0,0
280998.125,145.707,-577.336,0,0
281258.45,145.658,-577.253,0,0
281518.775,145.484,-577.255,0,0
281779.1,145.193,-577.228,0,0
282039.425,144.72,-577.158,0,0
282299.75,144.142,-576.95,0,0
282560,143.562,-576.656,0,0
282820,142.952,-576.306,0,0
283081,142.34,-575.902,0,0
283341,141.687,-575.446,0,0
283601,141.021,-574.896,0,0
283862,140.304,-574.301,0,0
284122,139.676,-573.615,0,0
284382,139.033,-572.922,0,0
284643,138.428,-572.199,0,0
284903,137.865,-571.397,0,0
285163,137.315,-570.645,0,0
285424,136.751,-569.929,0,0
285684,136.127,-569.175,0,0
285944,135.488,-568.347,0,0
286205,134.778,-567.544,0,0
286465,134.018,-566.618,0,0
286725,133.28,-565.567,0,0
286986,132.556,-564.428,0,0
287246,131.884,-563.197,0,0
287506,131.241,-561.888,0,0
287767,130.649,-560.471,0,0
288027,130.095,-558.873,0,0
288287,129.685,-557.171,0,0
288548,129.534,-555.327,0,0
288808,129.682,-553.526,0,0
289068,130.051,-551.771,0,0
289329,130.634,-550.207,0,0
289589,131.269,-548.951,0,0
289849,131.916,-547.782,0,0
290109,132.633,-546.757,0,0
290370,133.298,-545.897,0,0
290630,133.889,-545.181,0,0
290890,134.437,-544.553,0,0
291151,134.885,-543.976,0,0
291411,135.254,-543.437,0,0
291671,135.574,-542.943,0,0
291932,135.839,-542.469,0,0
292192,136.028,-542.061,0,0
292452,136.127,-541.668,0,0
292713,136.073,-541.301,0,0
292973,135.894,-540.846,0,0
293233,135.613,-540.317,0,0
293494,135.244,-539.672,0,0
293754,134.831,-538.862,0,0
294014,134.374,-537.871,0,0
294275,134.018,-536.69,0,0
294535,133.76,-535.366,0,0
294795,133.66,-533.905,0,0
295056,133.739,-532.397,0,0
295316,134.018,-530.876,0,0
295576,134.423,-529.405,0,0
295837,134.989,-527.945,0,0
296097,135.661,-526.586,0,0
296357,136.441,-525.296,0,0
296618,137.3,-524.092,0,0
296878,138.213,-522.997,0,0
297138,139.149,-521.966,0,0
297399,140.141,-521.033,0,0
297659,141.127,-520.167,0,0
297919,142.139,-519.362,0,0
298180,143.156,-518.618,0,0
298440,144.181,-517.92,0,0
298700.2,145.197,-517.228,0,0
298960.525,146.255,-516.712,0,0
299220.85,147.411,-516.125,0,0
299481.175,148.539,-515.649,0,0
299741.5,149.647,-515.313,0,0
300001.825,150.687,-514.997,0,0
300262.15,151.702,-514.803,0,0
300522.475,152.692,-514.392,0,0
300782.8,153.742,-514.06,0,0
301043.125,154.845,-513.765,0,0
301303.45,156.074,-513.419,0,0
301563.775,157.341,-513.214,0,0
301824.1,158.676,-513.224,0,0
302084.425,159.964,-513.182,0,0
302344.75,161.355,-513.287,0,0
302605.075,162.766,-513.5,0,0
302865.4,164.115,-513.968,0,0
303125.725,165.426,-514.582,0,0
303386.05,166.596,-515.219,0,0
303646.375,167.821,-516.023,0,0
303906.7,168.717,-516.759,0,0
304167.025,169.591,-517.537,0,0
304427.35,170.477,-518.315,0,0
304687.675,171.303,-519.146,0,0
304948.0,172.101,-520.033,0,0
305208.325,172.802,-520.957,0,0
305468.65,173.517,-521.864,0,0
305728.975,174.196,-522.814,0,0
305989.3,174.841,-523.83,0,0
306249.625,175.47,-524.861,0,0
306509.95,176.016,-526.013,0,0
306770.275,176.582,-527.251,0,0
307030.6,176.968,-528.561,0,0
307290.925,177.303,-529.909,0,0
307551.25,177.587,-531.257,0,0
307811.575,177.765,-532.696,0,0
308071.9,177.768,-534.207,0,0
308332.225,177.629,-535.687,0,0
308592.55,177.413,-537.116,0,0
308852.875,176.97,-538.385,0,0
309113.2,176.564,-539.676,0,0
309373.525,176.152,-540.879,0,0
309633.85,175.63,-542.084,0,0
309894.175,175.218,-543.209,0,0
310154.5,174.713,-544.366,0,0
310414.825,174.213,-545.533,0,0
310675.15,173.681,-546.708,0,0
310935.475,173.132,-548.015,0,0
311195.8,172.49,-549.262,0,0
311456.125,171.719,-550.528,0,0
311716.45,170.988,-551.896,0,0
311976.775,169.912,-553.251,0,0
312237.1,168.729,-554.538,0,0
312497.425,167.466,-555.763,0,0
312757.75,166.142,-556.908,0,0
313018.075,164.644,-557.857,0,0
313278.4,163.046,-558.865,0,0
313538.725,161.546,-559.499,0,0
313799.05,159.92,-560.163,0,0
314059.375,158.393,-560.793,0,0
314319.7,156.858,-561.294,0,0
314580,155.279,-561.675,0,0
314840,153.754,-562.104,0,0
315101,152.21,-562.333,0,0
315361,150.75,-562.652,0,0
315621,149.287,-562.727,0,0
315882,147.799,-562.926,0,0
316142,146.361,-563.215,0,0
316402,144.855,-563.37,0,0
316663,143.265,-563.45,0,0
316923,141.771,-563.564,0,0
317183,140.172,-563.512,0,0
317444,138.704,-563.479,0,0
317704,137.139,-563.45,0,0
317964,135.415,-563.309,0,0
318225,133.867,-563.035,0,0
318485,132.136,-562.739,0,0
318745,130.689,-562.351,0,0
319006,129.194,-561.997,0,0
319266,127.684,-561.577,0,0
319526,126.139,-561.034,0,0
319787,124.572,-560.591,0,0
320047,123.099,-559.967,0,0
320307,121.667,-559.288,0,0
320567,120.241,-558.601,0,0
320828,118.829,-557.836,0,0
321088,117.494,-557.046,0,0
321348,116.228,-556.136,0,0
321609,114.992,-555.29,0,0
321869,113.751,-554.463,0,0
322129,112.641,-553.582,0,0
322390,111.382,-552.621,0,0
322650,110.221,-551.622,0,0
322910,109.12,-550.572,0,0
323171,108.116,-549.483,0,0
323431,107.153,-548.296,0,0
323691,106.279,-547.07,0,0
323952,105.484,-545.876,0,0
324212,104.89,-544.722,0,0
324472,104.271,-543.545,0,0
324733,103.757,-542.449,0,0
324993,103.347,-541.428,0,0
325253,102.86,-540.386,0,0
325514,102.528,-539.419,0,0
325774,102.135,-538.558,0,0
326034,101.78,-537.694,0,0
326295,101.396,-536.812,0,0
326555,101.062,-535.981,0,0
326815,100.717,-535.212,0,0
327076,100.525,-534.382,0,0
327336,100.194,-533.688,0,0
327596,99.9487,-532.946,0,0
327857,99.8365,-532.292,0,0
328117,99.5284,-531.629,0,0
328377,99.3091,-531.095,0,0
328638,99.0889,-530.565,0,0
328898,98.8643,-530.06,0,0
329158,98.6346,-529.619,0,0
329419,98.3615,-529.206,0,0
329679,98.0781,-528.849,0,0
329939,97.7251,-528.514,0,0
330200,97.3389,-528.19,0,0
330460,96.965,-527.857,0,0
330720.15,96.5456,-527.599,0,0
330980.475,96.0691,-527.242,0,0
331240.8,95.5247,-526.942,0,0
331501.125,94.9882,-526.636,0,0
331761.45,94.4725,-526.343,0,0
332021.775,93.8946,-525.949,0,0
332282.1,93.2494,-525.568,0,0
332542.425,92.6576,-525.198,0,0
332802.75,92.0322,-524.893,0,0
333063.075,91.3225,-524.48,0,0
333323.4,90.7525,-524.086,0,0
333583.725,90.0495,-523.686,0,0
333844.05,89.2677,-523.218,0,0
334104.375,88.6003,-522.752,0,0
334364.7,87.8027,-522.257,0,0
334625.025,87.0599,-521.774,0,0
334885.35,86.3939,-521.277,0,0
335145.675,85.5658,-520.696,0,0
335406.0,84.8064,-520.191,0,0
335666.325,84.0914,-519.563,0,0
335926.65,83.3663,-518.89,0,0
336186.975,82.6114,-518.321,0,0
336447.3,81.8605,-517.598,0,0
336707.625,81.1338,-516.903,0,0
336967.95,80.4294,-516.167,0,0
337228.275,79.7815,-515.411,0,0
337488.6,79.1164,-514.71,0,0
337748.925,78.467,-513.922,0,0
338009.25,77.7786,-513.16,0,0
338269.575,77.1372,-512.377,0,0
338529.9,76.5127,-511.631,0,0
338790.225,75.8838,-510.859,0,0
339050.55,75.2788,-510.069,0,0
339310.875,74.7146,-509.253,0,0
339571.2,74.0658,-508.369,0,0
339831.525,73.5286,-507.565,0,0
340091.85,72.9477,-506.704,0,0
340352.175,72.4219,-505.894,0,0
340612.5,71.9387,-505.005,0,0
340872.825,71.4874,-504.121,0,0
341133.15,70.9787,-503.319,0,0
341393.475,70.5635,-502.454,0,0
341653.8,70.1037,-501.577,0,0
341914.125,69.7007,-500.764,0,0
342174.45,69.2203,-499.931,0,0
342434.775,68.838,-499.134,0,0
342695.1,68.4309,-498.267,0,0
342955.425,68.0477,-497.506,0,0
343215.75,67.6077,-496.678,0,0
343476.075,67.1936,-495.917,0,0
343736.4,66.7817,-495.09,0,0
343996.725,66.3426,-494.333,0,0
344257.05,65.9298,-493.474,0,0
344517.375,65.5166,-492.684,0,0
344777.7,65.0925,-491.84,0,0
345038.025,64.678,-490.992,0,0
345298.35,64.2203,-490.165,0,0
345558.675,63.8482,-489.261,0,0
345819.0,63.4572,-488.37,0,0
346079.325,63.0289,-487.557,0,0
346339.65,62.6316,-486.595,0,0
346599.975,62.283,-485.768,0,0
346860,61.9549,-484.793,0,0
347121,61.6082,-483.884,0,0
347381,61.2801,-483.014,0,0
347641,60.9196,-482.056,0,0
347902,60.597,-481.135,0,0
348162,60.3811,-480.178,0,0
348422,60.1056,-479.175,0,0
348683,59.8605,-478.281,0,0
348943,59.6353,-477.314,0,0
349203,59.4536,-476.356,0,0
349464,59.3192,-475.453,0,0
349724,59.1264,-474.534,0,0
349984,58.9466,-473.632,0,0
350245,58.8002,-472.756,0,0
350505,58.6544,-471.811,0,0
350765,58.5571,-470.83,0,0
351025,58.4688,-470.017,0,0
351286,58.3778,-469.146,0,0
351546,58.3073,-468.281,0,0
351806,58.2287,-467.421,0,0
352067,58.0999,-466.59,0,0
352327,58.0613,-465.763,0,0
352587,58.0089,-464.97,0,0
352848,57.9543,-464.168,0,0
353108,57.8542,-463.396,0,0
353368,57.7498,-462.572,0,0
353629,57.6541,-461.817,0,0
353889,57.5479,-461.021,0,0
354149,57.5132,-460.169,0,0
354410,57.3928,-459.394,0,0
354670,57.3094,-458.606,0,0
354930,57.1982,-457.783,0,0
355191,57.1635,-456.996,0,0
355451,57.0901,-456.146,0,0
355711,57.073,-455.331,0,0
355972,56.9877,-454.474,0,0
356232,56.9709,-453.669,0,0
356492,56.9804,-452.826,0,0
356753,56.9984,-452.01,0,0
357013,57.0678,-451.195,0,0
357273,57.0714,-450.41,0,0
357534,57.1124,-449.63,0,0
357794,57.1455,-448.899,0,0
358054,57.2364,-448.099,0,0
358315,57.2402,-447.406,0,0
358575,57.2638,-446.695,0,0
358835,57.3108,-445.983,0,0
359096,57.36,-445.268,0,0
359356,57.416,-444.496,0,0
359616,57.4606,-443.807,0,0
359877,57.4116,-442.991,0,0
360137,57.5427,-442.371,0,0
360397,57.5545,-441.619,0,0
360658,57.6208,-440.88,0,0
360918,57.7319,-440.232,0,0
361178,57.732,-439.513,0,0
361438,57.8947,-438.809,0,0
361699,57.9271,-438.143,0,0
361959,57.8911,-437.479,0,0
362219,57.9273,-436.821,0,0
362480,58.014,-436.104,0,0
362740.1,58.0708,-435.381,0,0
363000.425,58.121,-434.73,0,0
363260.75,58.1636,-434.018,0,0
363521.075,58.1987,-433.38,0,0
363781.4,58.3332,-432.656,0,0
364041.725,58.3915,-431.96,0,0
364302.05,58.4622,-431.295,0,0
364562.375,58.508,-430.647,0,0
364822.7,58.5865,-429.935,0,0
365083.025,58.6571,-429.23,0,0
365343.35,58.7479,-428.547,0,0
365603.675,58.8045,-427.886,0,0
365864.0,58.901,-427.154,0,0
366124.325,58.9648,-426.488,0,0
366384.65,59.0489,-425.79,0,0
366644.975,59.1623,-425.073,0,0
366905.3,59.2118,-424.388,0,0
367165.625,59.3254,-423.659,0,0
367425.95,59.3499,-423.005,0,0
367686.275,59.4273,-422.305,0,0
367946.6,59.4516,-421.519,0,0
368206.925,59.529,-420.767,0,0
368467.25,59.5631,-419.91,0,0
368727.575,59.634,-419.025,0,0
368987.9,59.7964,-418.102,0,0
369248.225,59.9471,-417.159,0,0
369508.55,60.2272,-416.215,0,0
369768.875,60.5211,-415.229,0,0
370029.2,60.9453,-414.29,0,0
370289.525,61.4034,-413.357,0,0
370549.85,61.8864,-412.485,0,0
370810.175,62.4399,-411.644,0,0
371070.5,63.0745,-410.842,0,0
371330.825,63.6657,-410.103,0,0
371591.15,64.3013,-409.409,0,0
371851.475,64.9611,-408.766,0,0
372111.8,65.6578,-408.158,0,0
372372.125,66.3024,-407.605,0,0
372632.45,66.9959,-407.125,0,0
372892.775,67.7061,-406.639,0,0
373153.1,68.376,-406.228,0,0
373413.425,69.0863,-405.793,0,0
373673.75,69.7835,-405.456,0,0
373934.075,70.4785,-405.202,0,0
374194.4,71.1512,-404.995,0,0
374454.725,71.7712,-404.723,0,0
374715.05,72.4434,-404.629,0,0
374975.375,73.0382,-404.561,0,0
375235.7,73.5644,-404.428,0,0
375496.025,74.0839,-404.385,0,0
375756.35,74.602,-404.313,0,0
376016.675,75.0303,-404.281,0,0
376277.0,75.4522,-404.259,0,0
376537.325,75.8461,-404.21,0,0
376797.65,76.21,-404.154,0,0
377057.975,76.5583,-404.071,0,0
377318.3,76.9668,-404.073,0,0
377578.625,77.3461,-404.03,0,0
377838.95,77.709,-404.002,0,0
378099.275,78.0385,-403.972,0,0
378359.6,78.3592,-403.988,0,0
378619.925,78.6802,-404.023,0,0
378880,78.9513,-404.105,0,0
379141,79.2255,-404.044,0,0
379401,79.4906,-404.095,0,0
379661,79.7488,-404.077,0,0
379922,80.0216,-404.073,0,0
380182,80.2907,-404.106,0,0
380442,80.5924,-404.035,0,0
380703,80.9432,-404.075,0,0
380963,81.3496,-404.101,0,0
381223,81.6602,-404.204,0,0
381483,82.1457,-404.435,0,0
381744,82.4358,-404.728,0,0
382004,82.7671,-405.099,0,0
382264,83.0165,-405.512,0,0
382525,83.1072,-405.953,0,0
382785,83.2034,-406.424,0,0
383045,83.1788,-406.912,0,0
383306,83.1247,-407.387,0,0
383566,83.0557,-407.83,0,0
383826,82.8044,-408.312,0,0
384087,82.5141,-408.726,0,0
384347,82.2189,-409.123,0,0
384607,81.791,-409.486,0,0
384868,81.406,-409.792,0,0
385128,80.9119,-410.078,0,0
385388,80.3996,-410.304,0,0
385649,79.8618,-410.476,0,0
385909,79.3356,-410.582,0,0
386169,78.7532,-410.67,0,0
386430,78.1507,-410.724,0,0
386690,77.5248,-410.752,0,0
386950,76.8677,-410.732,0,0
387211,76.274,-410.566,0,0
387471,75.5981,-410.434,0,0
387731,74.9963,-410.177,0,0
387992,74.3746,-409.928,0,0
388252,73.8113,-409.567,0,0
388512,73.2636,-409.184,0,0
388773,72.771,-408.825,0,0
389033,72.3031,-408.378,0,0
389293,71.906,-407.94,0,0
389554,71.5304,-407.505,0,0
389814,71.1914,-407.069,0,0
390074,70.896,-406.637,0,0
390335,70.6055,-406.282,0,0
390595,70.3919,-405.933,0,0
390855,70.1247,-405.577,0,0
391116,69.8766,-405.282,0,0
391376,69.5982,-404.957,0,0
391636,69.3363,-404.673,0,0
391896,68.9992,-404.39,0,0
392157,68.697,-404.12,0,0
392417,68.3842,-403.853,0,0
392677,68.005,-403.598,0,0
392938,67.6713,-403.285,0,0
393198,67.2565,-403.019,0,0
393458,66.8158,-402.751,0,0
393719,66.3659,-402.409,0,0
393979,65.8847,-402.042,0,0
394239,65.4175,-401.645,0,0
394500,64.8833,-401.25,0,0
394760.05,64.4294,-400.777,0,0
395020.375,63.9683,-400.279,0,0
395280.7,63.4735,-399.772,0,0
395541.025,63.0156,-399.179,0,0
395801.35,62.5572,-398.645,0,0
396061.675,62.1878,-397.985,0,0
396322.0,61.7704,-397.379,0,0
396582.325,61.394,-396.714,0,0
396842.65,61.0464,-396.076,0,0
397102.975,60.7571,-395.409,0,0
397363.3,60.4288,-394.707,0,0
397623.625,60.1911,-394.06,0,0
397883.95,59.9707,-393.399,0,0
398144.275,59.686,-392.688,0,0
398404.6,59.4419,-392.057,0,0
398664.925,59.2455,-391.387,0,0
398925.25,58.9903,-390.689,0,0
399185.575,58.7717,-390.05,0,0
399445.9,58.5612,-389.352,0,0
399706.225,58.3892,-388.652,0,0
399966.55,58.2053,-387.95,0,0
400006.6,58.1698,-387.873,0,0