File: Accelerated corrosion test data/2025-10-09_06-00-03/sample_2.csv
Frequency (Hz),Impedance (ohms),Phase (Radians),Temperature (C),Humidity (%)
10000.0,234.111,-11396.5,0,0
10260.325,228.514,-11109.7,0,0
10520.65,223.244,-10836.7,0,0
10780.975,218.166,-10577.4,0,0
11041.3,212.798,-10330.3,0,0
11301.625,208.051,-10093.9,0,0
11561.95,204.561,-9866.56,0,0
11822.275,202.296,-9657.18,0,0
12082.6,197.915,-9448.92,0,0
12342.925,191.705,-9252.83,0,0
12603.25,187.295,-9061.82,0,0
12863.575,183.977,-8878.92,0,0
13123.9,181.427,-8706.37,0,0
13384.225,177.021,-8535.86,0,0
13644.55,174.793,-8371.44,0,0
13904.875,187.715,-8221.47,0,0
14165.2,168.496,-8072.98,0,0
14425.525,165.504,-7926.17,0,0
14685.8,166.788,-7780.47,0,0
14946.175,163.404,-7650.61,0,0
15206.5,166.048,-7529.96,0,0
15466.825,165.466,-7394.93,0,0
15727.15,154.681,-7283.04,0,0
15987.5,151.382,-7161.83,0,0
16247.8,151.596,-7047.5,0,0
16508.125,146.081,-6938.11,0,0
16768.45,143.715,-6830.15,0,0
17028.775,142.108,-6726.08,0,0
17289.1,140.659,-6625.99,0,0
17549.425,137.775,-6527.43,0,0
17809.75,135.513,-6431.35,0,0
18070.075,133.475,-6338.82,0,0
18330.4,131.772,-6248.82,0,0
18590.725,130.962,-6160.67,0,0
18851.05,129.677,-6075.16,0,0
19111.375,131.18,-5993.57,0,0
19371.7,130.57,-5916.35,0,0
19632.025,125.499,-5838.51,0,0
19892.35,123.036,-5761.09,0,0
20152.675,121.284,-5685.61,0,0
20413.0,120.337,-5611.65,0,0
20673.3,119.733,-5539.14,0,0
20933.65,120.353,-5467.99,0,0
21193.975,124.812,-5401.39,0,0
21454.3,132.106,-5339.53,0,0
21714.625,128.612,-5283.43,0,0
21974.9,124.042,-5218.43,0,0
22235.275,120.687,-5164.18,0,0
22495.6,116.732,-5104.15,0,0
22755.925,113.778,-5043.06,0,0
23016.25,114.102,-4988.18,0,0
23276.6,114.228,-4933.26,0,0
23536.9,110.689,-4879.22,0,0
23797.225,108.551,-4824.68,0,0
24057.55,108.619,-4773.64,0,0
24317.875,104.566,-4722.69,0,0
24578.2,103.136,-4671.97,0,0
24838.525,102.043,-4622.83,0,0
25098.85,101.263,-4573.6,0,0
25359.175,99.9425,-4526.25,0,0
25619.5,98.827,-4480.23,0,0
25879.8,98.1213,-4434.16,0,0
26140.1,98.0552,-4389.69,0,0
26400.5,97.0444,-4346.52,0,0
26660.8,97.5964,-4304.75,0,0
26921.1,96.3114,-4262.34,0,0
27181.4,95.6545,-4222.52,0,0
27441.8,93.5054,-4182.51,0,0
27702.1,92.0242,-4142.72,0,0
27962.4,91.381,-4102.12,0,0
28222.7,91.693,-4064.65,0,0
28483.1,91.3533,-4026.63,0,0
28743.4,90.7251,-3989.09,0,0
29003.7,91.6032,-3951.73,0,0
29264,91.6898,-3915.84,0,0
29524.4,94.9414,-3880.54,0,0
29784.7,97.4085,-3851.26,0,0
30045,94.1685,-3819.98,0,0
30305.3,95.8806,-3787.11,0,0
30565.7,91.9376,-3759.44,0,0
30826,89.0282,-3726.43,0,0
31086.3,87.9631,-3694.79,0,0
31346.6,86.4523,-3663.64,0,0
31607,86.6397,-3633.15,0,0
31867.3,84.3101,-3603.8,0,0
32127.6,83.3194,-3572.89,0,0
32387.9,83.6337,-3542.88,0,0
32648.3,85.1608,-3515.51,0,0
32908.6,84.3042,-3489.25,0,0
33168.9,82.939,-3462.4,0,0
33429.2,80.9127,-3434.87,0,0
33689.6,80.6712,-3408.2,0,0
33949.9,79.9965,-3382.38,0,0
34210.2,78.3161,-3356.46,0,0
34470.5,77.8163,-3330.45,0,0
34730.9,76.9203,-3304.81,0,0
34991.2,76.47,-3279.72,0,0
35251.5,75.8982,-3255.19,0,0
35511.8,75.1911,-3230.82,0,0
35772.2,75.0221,-3207.15,0,0
36032.5,74.0639,-3183.84,0,0
36292.8,73.6706,-3160.31,0,0
36553.1,73.2883,-3137.37,0,0
36813.5,72.7287,-3114.85,0,0
37073.8,72.1772,-3092.68,0,0
37334.1,72.1614,-3070.73,0,0
37594.4,71.7416,-3049.29,0,0
37854.8,71.5495,-3027.9,0,0
38115.1,71.0882,-3007.16,0,0
38375.4,70.3167,-2986.52,0,0
38635.7,69.9481,-2965.74,0,0
38896.1,69.6747,-2945.54,0,0
39156.4,69.1203,-2925.69,0,0
39416.7,68.8763,-2905.98,0,0
39677,68.3219,-2886.4,0,0
39937.4,67.9884,-2867.24,0,0
40197.7,67.5969,-2848.23,0,0
40458,67.207,-2829.45,0,0
40718.3,67.2959,-2810.53,0,0
40978.7,66.8859,-2792.79,0,0
41239,66.5674,-2774.39,0,0
41499.3,66.6956,-2756.94,0,0
41759.6,66.1579,-2739.29,0,0
42020,66.1599,-2721.91,0,0
42280.275,66.0102,-2705.25,0,0
42540.6,65.5386,-2688.2,0,0
42800.925,65.0652,-2671.63,0,0
43061.25,64.694,-2654.81,0,0
43321.575,64.4344,-2638.53,0,0
43581.9,64.4063,-2622.47,0,0
43842.225,64.0455,-2606.45,0,0
44102.55,64.0157,-2590.61,0,0
44362.875,63.5561,-2575.1,0,0
44623.2,63.4521,-2559.81,0,0
44883.525,62.9386,-2544.39,0,0
45143.85,62.8793,-2529,0,0
45404.175,62.9856,-2514.23,0,0
45664.5,62.7006,-2499.71,0,0
45924.825,62.6436,-2484.77,0,0
46185.15,62.7612,-2470.72,0,0
46445.475,62.2737,-2456.86,0,0
46705.8,61.9406,-2442.4,0,0
46966.125,61.6206,-2428.22,0,0
47226.45,61.7452,-2414.18,0,0
47486.775,62.1047,-2401.02,0,0
47747.1,61.3958,-2387.5,0,0
48007.425,61.426,-2374.07,0,0
48267.75,62.0083,-2360.46,0,0
48528.075,62.446,-2348.45,0,0
48788.4,62.0568,-2336.37,0,0
49048.725,61.5423,-2324,0,0
49309.05,60.7335,-2311.68,0,0
49569.375,60.0522,-2299.13,0,0
49829.7,59.7169,-2286.47,0,0
50090.025,59.3349,-2274.3,0,0
50350.35,58.6798,-2262.01,0,0
50610.675,58.3833,-2249.63,0,0
50871.0,58.5828,-2237.5,0,0
51131.325,58.404,-2225.92,0,0
51391.65,57.9983,-2214.63,0,0
51651.975,57.4894,-2202.91,0,0
51912.3,57.0206,-2191.47,0,0
52172.625,56.6192,-2179.75,0,0
52432.95,56.3508,-2168.43,0,0
52693.275,56.0071,-2157.08,0,0
52953.6,55.9932,-2145.82,0,0
53213.925,55.7417,-2134.72,0,0
53474.25,55.6315,-2123.79,0,0
53734.575,55.4152,-2112.98,0,0
53994.9,55.1701,-2102.05,0,0
54255.225,55.0447,-2091.21,0,0
54515.55,55.1231,-2080.64,0,0
54775.875,55.0701,-2070.32,0,0
55036.2,54.8824,-2059.95,0,0
55296.525,54.6288,-2049.68,0,0
55556.85,54.717,-2039.37,0,0
55817.175,54.762,-2029.35,0,0
56077.5,54.6488,-2019.4,0,0
56337.825,54.5844,-2009.45,0,0
56598.15,54.5504,-1999.6,0,0
56858.475,54.6089,-1989.87,0,0
57118.8,54.6459,-1980.07,0,0
57379.125,54.582,-1970.64,0,0
57639.45,54.6325,-1961.15,0,0
57899.775,54.842,-1951.7,0,0
58160.1,54.837,-1942.62,0,0
58420.4,54.6511,-1933.29,0,0
58680.7,54.703,-1924.06,0,0
58941.1,54.9361,-1914.85,0,0
59201.4,55.0539,-1905.77,0,0
59461.7,55.1803,-1896.8,0,0
59722,55.5012,-1887.71,0,0
59982.4,56.2682,-1878.95,0,0
60242.7,56.9347,-1870.78,0,0
60503,56.9747,-1862.81,0,0
60763.3,56.9006,-1854.36,0,0
61023.7,57.2575,-1845.82,0,0
61284,57.9007,-1837.64,0,0
61544.3,58.8695,-1829.7,0,0
61804.6,59.7195,-1822.74,0,0
62065,59.5518,-1816.11,0,0
62325.3,58.6691,-1809.04,0,0
62585.6,58.285,-1801.37,0,0
62845.9,58.0941,-1794.08,0,0
63106.3,57.361,-1787.13,0,0
63366.6,56.4173,-1779.52,0,0
63626.9,55.7074,-1771.92,0,0
63887.2,55.152,-1764.24,0,0
64147.6,54.5353,-1756.65,0,0
64407.9,53.9804,-1748.99,0,0
64668.2,53.7629,-1741.59,0,0
64928.5,52.6714,-1734.42,0,0
65188.9,51.5165,-1726.42,0,0
65449.2,51.1165,-1718.11,0,0
65709.5,51.1017,-1710.04,0,0
65969.8,51.2399,-1702.24,0,0
66230.2,51.4217,-1694.79,0,0
66490.5,51.6275,-1687.23,0,0
66750.8,51.7143,-1680.17,0,0
67011.1,51.5393,-1672.54,0,0
67271.5,51.8452,-1665.1,0,0
67531.8,52.3381,-1657.78,0,0
67792.1,53.1007,-1650.8,0,0
68052.4,53.7217,-1644.21,0,0
68312.8,53.9267,-1637.96,0,0
68573.1,53.9868,-1631.05,0,0
68833.4,54.6484,-1624.42,0,0
69093.7,55.4202,-1618.33,0,0
69354.1,55.6119,-1612.43,0,0
69614.4,56.0813,-1606.25,0,0
69874.7,56.6128,-1600.92,0,0
70135,56.4152,-1595.76,0,0
70395.4,55.9037,-1590.41,0,0
70655.7,54.8174,-1585.13,0,0
70916,53.7545,-1579.05,0,0
71176.3,53.2126,-1572.76,0,0
71436.7,52.6197,-1566.96,0,0
71697,52.0199,-1561.22,0,0
71957.3,50.644,-1555.56,0,0
72217.6,49.4414,-1549.08,0,0
72478,48.5459,-1542.56,0,0
72738.3,47.7209,-1535.97,0,0
72998.6,47.1424,-1529.11,0,0
73258.9,46.945,-1522.73,0,0
73519.3,46.3815,-1516.38,0,0
73779.6,45.7891,-1509.77,0,0
74039.9,45.7182,-1503.06,0,0
74300.225,45.6507,-1496.6,0,0
74560.55,45.668,-1490.16,0,0
74820.875,45.7132,-1483.84,0,0
75081.2,45.8322,-1477.5,0,0
75341.525,46.0253,-1471.33,0,0
75601.85,46.2904,-1465.17,0,0
75862.175,46.6155,-1458.98,0,0
76122.5,47.0344,-1453.03,0,0
76382.825,47.441,-1447.16,0,0
76643.15,47.9215,-1441.4,0,0
76903.475,48.2609,-1435.68,0,0
77163.8,48.7547,-1429.95,0,0
77424.125,49.4959,-1424.32,0,0
77684.45,50.1321,-1418.95,0,0
77944.775,50.8928,-1413.58,0,0
78205.1,51.7281,-1408.52,0,0
78465.425,52.5282,-1403.72,0,0
78725.75,53.0374,-1399.17,0,0
78986.075,53.5735,-1394.6,0,0
79246.4,53.8224,-1390.35,0,0
79506.725,53.9441,-1386.07,0,0
79767.05,53.8724,-1382.01,0,0
80027.375,53.2351,-1377.86,0,0
80287.7,52.4413,-1373.29,0,0
80548.025,51.6684,-1368.44,0,0
80808.35,51.0258,-1363.43,0,0
81068.675,50.5967,-1358.35,0,0
81329.0,50.2369,-1353.33,0,0
81589.325,49.7943,-1348.36,0,0
81849.65,49.4599,-1343.23,0,0
82109.975,49.1111,-1338.1,0,0
82370.3,48.8635,-1333.03,0,0
82630.625,48.6819,-1327.81,0,0
82890.95,48.6456,-1322.63,0,0
83151.275,48.7217,-1317.52,0,0
83411.6,48.8217,-1312.47,0,0
83671.925,49.0217,-1307.59,0,0
83932.25,49.1629,-1302.64,0,0
84192.575,49.3802,-1297.85,0,0
84452.9,49.5733,-1293.21,0,0
84713.225,49.661,-1288.54,0,0
84973.55,49.7689,-1283.8,0,0
85233.875,49.8671,-1279.13,0,0
85494.2,50.1045,-1274.43,0,0
85754.525,50.5538,-1269.82,0,0
86014.85,50.8823,-1265.52,0,0
86275.175,51.04,-1261.21,0,0
86535.5,51.1252,-1256.95,0,0
86795.825,51.2119,-1252.49,0,0
87056.15,51.3202,-1248.09,0,0
87316.475,51.6693,-1243.7,0,0
87576.8,51.9576,-1239.73,0,0
87837.125,51.8092,-1235.73,0,0
88097.45,51.6594,-1231.35,0,0
88357.775,51.8941,-1227.06,0,0
88618.1,51.9358,-1223.31,0,0
88878.425,51.4044,-1218.95,0,0
89138.75,51.4484,-1214.32,0,0
89399.075,51.6449,-1209.94,0,0
89659.4,52.0564,-1205.58,0,0
89919.725,52.4656,-1201.54,0,0
90180,52.6593,-1197.85,0,0
90440.4,52.4606,-1193.96,0,0
90700.7,52.0462,-1189.69,0,0
90961,52.116,-1185.04,0,0
91221.3,52.7522,-1180.78,0,0
91481.7,52.9723,-1176.89,0,0
91742,53.0928,-1172.85,0,0
92002.3,53.2654,-1168.68,0,0
92262.6,53.7863,-1164.46,0,0
92523,54.4996,-1160.57,0,0
92783.3,54.9024,-1156.98,0,0
93043.6,55.4511,-1153.23,0,0
93303.9,55.8662,-1149.86,0,0
93564.3,55.9213,-1146.33,0,0
93824.6,56.5514,-1142.82,0,0
94084.9,56.7416,-1139.88,0,0
94345.2,56.4317,-1136.72,0,0
94605.6,55.9163,-1133.08,0,0
94865.9,56.0507,-1129.29,0,0
95126.2,55.9717,-1126.18,0,0
95386.5,55.2253,-1122.5,0,0
95646.9,54.715,-1118.09,0,0
95907.2,55.1503,-1113.5,0,0
96167.5,56.1269,-1109.66,0,0
96427.8,56.8384,-1106.21,0,0
96688.2,57.4126,-1102.91,0,0
96948.5,58.0307,-1099.69,0,0
97208.8,58.6555,-1096.74,0,0
97469.1,59.0653,-1094.14,0,0
97729.5,59.0353,-1091.55,0,0
97989.8,58.8184,-1088.83,0,0
98250.1,58.4864,-1085.9,0,0
98510.4,58.3688,-1082.87,0,0
98770.8,58.3155,-1080.27,0,0
99031.1,57.8419,-1077.88,0,0
99291.4,56.799,-1075.36,0,0
99551.7,55.4045,-1072.45,0,0
99812.1,54.0118,-1068.78,0,0
100072,53.2313,-1064.82,0,0
100333,52.8288,-1060.94,0,0
100593,52.6242,-1057.57,0,0
100853,52.0155,-1054.42,0,0
101114,51.1269,-1051.1,0,0
101374,50.0202,-1047.53,0,0
101634,48.8991,-1043.5,0,0
101895,48.2037,-1039.11,0,0
102155,47.9775,-1034.84,0,0
102415,47.7799,-1030.95,0,0
102676,47.3767,-1027.08,0,0
102936,46.9043,-1022.89,0,0
103196,46.704,-1018.63,0,0
103457,46.626,-1014.43,0,0
103717,46.5628,-1010.08,0,0
103977,46.8272,-1005.58,0,0
104238,47.4214,-1001.25,0,0
104498,48.1853,-997.087,0,0
104758,49.0834,-993.219,0,0
105019,49.9236,-989.588,0,0
105279,50.6775,-985.934,0,0
105539,51.4866,-982.312,0,0
105800,52.5866,-978.755,0,0
106060,53.7925,-975.613,0,0
106320.175,54.8444,-972.717,0,0
106580.5,55.8959,-969.893,0,0
106840.825,56.8396,-967.495,0,0
107101.15,57.3305,-965.223,0,0
107361.475,57.7127,-962.783,0,0
107621.8,58.0677,-960.421,0,0
107882.125,58.3472,-958.297,0,0
108142.45,58.1214,-956.247,0,0
108402.775,57.5705,-953.79,0,0
108663.1,57.167,-951.099,0,0
108923.425,56.7884,-948.548,0,0
109183.75,56.1047,-945.863,0,0
109444.075,55.4242,-942.802,0,0
109704.4,54.948,-939.804,0,0
109964.725,54.1879,-936.714,0,0
110225.05,53.6369,-933.319,0,0
110485.375,53.1694,-929.893,0,0
110745.7,52.7291,-926.304,0,0
111006.025,52.5299,-922.723,0,0
111266.35,52.6449,-919.261,0,0
111526.675,52.4594,-915.757,0,0
111787.0,52.4409,-912.11,0,0
112047.325,52.5902,-908.643,0,0
112307.65,52.7107,-905.283,0,0
112567.975,52.7442,-901.831,0,0
112828.3,52.8882,-898.323,0,0
113088.625,53.0974,-894.853,0,0
113348.95,53.3909,-891.345,0,0
113609.275,53.7651,-887.961,0,0
113869.6,54.1582,-884.626,0,0
114129.925,54.5547,-881.259,0,0
114390.25,55.0276,-877.871,0,0
114650.575,55.5092,-874.598,0,0
114910.9,56.0416,-871.3,0,0
115171.225,56.6682,-868.067,0,0
115431.55,57.2598,-864.879,0,0
115691.875,57.9157,-861.746,0,0
115952.2,58.5353,-858.711,0,0
116212.525,59.1649,-855.636,0,0
116472.85,59.9124,-852.564,0,0
116733.175,60.7168,-849.588,0,0
116993.5,61.4569,-846.702,0,0
117253.825,62.2467,-843.886,0,0
117514.15,63.0458,-841.1,0,0
117774.475,63.8583,-838.38,0,0
118034.8,64.7194,-835.797,0,0
118295.125,65.4384,-833.343,0,0
118555.45,66.0535,-830.786,0,0
118815.775,66.842,-828.247,0,0
119076.1,67.6861,-825.972,0,0
119336.425,68.2037,-823.752,0,0
119596.75,68.8711,-821.44,0,0
119857.075,69.4846,-819.347,0,0
120117.4,69.9422,-817.329,0,0
120377.725,70.2798,-815.388,0,0
120638.05,70.473,-813.487,0,0
120898.375,70.349,-811.581,0,0
121158.7,70.105,-809.35,0,0
121419.025,69.987,-806.989,0,0
121679.35,69.8582,-804.679,0,0
121939.675,69.6635,-802.313,0,0
122200.0,69.4018,-799.881,0,0
122460,69.1358,-797.295,0,0
122721,68.966,-794.628,0,0
122981,68.8198,-791.983,0,0
123241,68.6715,-789.287,0,0
123502,68.5804,-786.574,0,0
123762,68.4631,-783.895,0,0
124022,68.3164,-781.104,0,0
124283,68.2014,-778.272,0,0
124543,68.1158,-775.42,0,0
124803,68.0235,-772.506,0,0
125064,68.0104,-769.533,0,0
125324,68.0423,-766.502,0,0
125584,68.1475,-763.491,0,0
125845,68.3162,-760.446,0,0
126105,68.5266,-757.405,0,0
126365,68.8023,-754.342,0,0
126626,69.1108,-751.328,0,0
126886,69.49,-748.323,0,0
127146,69.8727,-745.299,0,0
127406,70.4225,-742.278,0,0
127667,71.0265,-739.337,0,0
127927,71.6236,-736.503,0,0
128187,72.2052,-733.761,0,0
128448,72.7828,-731,0,0
128708,73.3961,-728.29,0,0
128968,73.9941,-725.644,0,0
129229,74.5558,-723.067,0,0
129489,75.075,-720.511,0,0
129749,75.5297,-717.932,0,0
130010,76.0043,-715.294,0,0
130270,76.5347,-712.731,0,0
130530,76.9862,-710.184,0,0
130791,77.4544,-707.649,0,0
131051,77.952,-705.132,0,0
131311,78.3761,-702.697,0,0
131572,78.7251,-700.229,0,0
131832,79.0729,-697.753,0,0
132092,79.3446,-695.308,0,0
132353,79.5084,-692.817,0,0
132613,79.5895,-690.201,0,0
132873,79.7306,-687.432,0,0
133134,79.9576,-684.575,0,0
133394,80.291,-681.766,0,0
133654,80.6404,-678.969,0,0
133915,80.9785,-676.19,0,0
134175,81.2813,-673.481,0,0
134435,81.5307,-670.652,0,0
134696,81.7747,-667.71,0,0
134956,82.1436,-664.743,0,0
135216,82.5095,-661.768,0,0
135477,82.9233,-658.738,0,0
135737,83.4207,-655.685,0,0
135997,83.9823,-652.688,0,0
136258,84.5581,-649.664,0,0
136518,85.2019,-646.708,0,0
136778,85.7648,-643.735,0,0
137039,86.3297,-640.707,0,0
137299,86.975,-637.592,0,0
137559,87.7406,-634.531,0,0
137819,88.5393,-631.576,0,0
138080,89.2504,-628.645,0,0
138340.125,89.9031,-625.683,0,0
138600.45,90.5461,-622.634,0,0
138860.775,91.2249,-619.547,0,0
139121.1,91.917,-616.454,0,0
139381.425,92.6487,-613.277,0,0
139641.75,93.3876,-610.091,0,0
139902.075,94.0851,-606.84,0,0
140162.4,94.7833,-603.456,0,0
140422.725,95.5689,-599.94,0,0
140683.05,96.5339,-596.215,0,0
140943.375,97.7143,-592.512,0,0
141203.7,99.0028,-588.828,0,0
141464.025,100.451,-585.089,0,0
141724.35,102.113,-581.378,0,0
141984.675,103.941,-577.758,0,0
142245.0,105.906,-574.299,0,0
142505.325,107.878,-570.879,0,0
142765.65,110.01,-567.443,0,0
143025.975,112.409,-564.261,0,0
143286.3,114.682,-561.362,0,0
143546.625,116.82,-558.52,0,0
143806.95,118.964,-555.64,0,0
144067.275,121.106,-552.769,0,0
144327.6,123.288,-549.912,0,0
144587.925,125.425,-547.094,0,0
144848.25,127.6,-544.168,0,0
145108.575,129.97,-541.229,0,0
145368.9,132.419,-538.382,0,0
145629.225,134.928,-535.63,0,0
145889.55,137.453,-532.957,0,0
146149.875,139.915,-530.296,0,0
146410.2,142.437,-527.557,0,0
146670.525,145.053,-524.756,0,0
146930.85,147.794,-521.954,0,0
147191.175,150.71,-519.08,0,0
147451.5,153.904,-516.308,0,0
147711.825,157.228,-513.75,0,0
147972.15,160.552,-511.313,0,0
148232.475,163.922,-508.819,0,0
148492.8,167.536,-506.304,0,0
148753.125,171.369,-503.84,0,0
149013.45,175.512,-501.422,0,0
149273.775,180.131,-499.155,0,0
149534.1,185.203,-497.352,0,0
149794.425,190.572,-496.106,0,0
150054.75,195.905,-495.607,0,0
150315.075,201.141,-495.391,0,0
150575.4,206.622,-495.696,0,0
150835.725,212.129,-496.911,0,0
151096.05,217.029,-499.023,0,0
151356.375,221.149,-501.403,0,0
151616.7,224.986,-503.979,0,0
151877.025,228.301,-507.141,0,0
152137.35,230.704,-510.479,0,0
152397.675,232.395,-513.659,0,0
152658.0,233.528,-516.495,0,0
152918.325,234.441,-519.042,0,0
153178.65,235.229,-521.484,0,0
153438.975,235.798,-524.041,0,0
153699.3,235.756,-526.663,0,0
153959.625,235.087,-528.944,0,0
154219.95,234.07,-530.639,0,0
154480,233.075,-531.869,0,0
154741,231.936,-532.714,0,0
155001,230.922,-533.364,0,0
155261,229.984,-533.844,0,0
155522,229.082,-534.131,0,0
155782,228.119,-534.238,0,0
156042,227.092,-534.309,0,0
156303,225.928,-534.162,0,0
156563,224.944,-533.807,0,0
156823,223.846,-533.402,0,0
157084,222.562,-532.903,0,0
157344,221.254,-531.899,0,0
157604,219.932,-530.585,0,0
157864,219.091,-528.723,0,0
158125,218.806,-526.941,0,0
158385,218.76,-525.315,0,0
158645,218.712,-523.873,0,0
158906,218.628,-522.424,0,0
159166,218.768,-521,0,0
159426,218.824,-519.521,0,0
159687,219.148,-518.137,0,0
159947,219.53,-517.092,0,0
160207,219.573,-516.065,0,0
160468,219.562,-514.731,0,0
160728,219.736,-513.421,0,0
160988,219.84,-511.916,0,0
161249,220.201,-510.136,0,0
161509,221.27,-508.564,0,0
161769,222.542,-507.431,0,0
162030,223.877,-506.604,0,0
162290,225.505,-506.559,0,0
162550,226.707,-507.237,0,0
162811,227.119,-508.232,0,0
163071,227.017,-509.729,0,0
163331,225.705,-511.078,0,0
163592,223.755,-511.686,0,0
163852,221.707,-511.81,0,0
164112,219.428,-511.773,0,0
164373,216.647,-511.152,0,0
164633,213.962,-509.978,0,0
164893,211.249,-508.317,0,0
165154,208.942,-506.186,0,0
165414,206.664,-504.158,0,0
165674,204.028,-502.009,0,0
165935,201.422,-499.113,0,0
166195,199.076,-495.789,0,0
166455,196.869,-492.093,0,0
166716,195.001,-488.071,0,0
166976,193.565,-483.968,0,0
167236,192.36,-479.655,0,0
167497,191.459,-475.298,0,0
167757,190.757,-470.925,0,0
168017,190.275,-466.475,0,0
168277,190.018,-461.897,0,0
168538,189.992,-457.256,0,0
168798,190.451,-452.607,0,0
169058,191.212,-448.128,0,0
169319,191.991,-444.169,0,0
169579,192.545,-440.218,0,0
169839,193.015,-436.02,0,0
170100,193.784,-431.77,0,0
170360.075,194.662,-427.644,0,0
170620.4,195.332,-423.633,0,0
170880.725,195.735,-419.297,0,0
171141.05,196.428,-414.423,0,0
171401.375,197.649,-409.337,0,0
171661.7,199.27,-404.519,0,0
171922.025,200.985,-399.831,0,0
172182.35,202.85,-395.178,0,0
172442.675,204.652,-390.629,0,0
172703.0,206.409,-385.878,0,0
172963.325,208.53,-380.941,0,0
173223.65,210.844,-375.932,0,0
173483.975,213.436,-370.901,0,0
173744.3,216.204,-365.95,0,0
174004.625,219.28,-360.985,0,0
174264.95,222.506,-356.047,0,0
174525.275,226.024,-350.973,0,0
174785.6,230.071,-345.947,0,0
175045.925,234.544,-341.117,0,0
175306.25,239.49,-336.665,0,0
175566.575,244.607,-332.76,0,0
175826.9,249.696,-329.29,0,0
176087.225,254.836,-326.054,0,0
176347.55,259.944,-323.084,0,0
176607.875,264.904,-320.468,0,0
176868.2,269.745,-317.65,0,0
177128.525,274.893,-314.774,0,0
177388.85,280.625,-312.173,0,0
177649.175,286.677,-310.244,0,0
177909.5,292.83,-309.252,0,0
178169.825,298.459,-309.072,0,0
178430.15,303.463,-309.232,0,0
178690.475,307.817,-309.722,0,0
178950.8,311.617,-310.426,0,0
179211.125,314.661,-311.084,0,0
179471.45,316.84,-311.464,0,0
179731.775,319.655,-310.413,0,0
179992.1,321.227,-310.228,0,0
180252.425,322.619,-309.315,0,0
180512.75,324.083,-308.073,0,0
180773.075,325.082,-306.618,0,0
181033.4,325.605,-304.202,0,0
181293.725,326.59,-300.775,0,0
181554.05,328.106,-296.735,0,0
181814.375,330.261,-292.264,0,0
182074.7,333.22,-287.501,0,0
182335.025,336.884,-283.165,0,0
182595.35,340.596,-279.067,0,0
182855.675,344.298,-274.947,0,0
183116.0,348.271,-270.6,0,0
183376.325,352.465,-265.998,0,0
183636.65,357.167,-261.241,0,0
183896.975,362.323,-256.603,0,0
184157.3,367.699,-251.977,0,0
184417.625,373.489,-247.093,0,0
184677.95,379.996,-242.08,0,0
184938.275,387.424,-237.504,0,0
185198.6,395.23,-233.659,0,0
185458.925,403.181,-230.149,0,0
185719.25,411.546,-226.979,0,0
185979.575,420.076,-224.459,0,0
186239.9,428.682,-222.464,0,0
186500,437.211,-221.211,0,0
186761,445.191,-220.392,0,0
187021,452.471,-219.221,0,0
187281,460.026,-217.184,0,0
187542,468.571,-215.151,0,0
187802,477.696,-213.794,0,0
188062,487.007,-213.139,0,0
188322,496.085,-213.283,0,0
188583,504.615,-213.612,0,0
188843,512.953,-213.899,0,0
189103,521.078,-214.246,0,0
189364,529.065,-214.482,0,0
189624,537.02,-214.355,0,0
189884,545.145,-213.864,0,0
190145,553.874,-213.083,0,0
190405,563.404,-212.592,0,0
190665,573.015,-212.596,0,0
190926,582.457,-212.428,0,0
191186,592.61,-211.639,0,0
191446,604.123,-211.135,0,0
191707,616.356,-211.628,0,0
191967,628.806,-212.828,0,0
192227,641.582,-214.478,0,0
192488,654.911,-216.672,0,0
192748,668.777,-219.699,0,0
193008,683.041,-223.61,0,0
193269,697.776,-228.655,0,0
193529,712.585,-235.172,0,0
193789,726.948,-243.136,0,0
194050,740.485,-252.054,0,0
194310,753.366,-261.543,0,0
194570,765.903,-271.653,0,0
194831,777.898,-282.376,0,0
195091,789.577,-293.684,0,0
195351,800.621,-305.751,0,0
195612,811.021,-318.534,0,0
195872,820.651,-331.897,0,0
196132,829.124,-345.543,0,0
196393,836.729,-359.082,0,0
196653,843.85,-372.314,0,0
196913,850.928,-385.398,0,0
197174,858.038,-398.7,0,0
197434,865.112,-412.559,0,0
197694,871.798,-426.988,0,0
197955,878.217,-441.812,0,0
198215,884.412,-457.579,0,0
198475,889.714,-474.464,0,0
198735,893.486,-491.963,0,0
198996,895.867,-509.292,0,0
199256,897.156,-526.043,0,0
199516,898.181,-542.438,0,0
199777,898.92,-558.762,0,0
200037,899.532,-575.266,0,0
200297,899.499,-592.43,0,0
200558,898.629,-610.124,0,0
200818,896.47,-628.065,0,0
201078,893.14,-645.897,0,0
201339,888.625,-663.365,0,0
201599,883.185,-680.735,0,0
201859,876.604,-697.624,0,0
202120,869.071,-713.846,0,0
202380.025,860.74,-729.252,0,0
202640.35,851.812,-744.195,0,0
202900.675,841.812,-758.518,0,0
203161.0,830.981,-772.096,0,0
203421.325,819.296,-784.353,0,0
203681.65,807.303,-795.044,0,0
203941.975,795.627,-804.424,0,0
204202.3,784.255,-813.244,0,0
204462.625,773.304,-821.343,0,0
204722.95,762.835,-829.061,0,0
204983.275,752.716,-837.026,0,0
205243.6,741.647,-845.492,0,0
205503.925,729.757,-853.207,0,0
205764.25,716.827,-859.747,0,0
206024.575,704.073,-864.703,0,0
206284.9,691.818,-868.816,0,0
206545.225,679.772,-872.323,0,0
206805.55,668.086,-874.883,0,0
207065.875,657.026,-876.443,0,0
207326.2,646.839,-877.709,0,0
207586.525,637.211,-878.933,0,0
207846.85,627.848,-879.987,0,0
208107.175,618.978,-880.654,0,0
208367.5,610.671,-881.154,0,0
208627.825,603.097,-881.683,0,0
208888.15,596.09,-882.589,0,0
209148.475,589.388,-883.986,0,0
209408.8,582.676,-885.932,0,0
209669.125,575.424,-888.567,0,0
209929.45,567.363,-891.215,0,0
210189.775,558.677,-893.388,0,0
210450.1,549.847,-894.895,0,0
210710.425,541.032,-895.974,0,0
210970.75,531.987,-896.902,0,0
211231.075,522.725,-897.309,0,0
211491.4,513.261,-897.04,0,0
211751.725,503.889,-895.875,0,0
212012.05,495.151,-893.879,0,0
212272.375,487.126,-891.514,0,0
212532.7,479.707,-889.157,0,0
212793.025,472.689,-887.076,0,0
213053.35,465.764,-884.656,0,0
213313.675,458.871,-882.24,0,0
213574.0,452.245,-879.514,0,0
213834.325,445.905,-876.598,0,0
214094.65,439.95,-873.565,0,0
214354.975,434.279,-870.41,0,0
214615.3,428.945,-867.094,0,0
214875.625,424.005,-863.86,0,0
215135.95,419.364,-860.813,0,0
215396.275,414.686,-857.948,0,0
215656.6,410.061,-854.848,0,0
215916.925,405.708,-851.628,0,0
216177.25,401.638,-848.268,0,0
216437.575,397.758,-845.002,0,0
216697.9,394.086,-841.69,0,0
216958.225,390.569,-838.326,0,0
217218.55,387.344,-834.952,0,0
217478.875,384.405,-831.556,0,0
217739.2,381.74,-828.196,0,0
217999.525,379.296,-825.042,0,0
218259.85,376.992,-821.993,0,0
218520,374.884,-819.011,0,0
218780,372.895,-816.063,0,0
219041,371.087,-813.248,0,0
219301,369.462,-810.606,0,0
219561,367.947,-807.998,0,0
219822,366.564,-805.42,0,0
220082,365.308,-803.064,0,0
220342,364.094,-800.876,0,0
220603,362.921,-798.811,0,0
220863,361.745,-796.787,0,0
221123,360.64,-794.613,0,0
221384,359.769,-792.483,0,0
221644,359.062,-790.459,0,0
221904,358.651,-788.492,0,0
222165,358.317,-786.819,0,0
222425,358.229,-785.406,0,0
222685,358.123,-784.312,0,0
222946,357.932,-783.345,0,0
223206,357.833,-782.716,0,0
223466,357.684,-782.201,0,0
223727,357.262,-781.941,0,0
223987,356.597,-781.752,0,0
224247,356.039,-781.554,0,0
224508,355.389,-781.401,0,0
224768,354.51,-781.382,0,0
225028,353.457,-781.245,0,0
225289,352.388,-781.006,0,0
225549,351.465,-780.565,0,0
225809,350.614,-780.232,0,0
226070,349.944,-779.767,0,0
226330,349.378,-779.532,0,0
226590,348.861,-779.314,0,0
226851,348.448,-779.229,0,0
227111,348.213,-779.232,0,0
227371,348.029,-779.506,0,0
227632,347.817,-780.037,0,0
227892,347.625,-780.711,0,0
228152,347.425,-781.674,0,0
228413,347.139,-783.015,0,0
228673,346.687,-784.526,0,0
228933,345.934,-786.379,0,0
229193,344.859,-788.313,0,0
229454,343.473,-790.429,0,0
229714,341.718,-792.457,0,0
229974,339.722,-794.55,0,0
230235,337.44,-796.488,0,0
230495,334.934,-798.275,0,0
230755,332.205,-799.998,0,0
231016,329.314,-801.495,0,0
231276,326.18,-802.854,0,0
231536,322.987,-803.971,0,0
231797,319.82,-804.952,0,0
232057,316.645,-805.839,0,0
232317,313.346,-806.659,0,0
232578,309.951,-807.261,0,0
232838,306.545,-807.735,0,0
233098,303.173,-808.07,0,0
233359,299.769,-808.352,0,0
233619,296.193,-808.53,0,0
233879,292.765,-808.54,0,0
234140,289.396,-808.394,0,0
234400,285.938,-808.209,0,0
234660.3,282.508,-807.865,0,0
234920.625,279.201,-807.513,0,0
235180.95,275.913,-807.2,0,0
235441.275,272.65,-806.746,0,0
235701.6,269.232,-806.183,0,0
235961.925,265.879,-805.697,0,0
236222.25,262.539,-804.965,0,0
236482.575,259.257,-804.258,0,0
236742.9,255.913,-803.501,0,0
237003.225,252.471,-802.626,0,0
237263.55,249.077,-801.653,0,0
237523.875,245.641,-800.547,0,0
237784.2,242.288,-799.306,0,0
238044.525,239.038,-797.901,0,0
238304.85,235.797,-796.423,0,0
238565.175,232.683,-794.955,0,0
238825.5,229.594,-793.438,0,0
239085.825,226.604,-791.785,0,0
239346.15,223.455,-790.136,0,0
239606.475,220.491,-788.264,0,0
239866.8,217.571,-786.297,0,0
240127.125,214.951,-784.294,0,0
240387.45,212.297,-782.265,0,0
240647.775,209.825,-780.291,0,0
240908.1,207.387,-778.169,0,0
241168.425,205.131,-776.168,0,0
241428.75,202.942,-774.216,0,0
241689.075,200.727,-772.258,0,0
241949.4,198.569,-770.284,0,0
242209.725,196.476,-768.187,0,0
242470.05,194.441,-766.056,0,0
242730.375,192.636,-764.003,0,0
242990.7,190.867,-762.058,0,0
243251.025,189.236,-760.269,0,0
243511.35,187.521,-758.594,0,0
243771.675,185.773,-756.867,0,0
244032.0,184.004,-755.173,0,0
244292.325,182.315,-753.387,0,0
244552.65,180.497,-751.77,0,0
244812.975,178.824,-750.144,0,0
245073.3,177.295,-748.68,0,0
245333.625,175.468,-747.26,0,0
245593.95,173.61,-745.839,0,0
245854.275,171.765,-744.511,0,0
246114.6,169.752,-743.17,0,0
246374.925,167.703,-741.867,0,0
246635.25,165.332,-740.609,0,0
246895.575,162.793,-739.187,0,0
247155.9,160.112,-737.482,0,0
247416.225,157.405,-735.552,0,0
247676.55,154.738,-733.35,0,0
247936.875,152.194,-730.994,0,0
248197.2,149.789,-728.491,0,0
248457.525,147.519,-725.889,0,0
248717.85,145.244,-723.276,0,0
248978.175,143.114,-720.61,0,0
249238.5,141.002,-717.772,0,0
249498.825,139.065,-714.858,0,0
249759.15,137.116,-711.93,0,0
250019.475,135.298,-708.968,0,0
250279.8,133.602,-705.967,0,0
250540,131.937,-702.845,0,0
250800,130.339,-699.612,0,0
251061,128.87,-696.279,0,0
251321,127.59,-692.928,0,0
251581,126.472,-689.494,0,0
251842,125.52,-686.155,0,0
252102,124.7,-682.746,0,0
252362,124.006,-679.421,0,0
252623,123.452,-676.131,0,0
252883,122.957,-672.909,0,0
253143,122.588,-669.735,0,0
253404,122.244,-666.672,0,0
253664,121.911,-663.564,0,0
253924,121.678,-660.462,0,0
254185,121.42,-657.464,0,0
254445,121.307,-654.391,0,0
254705,121.235,-651.37,0,0
254966,121.213,-648.258,0,0
255226,121.121,-645.094,0,0
255486,121.326,-641.986,0,0
255747,121.569,-638.745,0,0
256007,122.062,-635.587,0,0
256267,122.691,-632.468,0,0
256528,123.452,-629.452,0,0
256788,124.299,-626.576,0,0
257048,125.232,-623.783,0,0
257309,126.192,-621.09,0,0
257569,127.231,-618.456,0,0
257829,128.302,-615.897,0,0
258090,129.391,-613.39,0,0
258350,130.575,-610.941,0,0
258610,131.768,-608.556,0,0
258871,133.067,-606.174,0,0
259131,134.452,-603.875,0,0
259391,135.848,-601.635,0,0
259651,137.405,-599.445,0,0
259912,139.166,-597.404,0,0
260172,140.795,-595.505,0,0
260432,142.575,-593.645,0,0
260693,144.376,-591.971,0,0
260953,146.21,-590.373,0,0
261213,148.076,-588.897,0,0
261474,149.974,-587.566,0,0
261734,151.865,-586.366,0,0
261994,153.777,-585.287,0,0
262255,155.625,-584.332,0,0
262515,157.47,-583.47,0,0
262775,159.293,-582.713,0,0
263036,161.105,-582.029,0,0
263296,162.928,-581.389,0,0
263556,164.738,-580.935,0,0
263817,166.558,-580.57,0,0
264077,168.328,-580.366,0,0
264337,170.078,-580.306,0,0
264598,171.677,-580.4,0,0
264858,173.189,-580.541,0,0
265118,174.614,-580.878,0,0
265379,175.815,-581.28,0,0
265639,176.9,-581.69,0,0
265899,177.784,-582.13,0,0
266160,178.514,-582.477,0,0
266420,179.21,-582.671,0,0
266680.25,179.861,-582.848,0,0
266940.575,180.577,-582.98,0,0
267200.9,181.331,-583.154,0,0
267461.225,182.037,-583.407,0,0
267721.55,182.685,-583.682,0,0
267981.875,183.244,-584.038,0,0
268242.2,183.679,-584.392,0,0
268502.525,183.996,-584.76,0,0
268762.85,184.187,-585.045,0,0
269023.175,184.252,-585.248,0,0
269283.5,184.269,-585.298,0,0
269543.825,184.282,-585.177,0,0
269804.15,184.288,-584.963,0,0
270064.475,184.385,-584.591,0,0
270324.8,184.528,-584.161,0,0
270585.125,184.802,-583.595,0,0
270845.45,185.155,-582.968,0,0
271105.775,185.689,-582.275,0,0
271366.1,186.438,-581.622,0,0
271626.425,187.318,-581.021,0,0
271886.75,188.279,-580.508,0,0
272147.075,189.323,-580.025,0,0
272407.4,190.436,-579.54,0,0
272667.725,191.722,-579.154,0,0
272928.05,193.177,-578.8,0,0
273188.375,194.745,-578.599,0,0
273448.7,196.503,-578.47,0,0
273709.025,198.441,-578.506,0,0
273969.35,200.548,-578.798,0,0
274229.675,202.809,-579.336,0,0
274490.0,205.279,-580.279,0,0
274750.325,207.707,-581.656,0,0
275010.65,210.083,-583.406,0,0
275270.975,212.316,-585.671,0,0
275531.3,214.369,-588.339,0,0
275791.625,216.094,-591.467,0,0
276051.95,217.344,-594.942,0,0
276312.275,218.143,-598.692,0,0
276572.6,218.323,-602.603,0,0
276832.925,217.947,-606.516,0,0
277093.25,216.962,-610.282,0,0
277353.575,215.528,-613.836,0,0
277613.9,213.722,-617.065,0,0
277874.225,211.642,-619.99,0,0
278134.55,209.359,-622.591,0,0
278394.875,206.96,-624.903,0,0
278655.2,204.512,-626.926,0,0
278915.525,202.02,-628.763,0,0
279175.85,199.463,-630.416,0,0
279436.175,196.813,-631.92,0,0
279696.5,194.137,-633.237,0,0
279956.825,191.385,-634.402,0,0
280217.15,188.514,-635.345,0,0
280477.475,185.729,-636.004,0,0
280737.8,183.012,-636.486,0,0
280998.125,180.384,-636.868,0,0
281258.45,177.861,-637.205,0,0
281518.775,175.361,-637.557,0,0
281779.1,172.759,-637.917,0,0
282039.425,170.049,-638.233,0,0
282299.75,167.179,-638.417,0,0
282560,164.161,-638.432,0,0
282820,161.044,-638.175,0,0
283081,157.891,-637.579,0,0
283341,154.867,-636.606,0,0
283601,152.053,-635.324,0,0
283862,149.587,-633.855,0,0
284122,147.522,-632.456,0,0
284382,145.638,-631.266,0,0
284643,143.802,-630.293,0,0
284903,141.878,-629.49,0,0
285163,139.659,-628.72,0,0
285424,137.246,-627.854,0,0
285684,134.568,-626.846,0,0
285944,131.913,-625.457,0,0
286205,129.167,-623.827,0,0
286465,126.465,-621.904,0,0
286725,123.832,-619.658,0,0
286986,121.399,-617.064,0,0
287246,119.174,-614.241,0,0
287506,117.186,-611.181,0,0
287767,115.5,-607.959,0,0
288027,114.069,-604.591,0,0
288287,112.93,-601.106,0,0
288548,112.052,-597.504,0,0
288808,111.521,-593.725,0,0
289068,111.404,-589.858,0,0
289329,111.803,-585.925,0,0
289589,112.716,-582.095,0,0
289849,114.131,-578.574,0,0
290109,115.959,-575.323,0,0
290370,118.117,-572.434,0,0
290630,120.539,-569.945,0,0
290890,123.14,-567.86,0,0
291151,125.889,-566.171,0,0
291411,128.835,-564.914,0,0
291671,131.828,-564.173,0,0
291932,134.815,-563.929,0,0
292192,137.689,-564.207,0,0
292452,140.385,-565.031,0,0
292713,142.722,-566.34,0,0
292973,144.577,-568.089,0,0
293233,145.845,-570.032,0,0
293494,146.45,-572.066,0,0
293754,146.499,-573.879,0,0
294014,146.153,-575.417,0,0
294275,145.527,-576.57,0,0
294535,144.778,-577.343,0,0
294795,144.074,-577.736,0,0
295056,143.502,-577.789,0,0
295316,143.205,-577.611,0,0
295576,143.274,-577.315,0,0
295837,143.751,-577.161,0,0
296097,144.624,-577.301,0,0
296357,145.66,-577.89,0,0
296618,146.67,-579.137,0,0
296878,147.325,-580.91,0,0
297138,147.435,-582.983,0,0
297399,146.997,-585.152,0,0
297659,146.038,-587.211,0,0
297919,144.64,-589.037,0,0
298180,142.995,-590.537,0,0
298440,141.164,-591.724,0,0
298700.2,139.268,-592.63,0,0
298960.525,137.383,-593.269,0,0
299220.85,135.552,-593.771,0,0
299481.175,133.704,-594.141,0,0
299741.5,131.866,-594.43,0,0
300001.825,129.966,-594.588,0,0
300262.15,127.973,-594.578,0,0
300522.475,126.051,-594.367,0,0
300782.8,124.119,-593.942,0,0
301043.125,122.306,-593.303,0,0
301303.45,120.667,-592.483,0,0
301563.775,119.242,-591.538,0,0
301824.1,118.08,-590.541,0,0
302084.425,117.133,-589.602,0,0
302344.75,116.414,-588.763,0,0
302605.075,115.82,-588.098,0,0
302865.4,115.321,-587.663,0,0
303125.725,114.799,-587.412,0,0
303386.05,114.194,-587.323,0,0
303646.375,113.495,-587.368,0,0
303906.7,112.654,-587.502,0,0
304167.025,111.7,-587.718,0,0
304427.35,110.555,-587.919,0,0
304687.675,109.249,-588.139,0,0
304948.0,107.768,-588.291,0,0
305208.325,106.157,-588.307,0,0
305468.65,104.448,-588.183,0,0
305728.975,102.694,-587.926,0,0
305989.3,100.92,-587.544,0,0
306249.625,99.1256,-587.026,0,0
306509.95,97.3341,-586.402,0,0
306770.275,95.5567,-585.635,0,0
307030.6,93.8213,-584.755,0,0
307290.925,92.146,-583.762,0,0
307551.25,90.5754,-582.674,0,0
307811.575,89.0697,-581.525,0,0
308071.9,87.6634,-580.34,0,0
308332.225,86.3379,-579.139,0,0
308592.55,85.0686,-577.904,0,0
308852.875,83.8795,-576.662,0,0
309113.2,82.733,-575.429,0,0
309373.525,81.6598,-574.202,0,0
309633.85,80.6094,-573,0,0
309894.175,79.5847,-571.798,0,0
310154.5,78.562,-570.604,0,0
310414.825,77.5559,-569.4,0,0
310675.15,76.5622,-568.163,0,0
310935.475,75.5743,-566.895,0,0
311195.8,74.6294,-565.599,0,0
311456.125,73.7294,-564.285,0,0
311716.45,72.8662,-562.961,0,0
311976.775,72.0505,-561.606,0,0
312237.1,71.2807,-560.277,0,0
312497.425,70.5497,-558.91,0,0
312757.75,69.8713,-557.573,0,0
313018.075,69.2328,-556.223,0,0
313278.4,68.6395,-554.914,0,0
313538.725,68.0913,-553.611,0,0
313799.05,67.5579,-552.359,0,0
314059.375,67.0325,-551.138,0,0
314319.7,66.4858,-549.925,0,0
314580,65.9353,-548.731,0,0
314840,65.3629,-547.502,0,0
315101,64.8221,-546.266,0,0
315361,64.3061,-545.05,0,0
315621,63.7828,-543.735,0,0
315882,63.3035,-542.579,0,0
316142,62.8228,-541.249,0,0
316402,62.3517,-539.958,0,0
316663,61.9617,-538.654,0,0
316923,61.6356,-537.441,0,0
317183,61.2836,-536.093,0,0
317444,60.9727,-534.857,0,0
317704,60.6627,-533.514,0,0
317964,60.4657,-532.314,0,0
318225,60.1816,-531.042,0,0
318485,60.0822,-529.908,0,0
318745,59.8448,-528.718,0,0
319006,59.6862,-527.54,0,0
319266,59.4948,-526.451,0,0
319526,59.3311,-525.38,0,0
319787,59.0824,-524.229,0,0
320047,58.906,-523.112,0,0
320307,58.7596,-522.063,0,0
320567,58.5383,-520.975,0,0
320828,58.3085,-519.847,0,0
321088,58.1518,-518.743,0,0
321348,57.9992,-517.666,0,0
321609,57.8279,-516.575,0,0
321869,57.6524,-515.541,0,0
322129,57.5138,-514.398,0,0
322390,57.2941,-513.284,0,0
322650,57.2318,-512.18,0,0
322910,56.9942,-511.09,0,0
323171,56.8717,-509.967,0,0
323431,56.7831,-508.858,0,0
323691,56.5979,-507.59,0,0
323952,56.4897,-506.387,0,0
324212,56.373,-505.129,0,0
324472,56.3531,-503.866,0,0
324733,56.4027,-502.506,0,0
324993,56.576,-501.19,0,0
325253,56.6626,-499.798,0,0
325514,57.055,-498.49,0,0
325774,57.4354,-497.126,0,0
326034,57.9911,-495.91,0,0
326295,58.5603,-494.755,0,0
326555,59.208,-493.726,0,0
326815,59.934,-492.827,0,0
327076,60.6379,-492.051,0,0
327336,61.2902,-491.421,0,0
327596,61.8458,-490.846,0,0
327857,62.4114,-490.361,0,0
328117,62.8741,-489.898,0,0
328377,63.2842,-489.368,0,0
328638,63.6848,-488.977,0,0
328898,64.0674,-488.571,0,0
329158,64.3829,-488.136,0,0
329419,64.7328,-487.698,0,0
329679,65.1523,-487.415,0,0
329939,65.4372,-487.045,0,0
330200,65.7449,-486.856,0,0
330460,66.0532,-486.534,0,0
330720.15,66.2936,-486.397,0,0
330980.475,66.4547,-486.248,0,0
331240.8,66.6072,-486.175,0,0
331501.125,66.69,-486.089,0,0
331761.45,66.7095,-486.056,0,0
332021.775,66.6708,-486.053,0,0
332282.1,66.5421,-486.069,0,0
332542.425,66.3348,-486.048,0,0
332802.75,66.0085,-485.982,0,0
333063.075,65.6136,-485.912,0,0
333323.4,65.1342,-485.746,0,0
333583.725,64.6607,-485.53,0,0
333844.05,64.1286,-485.266,0,0
334104.375,63.5808,-484.848,0,0
334364.7,62.9898,-484.436,0,0
334625.025,62.5167,-483.844,0,0
334885.35,62.0116,-483.304,0,0
335145.675,61.5215,-482.725,0,0
335406.0,61.1122,-482.106,0,0
335666.325,60.7003,-481.458,0,0
335926.65,60.2588,-480.794,0,0
336186.975,59.9339,-480.156,0,0
336447.3,59.4636,-479.465,0,0
336707.625,59.1493,-478.795,0,0
336967.95,58.7225,-478.08,0,0
337228.275,58.386,-477.36,0,0
337488.6,58.1061,-476.575,0,0
337748.925,57.7567,-475.854,0,0
338009.25,57.4569,-475.086,0,0
338269.575,57.1561,-474.291,0,0
338529.9,56.8299,-473.455,0,0
338790.225,56.5358,-472.677,0,0
339050.55,56.3345,-471.868,0,0
339310.875,56.0868,-471.04,0,0
339571.2,55.8447,-470.203,0,0
339831.525,55.661,-469.377,0,0
340091.85,55.4255,-468.523,0,0
340352.175,55.256,-467.63,0,0
340612.5,55.1358,-466.809,0,0
340872.825,54.9778,-465.979,0,0
341133.15,54.9091,-465.127,0,0
341393.475,54.8175,-464.216,0,0
341653.8,54.7001,-463.4,0,0
341914.125,54.6841,-462.555,0,0
342174.45,54.5607,-461.692,0,0
342434.775,54.506,-460.865,0,0
342695.1,54.4653,-459.962,0,0
342955.425,54.4058,-459.143,0,0
343215.75,54.3954,-458.238,0,0
343476.075,54.3983,-457.398,0,0
343736.4,54.4234,-456.511,0,0
343996.725,54.4576,-455.642,0,0
344257.05,54.5142,-454.784,0,0
344517.375,54.5943,-453.903,0,0
344777.7,54.7039,-453.025,0,0
345038.025,54.8288,-452.121,0,0
345298.35,54.9984,-451.324,0,0
345558.675,55.2084,-450.506,0,0
345819.0,55.3152,-449.713,0,0
346079.325,55.5512,-448.885,0,0
346339.65,55.7434,-448.101,0,0
346599.975,56.0092,-447.377,0,0
346860,56.2198,-446.599,0,0
347121,56.4688,-445.863,0,0
347381,56.7472,-445.142,0,0
347641,56.97,-444.442,0,0
347902,57.2531,-443.777,0,0
348162,57.5608,-443.053,0,0
348422,57.8651,-442.384,0,0
348683,58.1361,-441.716,0,0
348943,58.4816,-441.134,0,0
349203,58.7883,-440.492,0,0
349464,59.0828,-439.884,0,0
349724,59.4368,-439.306,0,0
349984,59.8058,-438.829,0,0
350245,60.1286,-438.231,0,0
350505,60.4702,-437.772,0,0
350765,60.7763,-437.258,0,0
351025,61.0674,-436.814,0,0
351286,61.4339,-436.384,0,0
351546,61.7204,-435.97,0,0
351806,61.9887,-435.572,0,0
352067,62.2294,-435.216,0,0
352327,62.4473,-434.827,0,0
352587,62.7148,-434.42,0,0
352848,62.8706,-433.975,0,0
353108,63.0955,-433.569,0,0
353368,63.3425,-433.151,0,0
353629,63.5568,-432.676,0,0
353889,63.8053,-432.299,0,0
354149,64.0468,-431.883,0,0
354410,64.2508,-431.485,0,0
354670,64.5216,-431.116,0,0
354930,64.7245,-430.734,0,0
355191,64.9927,-430.314,0,0
355451,65.1994,-429.923,0,0
355711,65.4753,-429.525,0,0
355972,65.7273,-429.17,0,0
356232,65.9676,-428.8,0,0
356492,66.2651,-428.396,0,0
356753,66.5503,-428.007,0,0
357013,66.9021,-427.69,0,0
357273,67.1756,-427.377,0,0
357534,67.5493,-427.088,0,0
357794,67.884,-426.806,0,0
358054,68.2167,-426.533,0,0
358315,68.5762,-426.303,0,0
358575,68.9236,-426.102,0,0
358835,69.2951,-425.972,0,0
359096,69.581,-425.895,0,0
359356,69.9561,-425.833,0,0
359616,70.2304,-425.767,0,0
359877,70.5059,-425.821,0,0
360137,70.7099,-425.844,0,0
360397,70.8751,-425.898,0,0
360658,71.0306,-425.912,0,0
360918,71.153,-425.944,0,0
361178,71.2222,-426.014,0,0
361438,71.3443,-426.031,0,0
361699,71.3715,-426.084,0,0
361959,71.3506,-426.139,0,0
362219,71.327,-426.138,0,0
362480,71.2542,-426.211,0,0
362740.1,71.2216,-426.246,0,0
363000.425,71.1024,-426.26,0,0
363260.75,70.9707,-426.258,0,0
363521.075,70.8244,-426.214,0,0
363781.4,70.6452,-426.176,0,0
364041.725,70.5012,-426.172,0,0
364302.05,70.2977,-426.068,0,0
364562.375,70.1366,-425.951,0,0
364822.7,69.9036,-425.899,0,0
365083.025,69.7517,-425.837,0,0
365343.35,69.5173,-425.733,0,0
365603.675,69.2042,-425.586,0,0
365864.0,68.9873,-425.406,0,0
366124.325,68.7132,-425.209,0,0
366384.65,68.4043,-425.023,0,0
366644.975,68.2006,-424.698,0,0
366905.3,67.9452,-424.405,0,0
367165.625,67.7024,-424.081,0,0
367425.95,67.5608,-423.791,0,0
367686.275,67.4046,-423.429,0,0
367946.6,67.2651,-423.125,0,0
368206.925,67.1748,-422.813,0,0
368467.25,67.1718,-422.496,0,0
368727.575,67.1249,-422.188,0,0
368987.9,67.1086,-421.951,0,0
369248.225,67.1192,-421.697,0,0
369508.55,67.0935,-421.525,0,0
369768.875,67.0681,-421.441,0,0
370029.2,67.041,-421.347,0,0
370289.525,66.9664,-421.299,0,0
370549.85,66.8272,-421.267,0,0
370810.175,66.6128,-421.215,0,0
371070.5,66.3377,-421.141,0,0
371330.825,66.0844,-421.044,0,0
371591.15,65.7752,-420.897,0,0
371851.475,65.4873,-420.771,0,0
372111.8,65.1819,-420.481,0,0
372372.125,64.9014,-420.268,0,0
372632.45,64.625,-419.992,0,0
372892.775,64.4155,-419.771,0,0
373153.1,64.1952,-419.49,0,0
373413.425,63.9901,-419.233,0,0
373673.75,63.7797,-419.017,0,0
373934.075,63.6572,-418.831,0,0
374194.4,63.3831,-418.627,0,0
374454.725,63.1961,-418.482,0,0
374715.05,62.9244,-418.325,0,0
374975.375,62.6405,-418.127,0,0
375235.7,62.33,-417.993,0,0
375496.025,61.9748,-417.846,0,0
375756.35,61.6411,-417.617,0,0
376016.675,61.2612,-417.387,0,0
376277.0,60.8653,-417.101,0,0
376537.325,60.5442,-416.802,0,0
376797.65,60.2287,-416.494,0,0
377057.975,59.8954,-416.186,0,0
377318.3,59.5972,-415.871,0,0
377578.625,59.2985,-415.595,0,0
377838.95,59.0189,-415.365,0,0
378099.275,58.7107,-415.097,0,0
378359.6,58.3555,-414.916,0,0
378619.925,57.9553,-414.693,0,0
378880,57.4945,-414.533,0,0
379141,56.9536,-414.284,0,0
379401,56.3677,-414.001,0,0
379661,55.7524,-413.645,0,0
379922,55.1334,-413.111,0,0
380182,54.5297,-412.452,0,0
380442,53.9871,-411.705,0,0
380703,53.6148,-410.931,0,0
380963,53.3732,-410.132,0,0
381223,53.2271,-409.409,0,0
381483,53.2317,-408.708,0,0
381744,53.2391,-408.204,0,0
382004,53.255,-407.799,0,0
382264,53.2237,-407.446,0,0
382525,53.1271,-407.146,0,0
382785,52.9169,-406.916,0,0
383045,52.6262,-406.687,0,0
383306,52.3936,-406.408,0,0
383566,52.04,-406.131,0,0
383826,51.6698,-405.818,0,0
384087,51.2848,-405.42,0,0
384347,50.8681,-405.053,0,0
384607,50.4202,-404.62,0,0
384868,50.0035,-404.142,0,0
385128,49.5732,-403.642,0,0
385388,49.099,-403.103,0,0
385649,48.7367,-402.501,0,0
385909,48.359,-401.957,0,0
386169,47.9623,-401.333,0,0
386430,47.592,-400.711,0,0
386690,47.2959,-400.088,0,0
386950,46.9736,-399.392,0,0
387211,46.684,-398.726,0,0
387471,46.393,-398.054,0,0
387731,46.1338,-397.358,0,0
387992,45.9632,-396.685,0,0
388252,45.7072,-395.981,0,0
388512,45.5472,-395.27,0,0
388773,45.3851,-394.562,0,0
389033,45.1773,-393.831,0,0
389293,45.121,-393.115,0,0
389554,45.0272,-392.411,0,0
389814,44.9669,-391.763,0,0
390074,44.9635,-391.083,0,0
390335,44.9822,-390.411,0,0
390595,45.0418,-389.81,0,0
390855,45.0349,-389.289,0,0
391116,45.1345,-388.799,0,0
391376,45.132,-388.32,0,0
391636,45.1207,-387.902,0,0
391896,45.0825,-387.523,0,0
392157,44.9711,-387.183,0,0
392417,44.8427,-386.842,0,0
392677,44.5882,-386.444,0,0
392938,44.3397,-386.07,0,0
393198,44.0499,-385.663,0,0
393458,43.7515,-385.183,0,0
393719,43.4053,-384.693,0,0
393979,43.0677,-384.103,0,0
394239,42.7074,-383.517,0,0
394500,42.3798,-382.885,0,0
394760.05,42.0587,-382.192,0,0
395020.375,41.7842,-381.45,0,0
395280.7,41.4743,-380.652,0,0
395541.025,41.23,-379.908,0,0
395801.35,41.0569,-379.048,0,0
396061.675,40.8896,-378.222,0,0
396322.0,40.7996,-377.391,0,0
396582.325,40.6938,-376.576,0,0
396842.65,40.6043,-375.76,0,0
397102.975,40.5849,-374.919,0,0
397363.3,40.6248,-374.118,0,0
397623.625,40.6138,-373.339,0,0
397883.95,40.6644,-372.517,0,0
398144.275,40.7359,-371.733,0,0
398404.6,40.8134,-370.97,0,0
398664.925,40.8994,-370.254,0,0
398925.25,41.0391,-369.496,0,0
399185.575,41.1339,-368.808,0,0
399445.9,41.3119,-368.061,0,0
399706.225,41.4477,-367.411,0,0
399966.55,41.5767,-366.717,0,0
400006.6,41.6043,-366.622,0,0