File: Accelerated corrosion test data/2025-10-09_06-00-03/sample_4.csv
Frequency (Hz),Impedance (ohms),Phase (Radians),Temperature (C),Humidity (%)
10000.0,264.898,-11866.6,0,0
10260.325,261.995,-11567.4,0,0
10520.65,252.04,-11283.8,0,0
10780.975,246.39,-11013.9,0,0
11041.3,240.568,-10755.5,0,0
11301.625,235.738,-10512.5,0,0
11561.95,229.641,-10276.7,0,0
11822.275,225.614,-10051.8,0,0
12082.6,221.375,-9836.92,0,0
12342.925,216.468,-9630.57,0,0
12603.25,213.993,-9431.29,0,0
12863.575,209.817,-9245.41,0,0
13123.9,208.978,-9066.13,0,0
13384.225,200.429,-8887.23,0,0
13644.55,196.773,-8716.62,0,0
13904.875,194.224,-8551.53,0,0
14165.2,194.727,-8389.28,0,0
14425.525,199.147,-8240.52,0,0
14685.8,201.169,-8126.67,0,0
14946.175,183.545,-7971.72,0,0
15206.5,181.539,-7827.4,0,0
15466.825,189.423,-7683.93,0,0
15727.15,191.285,-7582.89,0,0
15987.5,187.868,-7468.51,0,0
16247.8,171.689,-7339.49,0,0
16508.125,188.974,-7212.24,0,0
16768.45,179.633,-7111.39,0,0
17028.775,172.447,-7024.48,0,0
17289.1,161.257,-6910.82,0,0
17549.425,159.675,-6806.99,0,0
17809.75,156.695,-6705.52,0,0
18070.075,153.475,-6606.87,0,0
18330.4,154.805,-6511.13,0,0
18590.725,153.829,-6423.29,0,0
18851.05,150.185,-6338.15,0,0
19111.375,146.088,-6249.58,0,0
19371.7,143.696,-6164.14,0,0
19632.025,142.207,-6079.89,0,0
19892.35,144.641,-5999.27,0,0
20152.675,144.492,-5922.85,0,0
20413.0,141.282,-5849.44,0,0
20673.3,141.116,-5774.76,0,0
20933.65,137.732,-5701.1,0,0
21193.975,141.145,-5626.53,0,0
21454.3,152.536,-5560.91,0,0
21714.625,145.31,-5504.35,0,0
21974.9,150.928,-5433.35,0,0
22235.275,149.377,-5386.44,0,0
22495.6,136.822,-5331.15,0,0
22755.925,129.241,-5267.04,0,0
23016.25,125.683,-5204.74,0,0
23276.6,123.416,-5144.45,0,0
23536.9,121.643,-5087.2,0,0
23797.225,119.511,-5030.36,0,0
24057.55,117.656,-4974.61,0,0
24317.875,116.648,-4919.7,0,0
24578.2,115.568,-4866.6,0,0
24838.525,115.124,-4814.89,0,0
25098.85,115.454,-4763.8,0,0
25359.175,113.78,-4716.79,0,0
25619.5,112.934,-4667.36,0,0
25879.8,111.514,-4622.73,0,0
26140.1,108.314,-4574.75,0,0
26400.5,107.864,-4528.43,0,0
26660.8,106.934,-4481.74,0,0
26921.1,107.354,-4437.75,0,0
27181.4,106.009,-4393.69,0,0
27441.8,106.439,-4348.84,0,0
27702.1,110.017,-4304.32,0,0
27962.4,117.252,-4263.36,0,0
28222.7,120.111,-4234.04,0,0
28483.1,113.679,-4199.42,0,0
28743.4,110.937,-4159.2,0,0
29003.7,113.425,-4119.1,0,0
29264,117.167,-4086.89,0,0
29524.4,114.211,-4055.85,0,0
29784.7,108.569,-4024.3,0,0
30045,107.911,-3988.22,0,0
30305.3,102.454,-3954.19,0,0
30565.7,100.222,-3918.21,0,0
30826,99.2365,-3883.91,0,0
31086.3,98.4673,-3849.79,0,0
31346.6,99.7904,-3816.95,0,0
31607,98.1132,-3786.48,0,0
31867.3,97.5552,-3754.05,0,0
32127.6,100.237,-3723.86,0,0
32387.9,97.9728,-3697.44,0,0
32648.3,97.3859,-3667.32,0,0
32908.6,95.3047,-3640.48,0,0
33168.9,93.2929,-3611.69,0,0
33429.2,90.6864,-3583.02,0,0
33689.6,88.7561,-3554.11,0,0
33949.9,88.0214,-3525.56,0,0
34210.2,88.2767,-3497.99,0,0
34470.5,86.6733,-3472.06,0,0
34730.9,85.4626,-3444.58,0,0
34991.2,85.1232,-3418.05,0,0
35251.5,84.408,-3392.37,0,0
35511.8,83.6267,-3367.08,0,0
35772.2,82.9388,-3341.86,0,0
36032.5,82.3487,-3317.4,0,0
36292.8,81.3198,-3292.48,0,0
36553.1,81.004,-3268.25,0,0
36813.5,80.979,-3244.07,0,0
37073.8,81.2566,-3221.28,0,0
37334.1,80.023,-3198.69,0,0
37594.4,79.348,-3175.54,0,0
37854.8,79.4757,-3153.05,0,0
38115.1,78.3351,-3131.26,0,0
38375.4,77.8253,-3108.88,0,0
38635.7,77.4375,-3086.9,0,0
38896.1,77.8973,-3065.54,0,0
39156.4,77.3827,-3044.76,0,0
39416.7,76.7203,-3023.59,0,0
39677,76.7866,-3002.17,0,0
39937.4,77.2475,-2981.35,0,0
40197.7,78.6961,-2960.7,0,0
40458,80.7377,-2942.04,0,0
40718.3,79.54,-2924.78,0,0
40978.7,79.7382,-2904.71,0,0
41239,80.4482,-2886.49,0,0
41499.3,82.5074,-2870.6,0,0
41759.6,79.1619,-2853.71,0,0
42020,78.0847,-2835.38,0,0
42280.275,77.3248,-2816.07,0,0
42540.6,79.1957,-2799.12,0,0
42800.925,78.0395,-2784.46,0,0
43061.25,76.0917,-2766.08,0,0
43321.575,76.0113,-2749.63,0,0
43581.9,74.9928,-2732.79,0,0
43842.225,74.2364,-2715.51,0,0
44102.55,73.7188,-2699.64,0,0
44362.875,72.9172,-2682.7,0,0
44623.2,72.7636,-2666.24,0,0
44883.525,72.4636,-2650.55,0,0
45143.85,71.5622,-2634.4,0,0
45404.175,70.9668,-2617.86,0,0
45664.5,72.0196,-2601.4,0,0
45924.825,73.0233,-2587.59,0,0
46185.15,71.1693,-2573.59,0,0
46445.475,70.6067,-2556.98,0,0
46705.8,71.8548,-2542.24,0,0
46966.125,71.8373,-2528.56,0,0
47226.45,72.1315,-2514.07,0,0
47486.775,71.8402,-2501.56,0,0
47747.1,70.3714,-2487.56,0,0
48007.425,69.6039,-2473.62,0,0
48267.75,68.6288,-2459.76,0,0
48528.075,68.2371,-2445.87,0,0
48788.4,67.4068,-2432.45,0,0
49048.725,66.244,-2418.43,0,0
49309.05,66.4259,-2404.42,0,0
49569.375,65.8061,-2391.57,0,0
49829.7,65.2781,-2377.45,0,0
50090.025,65.0918,-2364.5,0,0
50350.35,64.8775,-2351.05,0,0
50610.675,64.6492,-2338.07,0,0
50871.0,64.2794,-2325.02,0,0
51131.325,64.1508,-2312.14,0,0
51391.65,64.1161,-2299.19,0,0
51651.975,64.0963,-2286.53,0,0
51912.3,64.0218,-2273.84,0,0
52172.625,64.3993,-2261.25,0,0
52432.95,64.394,-2248.92,0,0
52693.275,64.7421,-2236.08,0,0
52953.6,66.0007,-2223.66,0,0
53213.925,66.6624,-2211.82,0,0
53474.25,67.8831,-2199.86,0,0
53734.575,69.0572,-2188.1,0,0
53994.9,71.7675,-2176.91,0,0
54255.225,73.908,-2166.98,0,0
54515.55,76.1985,-2158.64,0,0
54775.875,76.2139,-2151.08,0,0
55036.2,74.5145,-2142.63,0,0
55296.525,73.7253,-2133,0,0
55556.85,72.113,-2124.13,0,0
55817.175,70.5324,-2113.83,0,0
56077.5,68.7697,-2103.68,0,0
56337.825,67.2847,-2092.96,0,0
56598.15,66.347,-2081.5,0,0
56858.475,66.2085,-2070.47,0,0
57118.8,65.8922,-2059.45,0,0
57379.125,66.3129,-2048.83,0,0
57639.45,66.394,-2038.59,0,0
57899.775,66.4716,-2028.27,0,0
58160.1,66.9444,-2017.77,0,0
58420.4,67.9455,-2007.94,0,0
58680.7,68.1207,-1999.1,0,0
58941.1,67.6775,-1988.41,0,0
59201.4,68.7979,-1977.62,0,0
59461.7,70.9979,-1967.62,0,0
59722,73.3457,-1958.59,0,0
59982.4,76.223,-1950.91,0,0
60242.7,76.9869,-1944.25,0,0
60503,77.9145,-1936.33,0,0
60763.3,80.3776,-1929.63,0,0
61023.7,80.6211,-1925.92,0,0
61284,78.6222,-1920.82,0,0
61544.3,74.4559,-1914.9,0,0
61804.6,71.3383,-1905.03,0,0
62065,70.2885,-1896.12,0,0
62325.3,68.9875,-1888.2,0,0
62585.6,66.2892,-1879.29,0,0
62845.9,65.6004,-1869.22,0,0
63106.3,64.7708,-1860.27,0,0
63366.6,64.4253,-1851.04,0,0
63626.9,64.7726,-1842.01,0,0
63887.2,64.5389,-1834.11,0,0
64147.6,63.714,-1824.98,0,0
64407.9,64.0587,-1815.82,0,0
64668.2,64.8105,-1807.56,0,0
64928.5,65.1475,-1799.66,0,0
65188.9,65.2581,-1791.59,0,0
65449.2,65.5113,-1783.61,0,0
65709.5,65.6571,-1775.39,0,0
65969.8,66.7431,-1767.19,0,0
66230.2,67.5252,-1759.91,0,0
66490.5,68.1952,-1752.72,0,0
66750.8,68.8405,-1745.43,0,0
67011.1,69.4544,-1738.04,0,0
67271.5,70.5068,-1731.03,0,0
67531.8,71.5413,-1724.52,0,0
67792.1,72.455,-1718.31,0,0
68052.4,73.2196,-1712.45,0,0
68312.8,73.9333,-1706.91,0,0
68573.1,74.0714,-1702.11,0,0
68833.4,73.2998,-1697.36,0,0
69093.7,71.6608,-1692.15,0,0
69354.1,69.7074,-1686.42,0,0
69614.4,67.6645,-1679.33,0,0
69874.7,66.6233,-1672.21,0,0
70135,65.6282,-1665.33,0,0
70395.4,64.3144,-1658.23,0,0
70655.7,64.0897,-1649.96,0,0
70916,65.1483,-1643.47,0,0
71176.3,64.9736,-1637.74,0,0
71436.7,64.6086,-1631.55,0,0
71697,64.1725,-1625.89,0,0
71957.3,62.6726,-1620.37,0,0
72217.6,60.8173,-1613.84,0,0
72478,59.4348,-1606.59,0,0
72738.3,58.5442,-1599.23,0,0
72998.6,57.8475,-1592.01,0,0
73258.9,57.2758,-1584.3,0,0
73519.3,57.6714,-1576.91,0,0
73779.6,57.9563,-1570.01,0,0
74039.9,58.4039,-1563.43,0,0
74300.225,58.4693,-1556.87,0,0
74560.55,58.8082,-1550.11,0,0
74820.875,59.2946,-1543.69,0,0
75081.2,59.9647,-1537.22,0,0
75341.525,60.7169,-1531.29,0,0
75601.85,61.175,-1525.57,0,0
75862.175,61.4476,-1519.72,0,0
76122.5,61.8913,-1513.95,0,0
76382.825,62.4673,-1508.42,0,0
76643.15,62.4233,-1503.07,0,0
76903.475,62.1278,-1497.09,0,0
77163.8,63.0578,-1490.68,0,0
77424.125,64.2994,-1485.39,0,0
77684.45,65.1792,-1480.61,0,0
77944.775,65.6663,-1476.3,0,0
78205.1,65.7039,-1471.89,0,0
78465.425,65.4865,-1467.5,0,0
78725.75,64.9618,-1463,0,0
78986.075,64.0882,-1458.28,0,0
79246.4,63.1632,-1453.2,0,0
79506.725,62.3979,-1447.83,0,0
79767.05,61.8245,-1442.34,0,0
80027.375,61.3732,-1436.93,0,0
80287.7,61.0843,-1431.4,0,0
80548.025,60.8337,-1426.01,0,0
80808.35,60.7603,-1420.67,0,0
81068.675,60.7281,-1415.49,0,0
81329.0,60.668,-1410.43,0,0
81589.325,60.5361,-1405.41,0,0
81849.65,60.2586,-1400.45,0,0
82109.975,59.9665,-1395.42,0,0
82370.3,59.7196,-1390.41,0,0
82630.625,59.4769,-1385.46,0,0
82890.95,59.2374,-1380.48,0,0
83151.275,59.0004,-1375.47,0,0
83411.6,58.6971,-1370.49,0,0
83671.925,58.3997,-1365.5,0,0
83932.25,58.244,-1360.56,0,0
84192.575,58.0323,-1355.55,0,0
84452.9,57.8357,-1350.76,0,0
84713.225,57.6263,-1345.82,0,0
84973.55,57.5292,-1340.95,0,0
85233.875,57.3385,-1336.13,0,0
85494.2,57.1795,-1331.38,0,0
85754.525,56.9308,-1326.57,0,0
86014.85,56.8472,-1321.77,0,0
86275.175,56.6643,-1316.92,0,0
86535.5,56.5617,-1312.32,0,0
86795.825,56.4627,-1307.72,0,0
87056.15,56.2622,-1303.16,0,0
87316.475,56.0626,-1298.61,0,0
87576.8,55.9312,-1294.04,0,0
87837.125,55.6625,-1289.65,0,0
88097.45,55.1625,-1285.18,0,0
88357.775,54.4497,-1280.45,0,0
88618.1,54.0596,-1275.46,0,0
88878.425,53.9051,-1270.59,0,0
89138.75,53.7935,-1265.83,0,0
89399.075,53.6239,-1260.99,0,0
89659.4,53.5914,-1256.19,0,0
89919.725,53.5762,-1251.56,0,0
90180,53.7096,-1246.97,0,0
90440.4,53.6167,-1242.46,0,0
90700.7,53.5238,-1237.83,0,0
90961,53.4393,-1233.31,0,0
91221.3,53.381,-1228.6,0,0
91481.7,53.4769,-1223.95,0,0
91742,53.5592,-1219.34,0,0
92002.3,53.8116,-1214.76,0,0
92262.6,54.1914,-1210.29,0,0
92523,54.518,-1205.97,0,0
92783.3,54.762,-1201.92,0,0
93043.6,55.0442,-1197.92,0,0
93303.9,55.0949,-1193.98,0,0
93564.3,54.9501,-1189.98,0,0
93824.6,54.9008,-1186.05,0,0
94084.9,54.6559,-1182.12,0,0
94345.2,54.1837,-1178.02,0,0
94605.6,53.7061,-1173.71,0,0
94865.9,53.3339,-1169.24,0,0
95126.2,53.1707,-1164.74,0,0
95386.5,53.0573,-1160.26,0,0
95646.9,52.9528,-1155.7,0,0
95907.2,53.1412,-1151.25,0,0
96167.5,53.2407,-1146.85,0,0
96427.8,53.3993,-1142.45,0,0
96688.2,53.5759,-1138.16,0,0
96948.5,53.7338,-1133.87,0,0
97208.8,53.8952,-1129.56,0,0
97469.1,54.0854,-1125.37,0,0
97729.5,54.1987,-1121.07,0,0
97989.8,54.4036,-1116.73,0,0
98250.1,54.7736,-1112.41,0,0
98510.4,55.1146,-1108.16,0,0
98770.8,55.4129,-1103.87,0,0
99031.1,55.9708,-1099.59,0,0
99291.4,56.5991,-1095.41,0,0
99551.7,57.2081,-1091.52,0,0
99812.1,57.5605,-1087.48,0,0
100072,58.0229,-1083.3,0,0
100333,58.94,-1079.1,0,0
100593,60.1344,-1075.29,0,0
100853,61.0639,-1072.07,0,0
101114,61.7034,-1068.73,0,0
101374,62.4546,-1065.6,0,0
101634,63.0106,-1062.9,0,0
101895,62.935,-1060.38,0,0
102155,62.1957,-1057.67,0,0
102415,61.1592,-1054.31,0,0
102676,60.1109,-1050.41,0,0
102936,59.2403,-1046.22,0,0
103196,58.599,-1041.64,0,0
103457,58.1408,-1036.84,0,0
103717,58.156,-1031.82,0,0
103977,58.5266,-1026.93,0,0
104238,59.0992,-1022.23,0,0
104498,59.7531,-1017.5,0,0
104758,60.6572,-1012.85,0,0
105019,61.7283,-1008.33,0,0
105279,62.9175,-1004.03,0,0
105539,64.0995,-999.801,0,0
105800,65.4247,-995.688,0,0
106060,66.7832,-991.703,0,0
106320.175,68.1155,-987.866,0,0
106580.5,69.5223,-984.106,0,0
106840.825,70.9966,-980.494,0,0
107101.15,72.2654,-976.97,0,0
107361.475,73.5314,-973.497,0,0
107621.8,74.8035,-969.901,0,0
107882.125,76.1881,-966.335,0,0
108142.45,77.6791,-962.774,0,0
108402.775,79.3569,-959.293,0,0
108663.1,81.1495,-956.073,0,0
108923.425,82.9432,-953.023,0,0
109183.75,84.7236,-950.119,0,0
109444.075,86.5099,-947.42,0,0
109704.4,88.1417,-944.98,0,0
109964.725,89.5782,-942.636,0,0
110225.05,91.081,-940.194,0,0
110485.375,92.4656,-937.821,0,0
110745.7,93.8024,-935.598,0,0
111006.025,95.0616,-933.457,0,0
111266.35,96.2802,-931.293,0,0
111526.675,97.3075,-929.043,0,0
111787.0,98.3086,-926.836,0,0
112047.325,99.4667,-924.71,0,0
112307.65,100.602,-922.71,0,0
112567.975,101.642,-920.825,0,0
112828.3,102.585,-918.93,0,0
113088.625,103.476,-917.049,0,0
113348.95,104.338,-915.324,0,0
113609.275,105.063,-913.575,0,0
113869.6,105.712,-911.859,0,0
114129.925,106.351,-910.118,0,0
114390.25,106.892,-908.402,0,0
114650.575,107.39,-906.73,0,0
114910.9,107.865,-905.074,0,0
115171.225,108.255,-903.544,0,0
115431.55,108.463,-902.016,0,0
115691.875,108.559,-900.413,0,0
115952.2,108.596,-898.75,0,0
116212.525,108.591,-897.039,0,0
116472.85,108.537,-895.437,0,0
116733.175,108.268,-893.716,0,0
116993.5,107.997,-891.897,0,0
117253.825,107.582,-889.983,0,0
117514.15,107.102,-887.885,0,0
117774.475,106.689,-885.649,0,0
118034.8,106.303,-883.119,0,0
118295.125,106.197,-880.565,0,0
118555.45,106.095,-878.082,0,0
118815.775,106.059,-875.309,0,0
119076.1,106.409,-872.33,0,0
119336.425,107.351,-869.411,0,0
119596.75,108.864,-867.087,0,0
119857.075,110.335,-865.461,0,0
120117.4,111.806,-864.49,0,0
120377.725,112.715,-864.33,0,0
120638.05,112.629,-864.438,0,0
120898.375,111.663,-864.299,0,0
121158.7,110.15,-863.499,0,0
121419.025,108.568,-862.114,0,0
121679.35,107.072,-860.349,0,0
121939.675,105.696,-858.288,0,0
122200.0,104.428,-856.014,0,0
122460,103.288,-853.598,0,0
122721,102.354,-851.061,0,0
122981,101.605,-848.557,0,0
123241,100.83,-846.093,0,0
123502,100.11,-843.593,0,0
123762,99.4945,-841.056,0,0
124022,98.9055,-838.58,0,0
124283,98.3311,-836.086,0,0
124543,97.7535,-833.588,0,0
124803,97.1907,-831.044,0,0
125064,96.7784,-828.502,0,0
125324,96.4267,-826.066,0,0
125584,96.0382,-823.657,0,0
125845,95.6848,-821.299,0,0
126105,95.3817,-819.093,0,0
126365,94.8522,-817.031,0,0
126626,94.1392,-815.017,0,0
126886,93.2391,-812.837,0,0
127146,92.4867,-810.584,0,0
127406,91.5721,-808.093,0,0
127667,90.8703,-805.816,0,0
127927,89.9721,-803.581,0,0
128187,88.8523,-801.374,0,0
128448,87.5472,-798.913,0,0
128708,86.2624,-796.306,0,0
128968,84.9717,-793.58,0,0
129229,83.6344,-790.685,0,0
129489,82.2703,-787.686,0,0
129749,80.9535,-784.49,0,0
130010,79.676,-781.086,0,0
130270,78.5799,-777.528,0,0
130530,77.6452,-774.013,0,0
130791,76.7594,-770.484,0,0
131051,75.9014,-766.838,0,0
131311,75.1471,-763.078,0,0
131572,74.5674,-759.288,0,0
131832,74.1265,-755.592,0,0
132092,73.6469,-751.91,0,0
132353,73.1858,-748.088,0,0
132613,72.8681,-744.276,0,0
132873,72.6752,-740.471,0,0
133134,72.5022,-736.691,0,0
133394,72.362,-732.908,0,0
133654,72.3283,-729.102,0,0
133915,72.357,-725.326,0,0
134175,72.427,-721.539,0,0
134435,72.5291,-717.764,0,0
134696,72.6538,-714.032,0,0
134956,72.8745,-710.218,0,0
135216,73.2088,-706.435,0,0
135477,73.578,-702.675,0,0
135737,74.028,-698.972,0,0
135997,74.5073,-695.355,0,0
136258,74.968,-691.773,0,0
136518,75.5128,-688.118,0,0
136778,76.1134,-684.585,0,0
137039,76.7477,-681.124,0,0
137299,77.2693,-677.798,0,0
137559,77.7118,-674.41,0,0
137819,78.1063,-671.032,0,0
138080,78.3993,-667.564,0,0
138340.125,78.7495,-663.985,0,0
138600.45,79.1692,-660.304,0,0
138860.775,79.5955,-656.667,0,0
139121.1,80.0924,-652.878,0,0
139381.425,80.6706,-649.05,0,0
139641.75,81.3726,-645.293,0,0
139902.075,82.0509,-641.483,0,0
140162.4,82.8481,-637.681,0,0
140422.725,83.7075,-633.845,0,0
140683.05,84.6435,-630.031,0,0
140943.375,85.6382,-626.215,0,0
141203.7,86.7389,-622.426,0,0
141464.025,87.9193,-618.705,0,0
141724.35,89.0853,-615.071,0,0
141984.675,90.2251,-611.462,0,0
142245.0,91.3583,-607.781,0,0
142505.325,92.5899,-604.137,0,0
142765.65,93.8125,-600.516,0,0
143025.975,95.0674,-596.841,0,0
143286.3,96.4077,-593.15,0,0
143546.625,97.7636,-589.572,0,0
143806.95,99.1031,-585.927,0,0
144067.275,100.472,-582.316,0,0
144327.6,101.858,-578.61,0,0
144587.925,103.362,-574.924,0,0
144848.25,104.873,-571.222,0,0
145108.575,106.448,-567.518,0,0
145368.9,108.073,-563.79,0,0
145629.225,109.776,-560.072,0,0
145889.55,111.523,-556.343,0,0
146149.875,113.382,-552.569,0,0
146410.2,115.315,-548.842,0,0
146670.525,117.307,-545.137,0,0
146930.85,119.393,-541.458,0,0
147191.175,121.508,-537.824,0,0
147451.5,123.662,-534.227,0,0
147711.825,125.882,-530.631,0,0
147972.15,128.082,-527.087,0,0
148232.475,130.338,-523.421,0,0
148492.8,132.732,-519.704,0,0
148753.125,135.26,-516.037,0,0
149013.45,137.896,-512.392,0,0
149273.775,140.633,-508.84,0,0
149534.1,143.377,-505.318,0,0
149794.425,146.217,-501.747,0,0
150054.75,149.166,-498.226,0,0
150315.075,152.182,-494.732,0,0
150575.4,155.324,-491.187,0,0
150835.725,158.608,-487.615,0,0
151096.05,162.213,-484.039,0,0
151356.375,166.107,-480.731,0,0
151616.7,170.028,-477.708,0,0
151877.025,173.919,-474.78,0,0
152137.35,177.922,-471.758,0,0
152397.675,182.303,-468.878,0,0
152658.0,186.936,-466.393,0,0
152918.325,191.559,-464.347,0,0
153178.65,196.05,-462.52,0,0
153438.975,200.58,-460.864,0,0
153699.3,205.133,-459.518,0,0
153959.625,209.563,-458.517,0,0
154219.95,213.772,-457.777,0,0
154480,217.684,-457.291,0,0
154741,221.198,-456.956,0,0
155001,224.197,-456.264,0,0
155261,227.443,-455.131,0,0
155522,231.014,-453.923,0,0
155782,234.789,-453.107,0,0
156042,238.582,-452.662,0,0
156303,241.993,-452.392,0,0
156563,245.116,-452.392,0,0
156823,247.754,-452.176,0,0
157084,250.332,-451.561,0,0
157344,253.126,-450.593,0,0
157604,255.915,-449.838,0,0
157864,258.524,-448.808,0,0
158125,261.513,-447.411,0,0
158385,265.112,-446.124,0,0
158645,268.775,-445.252,0,0
158906,272.516,-444.331,0,0
159166,276.636,-443.692,0,0
159426,280.837,-443.452,0,0
159687,284.992,-443.476,0,0
159947,289.309,-443.986,0,0
160207,293.411,-444.953,0,0
160468,297.302,-446.256,0,0
160728,300.884,-448.258,0,0
160988,303.61,-450.658,0,0
161249,305.381,-452.779,0,0
161509,306.793,-454.308,0,0
161769,308.066,-455.56,0,0
162030,309.291,-456.422,0,0
162290,310.24,-457.199,0,0
162550,311.205,-457.69,0,0
162811,312.037,-457.913,0,0
163071,312.89,-457.847,0,0
163331,313.704,-457.397,0,0
163592,314.785,-456.678,0,0
163852,315.946,-455.674,0,0
164112,317.356,-454.444,0,0
164373,319.193,-453.12,0,0
164633,321.445,-451.72,0,0
164893,323.952,-450.663,0,0
165154,326.364,-449.565,0,0
165414,328.723,-448.431,0,0
165674,331.38,-446.896,0,0
165935,334.624,-445.227,0,0
166195,338.39,-443.786,0,0
166455,342.577,-442.447,0,0
166716,347.381,-441.32,0,0
166976,352.752,-440.771,0,0
167236,358.503,-440.905,0,0
167497,364.355,-441.821,0,0
167757,370.337,-443.299,0,0
168017,376.559,-445.55,0,0
168277,382.551,-449.111,0,0
168538,387.714,-453.353,0,0
168798,392.203,-457.857,0,0
169058,396.399,-462.635,0,0
169319,400.22,-467.937,0,0
169579,403.349,-473.51,0,0
169839,406.2,-479.188,0,0
170100,408.985,-485.317,0,0
170360.075,411.367,-492.539,0,0
170620.4,412.334,-500.561,0,0
170880.725,411.82,-508.624,0,0
171141.05,409.974,-516.452,0,0
171401.375,407.009,-523.597,0,0
171661.7,403.378,-529.997,0,0
171922.025,399.189,-535.928,0,0
172182.35,394.225,-541.246,0,0
172442.675,388.789,-545.842,0,0
172703.0,382.862,-549.771,0,0
172963.325,376.45,-552.888,0,0
173223.65,369.782,-554.973,0,0
173483.975,363.104,-556.285,0,0
173744.3,356.322,-556.74,0,0
174004.625,349.847,-556.228,0,0
174264.95,343.627,-555.188,0,0
174525.275,337.621,-553.438,0,0
174785.6,332.05,-551.139,0,0
175045.925,326.904,-548.496,0,0
175306.25,321.967,-545.557,0,0
175566.575,317.106,-542.034,0,0
175826.9,312.863,-537.898,0,0
176087.225,309.233,-533.482,0,0
176347.55,306.089,-528.926,0,0
176607.875,303.451,-524.245,0,0
176868.2,301.262,-519.525,0,0
177128.525,299.467,-514.753,0,0
177388.85,298.072,-509.961,0,0
177649.175,297.084,-505.177,0,0
177909.5,296.554,-500.576,0,0
178169.825,296.284,-496.305,0,0
178430.15,296.006,-492.228,0,0
178690.475,295.712,-488.087,0,0
178950.8,295.641,-483.887,0,0
179211.125,295.806,-479.738,0,0
179471.45,296.179,-475.609,0,0
179731.775,296.813,-471.62,0,0
179992.1,297.611,-467.838,0,0
180252.425,298.408,-464.246,0,0
180512.75,299.185,-460.774,0,0
180773.075,299.949,-457.284,0,0
181033.4,300.821,-453.846,0,0
181293.725,301.751,-450.491,0,0
181554.05,302.639,-447.22,0,0
181814.375,303.485,-444.068,0,0
182074.7,304.243,-440.908,0,0
182335.025,304.858,-437.679,0,0
182595.35,305.435,-434.305,0,0
182855.675,306.039,-430.836,0,0
183116.0,306.593,-427.205,0,0
183376.325,307.21,-423.351,0,0
183636.65,307.94,-419.383,0,0
183896.975,308.77,-415.264,0,0
184157.3,309.735,-410.993,0,0
184417.625,310.86,-406.608,0,0
184677.95,312.157,-402.158,0,0
184938.275,313.562,-397.645,0,0
185198.6,315.082,-392.997,0,0
185458.925,316.737,-388.219,0,0
185719.25,318.623,-383.321,0,0
185979.575,320.727,-378.355,0,0
186239.9,323.027,-373.302,0,0
186500,325.559,-368.235,0,0
186761,328.272,-363.148,0,0
187021,331.177,-358.017,0,0
187281,334.286,-352.803,0,0
187542,337.6,-347.591,0,0
187802,341.126,-342.235,0,0
188062,344.768,-336.851,0,0
188322,348.771,-331.417,0,0
188583,353.099,-325.943,0,0
188843,357.636,-320.419,0,0
189103,362.487,-314.886,0,0
189364,367.634,-309.348,0,0
189624,373.154,-303.819,0,0
189884,378.981,-298.269,0,0
190145,385.187,-292.806,0,0
190405,391.792,-287.392,0,0
190665,398.869,-282.149,0,0
190926,406.276,-277.134,0,0
191186,413.958,-272.228,0,0
191446,421.97,-267.591,0,0
191707,430.403,-263.086,0,0
191967,439.163,-258.81,0,0
192227,448.34,-254.898,0,0
192488,457.814,-251.228,0,0
192748,467.505,-247.935,0,0
193008,477.524,-244.909,0,0
193269,487.844,-242.351,0,0
193529,498.341,-240.118,0,0
193789,509.008,-238.216,0,0
194050,519.852,-236.73,0,0
194310,530.906,-235.57,0,0
194570,542.046,-234.744,0,0
194831,553.448,-234.243,0,0
195091,564.903,-234.131,0,0
195351,576.526,-234.413,0,0
195612,588.222,-234.826,0,0
195872,600.168,-235.51,0,0
196132,612.435,-236.494,0,0
196393,625.04,-237.883,0,0
196653,637.889,-239.738,0,0
196913,651.006,-241.956,0,0
197174,664.598,-244.61,0,0
197434,678.658,-247.975,0,0
197694,692.97,-252.203,0,0
197955,707.451,-257.193,0,0
198215,722.177,-262.956,0,0
198475,737.078,-269.642,0,0
198735,752.11,-277.368,0,0
198996,767.225,-286.254,0,0
199256,782.191,-296.351,0,0
199516,796.723,-307.84,0,0
199777,810.661,-320.468,0,0
200037,823.918,-334.27,0,0
200297,836.086,-349.056,0,0
200558,847.549,-364.628,0,0
200818,857.954,-381.055,0,0
201078,867.143,-398.338,0,0
201339,875.12,-416.215,0,0
201599,881.71,-434.363,0,0
201859,887.048,-452.589,0,0
202120,891.157,-470.766,0,0
202380.025,894.413,-488.815,0,0
202640.35,896.385,-507.038,0,0
202900.675,897.132,-524.732,0,0
203161.0,897.036,-541.49,0,0
203421.325,896.766,-557.961,0,0
203681.65,896.255,-574.649,0,0
203941.975,894.851,-591.42,0,0
204202.3,892.48,-608.091,0,0
204462.625,889.143,-624.244,0,0
204722.95,885.051,-639.783,0,0
204983.275,880.819,-654.719,0,0
205243.6,875.759,-669.774,0,0
205503.925,870.102,-684.303,0,0
205764.25,863.767,-697.804,0,0
206024.575,857.379,-710.843,0,0
206284.9,850.885,-723.209,0,0
206545.225,844.569,-735.284,0,0
206805.55,838.337,-747.528,0,0
207065.875,831.976,-760.143,0,0
207326.2,824.737,-773.363,0,0
207586.525,816.12,-786.604,0,0
207846.85,806.227,-799.226,0,0
208107.175,795.251,-810.945,0,0
208367.5,783.545,-821.602,0,0
208627.825,771.28,-831.07,0,0
208888.15,758.687,-839.457,0,0
209148.475,745.807,-846.565,0,0
209408.8,732.999,-852.452,0,0
209669.125,720.832,-857.224,0,0
209929.45,708.779,-861.556,0,0
210189.775,696.993,-864.915,0,0
210450.1,685.92,-867.573,0,0
210710.425,675.06,-869.791,0,0
210970.75,664.492,-871.677,0,0
211231.075,654.155,-872.937,0,0
211491.4,644.208,-873.603,0,0
211751.725,634.685,-873.78,0,0
212012.05,625.764,-873.546,0,0
212272.375,617.407,-872.994,0,0
212532.7,609.518,-872.263,0,0
212793.025,602.191,-871.398,0,0
213053.35,595.251,-870.61,0,0
213313.675,588.577,-869.603,0,0
213574.0,582.296,-868.457,0,0
213834.325,576.229,-867.033,0,0
214094.65,570.902,-865.344,0,0
214354.975,566.414,-863.631,0,0
214615.3,562.698,-862.317,0,0
214875.625,559.539,-861.57,0,0
215135.95,556.617,-861.355,0,0
215396.275,553.741,-861.871,0,0
215656.6,550.738,-862.881,0,0
215916.925,547.373,-864.309,0,0
216177.25,543.773,-865.992,0,0
216437.575,539.725,-867.77,0,0
216697.9,535.339,-869.555,0,0
216958.225,530.584,-871.033,0,0
217218.55,525.788,-872.088,0,0
217478.875,521.119,-872.949,0,0
217739.2,516.605,-873.774,0,0
217999.525,512.151,-874.548,0,0
218259.85,507.817,-875.344,0,0
218520,503.356,-876.255,0,0
218780,498.931,-877.022,0,0
219041,494.648,-877.673,0,0
219301,490.387,-878.327,0,0
219561,486.33,-879.131,0,0
219822,481.959,-880.096,0,0
220082,477.525,-881,0,0
220342,473.073,-882.069,0,0
220603,468.506,-882.915,0,0
220863,463.743,-883.637,0,0
221123,459.068,-884.153,0,0
221384,454.397,-884.623,0,0
221644,449.715,-885.152,0,0
221904,444.94,-885.48,0,0
222165,440.105,-885.686,0,0
222425,435.372,-885.723,0,0
222685,430.73,-885.638,0,0
222946,426.28,-885.478,0,0
223206,421.835,-885.552,0,0
223466,417.448,-885.512,0,0
223727,412.947,-885.448,0,0
223987,408.641,-885.427,0,0
224247,404.415,-885.229,0,0
224508,400.199,-885.348,0,0
224768,395.841,-885.714,0,0
225028,391.392,-885.907,0,0
225289,386.63,-886.316,0,0
225549,381.708,-886.551,0,0
225809,376.604,-886.702,0,0
226070,371.204,-886.718,0,0
226330,365.653,-886.323,0,0
226590,360.135,-885.74,0,0
226851,354.621,-884.919,0,0
227111,348.978,-883.915,0,0
227371,343.609,-882.712,0,0
227632,338.056,-881.42,0,0
227892,332.56,-879.966,0,0
228152,326.786,-878.243,0,0
228413,321.127,-876.116,0,0
228673,315.589,-873.736,0,0
228933,310.239,-870.916,0,0
229193,305.1,-867.905,0,0
229454,300.25,-864.705,0,0
229714,295.761,-861.421,0,0
229974,291.255,-858.047,0,0
230235,287.242,-854.453,0,0
230495,283.212,-850.958,0,0
230755,279.52,-847.396,0,0
231016,276.059,-843.67,0,0
231276,272.815,-840.06,0,0
231536,269.721,-836.518,0,0
231797,266.737,-832.988,0,0
232057,263.936,-829.443,0,0
232317,261.241,-825.942,0,0
232578,258.69,-822.456,0,0
232838,256.195,-818.994,0,0
233098,253.866,-815.499,0,0
233359,251.73,-812.044,0,0
233619,249.74,-808.621,0,0
233879,247.855,-805.328,0,0
234140,245.988,-802.096,0,0
234400,244.132,-798.893,0,0
234660.3,242.434,-795.684,0,0
234920.625,240.863,-792.426,0,0
235180.95,239.482,-789.147,0,0
235441.275,238.239,-786.133,0,0
235701.6,236.974,-783.345,0,0
235961.925,235.708,-780.509,0,0
236222.25,234.361,-777.789,0,0
236482.575,232.969,-774.956,0,0
236742.9,231.64,-772.088,0,0
237003.225,230.4,-769.164,0,0
237263.55,229.295,-766.132,0,0
237523.875,228.234,-763.212,0,0
237784.2,227.443,-760.195,0,0
238044.525,226.806,-757.243,0,0
238304.85,226.29,-754.439,0,0
238565.175,225.966,-751.728,0,0
238825.5,225.697,-749.214,0,0
239085.825,225.46,-746.791,0,0
239346.15,225.206,-744.562,0,0
239606.475,225.055,-742.376,0,0
239866.8,224.969,-740.325,0,0
240127.125,224.737,-738.457,0,0
240387.45,224.544,-736.692,0,0
240647.775,224.302,-734.967,0,0
240908.1,224.036,-733.342,0,0
241168.425,223.722,-731.821,0,0
241428.75,223.346,-730.324,0,0
241689.075,223,-728.931,0,0
241949.4,222.504,-727.583,0,0
242209.725,222.037,-726.295,0,0
242470.05,221.47,-725.057,0,0
242730.375,220.791,-723.928,0,0
242990.7,220.016,-722.702,0,0
243251.025,219.217,-721.472,0,0
243511.35,218.423,-720.298,0,0
243771.675,217.545,-719.117,0,0
244032.0,216.495,-718.002,0,0
244292.325,215.322,-716.783,0,0
244552.65,214.07,-715.519,0,0
244812.975,212.792,-714.138,0,0
245073.3,211.455,-712.556,0,0
245333.625,210.124,-710.888,0,0
245593.95,208.802,-709.12,0,0
245854.275,207.637,-707.244,0,0
246114.6,206.402,-705.289,0,0
246374.925,205.324,-703.269,0,0
246635.25,204.3,-701.266,0,0
246895.575,203.33,-699.141,0,0
247155.9,202.51,-696.953,0,0
247416.225,201.883,-694.712,0,0
247676.55,201.411,-692.57,0,0
247936.875,201.02,-690.622,0,0
248197.2,200.714,-688.724,0,0
248457.525,200.239,-686.991,0,0
248717.85,199.749,-685.173,0,0
248978.175,199.31,-683.476,0,0
249238.5,198.735,-681.787,0,0
249498.825,198.348,-680.051,0,0
249759.15,197.806,-678.352,0,0
250019.475,197.278,-676.743,0,0
250279.8,196.887,-674.961,0,0
250540,196.439,-673.332,0,0
250800,195.935,-671.732,0,0
251061,195.396,-670.226,0,0
251321,194.853,-668.699,0,0
251581,194.253,-667.203,0,0
251842,193.531,-665.726,0,0
252102,192.732,-664.27,0,0
252362,191.752,-662.723,0,0
252623,190.682,-661.079,0,0
252883,189.452,-659.279,0,0
253143,188.194,-657.214,0,0
253404,186.919,-654.945,0,0
253664,185.766,-652.461,0,0
253924,184.77,-649.804,0,0
254185,183.902,-647.054,0,0
254445,183.188,-644.254,0,0
254705,182.54,-641.334,0,0
254966,182.022,-638.402,0,0
255226,181.51,-635.417,0,0
255486,181.14,-632.268,0,0
255747,180.781,-628.987,0,0
256007,180.652,-625.489,0,0
256267,180.77,-621.881,0,0
256528,181.182,-618.224,0,0
256788,181.816,-614.629,0,0
257048,182.592,-611.03,0,0
257309,183.56,-607.42,0,0
257569,184.741,-603.743,0,0
257829,186.221,-600.09,0,0
258090,187.985,-596.554,0,0
258350,189.91,-593.153,0,0
258610,191.949,-589.786,0,0
258871,194.273,-586.41,0,0
259131,196.86,-583.187,0,0
259391,199.717,-580.065,0,0
259651,202.845,-577.157,0,0
259912,206.214,-574.511,0,0
260172,209.56,-572.023,0,0
260432,213.229,-569.689,0,0
260693,217.13,-567.723,0,0
260953,221.212,-565.917,0,0
261213,225.445,-564.603,0,0
261474,229.718,-563.694,0,0
261734,233.872,-563.124,0,0
261994,237.911,-562.811,0,0
262255,241.839,-562.658,0,0
262515,245.763,-562.597,0,0
262775,249.748,-562.657,0,0
263036,253.873,-562.964,0,0
263296,258.081,-563.583,0,0
263556,262.31,-564.511,0,0
263817,266.73,-565.941,0,0
264077,270.641,-567.825,0,0
264337,274.37,-569.839,0,0
264598,277.978,-572.064,0,0
264858,281.457,-574.497,0,0
265118,284.689,-577.206,0,0
265379,287.947,-580.048,0,0
265639,290.896,-583.176,0,0
265899,293.786,-586.587,0,0
266160,296.376,-590.312,0,0
266420,298.696,-594.333,0,0
266680.25,300.591,-598.665,0,0
266940.575,301.954,-603.037,0,0
267200.9,302.966,-607.464,0,0
267461.225,303.609,-611.872,0,0
267721.55,303.86,-616.19,0,0
267981.875,303.845,-620.509,0,0
268242.2,303.599,-624.739,0,0
268502.525,303.144,-629.004,0,0
268762.85,302.423,-633.369,0,0
269023.175,301.255,-637.761,0,0
269283.5,299.487,-642.217,0,0
269543.825,297.083,-646.35,0,0
269804.15,294.104,-649.926,0,0
270064.475,290.987,-652.814,0,0
270324.8,287.931,-655.083,0,0
270585.125,284.99,-656.929,0,0
270845.45,282.272,-658.445,0,0
271105.775,279.808,-659.742,0,0
271366.1,277.7,-660.817,0,0
271626.425,275.861,-661.977,0,0
271886.75,274.23,-663.424,0,0
272147.075,272.523,-664.996,0,0
272407.4,270.709,-666.656,0,0
272667.725,268.834,-668.435,0,0
272928.05,266.779,-670.179,0,0
273188.375,264.614,-671.904,0,0
273448.7,262.431,-673.61,0,0
273709.025,260.083,-675.413,0,0
273969.35,257.611,-677.249,0,0
274229.675,254.835,-679.068,0,0
274490.0,251.885,-680.766,0,0
274750.325,248.684,-682.43,0,0
275010.65,245.174,-683.96,0,0
275270.975,241.427,-685.285,0,0
275531.3,237.425,-686.314,0,0
275791.625,233.202,-687.024,0,0
276051.95,228.889,-687.327,0,0
276312.275,224.496,-687.203,0,0
276572.6,220.136,-686.698,0,0
276832.925,215.853,-685.797,0,0
277093.25,211.626,-684.546,0,0
277353.575,207.575,-682.875,0,0
277613.9,203.76,-680.892,0,0
277874.225,200.196,-678.652,0,0
278134.55,196.872,-676.161,0,0
278394.875,193.811,-673.403,0,0
278655.2,191.11,-670.416,0,0
278915.525,188.842,-667.221,0,0
279175.85,187.072,-663.941,0,0
279436.175,185.709,-660.726,0,0
279696.5,184.912,-657.644,0,0
279956.825,184.419,-654.835,0,0
280217.15,184.169,-652.385,0,0
280477.475,183.997,-650.335,0,0
280737.8,183.787,-648.448,0,0
280998.125,183.54,-646.764,0,0
281258.45,183.28,-645.168,0,0
281518.775,183.083,-643.697,0,0
281779.1,182.796,-642.404,0,0
282039.425,182.319,-641.094,0,0
282299.75,181.811,-639.66,0,0
282560,181.393,-638.062,0,0
282820,181.229,-636.412,0,0
283081,181.366,-634.905,0,0
283341,181.619,-633.634,0,0
283601,181.943,-632.604,0,0
283862,182.287,-631.878,0,0
284122,182.476,-631.407,0,0
284382,182.53,-631.089,0,0
284643,182.299,-630.817,0,0
284903,181.925,-630.579,0,0
285163,181.466,-630.34,0,0
285424,180.865,-630.11,0,0
285684,180.182,-629.867,0,0
285944,179.352,-629.655,0,0
286205,178.299,-629.484,0,0
286465,176.959,-629.17,0,0
286725,175.38,-628.59,0,0
286986,173.659,-627.617,0,0
287246,172.07,-626.383,0,0
287506,170.562,-624.86,0,0
287767,169.185,-623.173,0,0
288027,167.894,-621.227,0,0
288287,166.784,-619.121,0,0
288548,165.83,-616.77,0,0
288808,165.136,-614.165,0,0
289068,164.823,-611.376,0,0
289329,164.889,-608.5,0,0
289589,165.436,-605.643,0,0
289849,166.471,-602.921,0,0
290109,167.822,-600.384,0,0
290370,169.465,-598.185,0,0
290630,171.423,-596.221,0,0
290890,173.592,-594.57,0,0
291151,175.928,-593.326,0,0
291411,178.391,-592.445,0,0
291671,180.886,-591.953,0,0
291932,183.375,-591.826,0,0
292192,185.826,-592.085,0,0
292452,188.219,-592.645,0,0
292713,190.493,-593.585,0,0
292973,192.64,-594.877,0,0
293233,194.533,-596.529,0,0
293494,196.131,-598.47,0,0
293754,197.419,-600.645,0,0
294014,198.382,-602.988,0,0
294275,198.952,-605.461,0,0
294535,199.248,-608.081,0,0
294795,199.084,-610.724,0,0
295056,198.556,-613.347,0,0
295316,197.588,-615.891,0,0
295576,196.319,-618.248,0,0
295837,194.767,-620.432,0,0
296097,192.936,-622.423,0,0
296357,190.887,-624.165,0,0
296618,188.63,-625.594,0,0
296878,186.25,-626.697,0,0
297138,183.87,-627.495,0,0
297399,181.516,-628.027,0,0
297659,179.246,-628.337,0,0
297919,177.059,-628.457,0,0
298180,174.978,-628.445,0,0
298440,172.999,-628.324,0,0
298700.2,171.132,-628.157,0,0
298960.525,169.29,-627.962,0,0
299220.85,167.504,-627.702,0,0
299481.175,165.767,-627.371,0,0
299741.5,164.094,-627.035,0,0
300001.825,162.446,-626.666,0,0
300262.15,160.797,-626.291,0,0
300522.475,159.136,-625.873,0,0
300782.8,157.504,-625.439,0,0
301043.125,155.851,-624.968,0,0
301303.45,154.179,-624.384,0,0
301563.775,152.472,-623.733,0,0
301824.1,150.836,-622.977,0,0
302084.425,149.25,-622.138,0,0
302344.75,147.796,-621.229,0,0
302605.075,146.415,-620.292,0,0
302865.4,145.113,-619.402,0,0
303125.725,143.84,-618.535,0,0
303386.05,142.529,-617.71,0,0
303646.375,141.189,-616.824,0,0
303906.7,139.889,-615.879,0,0
304167.025,138.612,-614.869,0,0
304427.35,137.377,-613.854,0,0
304687.675,136.152,-612.801,0,0
304948.0,134.968,-611.657,0,0
305208.325,133.835,-610.478,0,0
305468.65,132.786,-609.286,0,0
305728.975,131.812,-608.051,0,0
305989.3,130.877,-606.802,0,0
306249.625,130.032,-605.539,0,0
306509.95,129.245,-604.275,0,0
306770.275,128.556,-603.005,0,0
307030.6,127.939,-601.746,0,0
307290.925,127.421,-600.544,0,0
307551.25,126.949,-599.398,0,0
307811.575,126.539,-598.327,0,0
308071.9,126.157,-597.285,0,0
308332.225,125.821,-596.315,0,0
308592.55,125.491,-595.435,0,0
308852.875,125.174,-594.638,0,0
309113.2,124.829,-593.915,0,0
309373.525,124.427,-593.253,0,0
309633.85,123.997,-592.626,0,0
309894.175,123.486,-592.005,0,0
310154.5,122.956,-591.393,0,0
310414.825,122.357,-590.806,0,0
310675.15,121.707,-590.201,0,0
310935.475,120.998,-589.546,0,0
311195.8,120.227,-588.843,0,0
311456.125,119.539,-588.031,0,0
311716.45,118.853,-587.221,0,0
311976.775,118.183,-586.39,0,0
312237.1,117.541,-585.547,0,0
312497.425,116.897,-584.692,0,0
312757.75,116.265,-583.801,0,0
313018.075,115.637,-582.886,0,0
313278.4,115.066,-581.938,0,0
313538.725,114.535,-580.956,0,0
313799.05,114.062,-579.96,0,0
314059.375,113.656,-578.985,0,0
314319.7,113.308,-578.044,0,0
314580,113.017,-577.086,0,0
314840,112.69,-576.32,0,0
315101,112.458,-575.409,0,0
315361,112.217,-574.599,0,0
315621,112.049,-573.934,0,0
315882,111.848,-573.104,0,0
316142,111.737,-572.395,0,0
316402,111.435,-571.809,0,0
316663,111.22,-571.15,0,0
316923,111.073,-570.617,0,0
317183,110.801,-570.1,0,0
317444,110.636,-569.686,0,0
317704,110.433,-569.179,0,0
317964,110.207,-568.894,0,0
318225,109.878,-568.508,0,0
318485,109.548,-568.166,0,0
318745,109.198,-567.886,0,0
319006,108.851,-567.691,0,0
319266,108.424,-567.455,0,0
319526,108.008,-567.283,0,0
319787,107.38,-567.283,0,0
320047,106.79,-567.032,0,0
320307,105.996,-566.976,0,0
320567,105.246,-566.783,0,0
320828,104.433,-566.649,0,0
321088,103.503,-566.505,0,0
321348,102.433,-566.437,0,0
321609,101.288,-566.191,0,0
321869,100.087,-565.852,0,0
322129,98.7182,-565.55,0,0
322390,97.3236,-564.999,0,0
322650,95.8804,-564.42,0,0
322910,94.4057,-563.598,0,0
323171,92.9412,-562.565,0,0
323431,91.4997,-561.459,0,0
323691,90.24,-560.187,0,0
323952,89.08,-558.827,0,0
324212,87.917,-557.416,0,0
324472,86.9927,-555.955,0,0
324733,86.2193,-554.533,0,0
324993,85.4046,-553.064,0,0
325253,84.8307,-551.637,0,0
325514,84.1262,-550.229,0,0
325774,83.5995,-548.946,0,0
326034,83.1402,-547.643,0,0
326295,82.5402,-546.344,0,0
326555,81.9619,-545.078,0,0
326815,81.48,-543.787,0,0
327076,80.9363,-542.612,0,0
327336,80.4063,-541.189,0,0
327596,79.9865,-539.835,0,0
327857,79.5285,-538.535,0,0
328117,79.0874,-537.208,0,0
328377,78.6805,-535.728,0,0
328638,78.2642,-534.356,0,0
328898,77.9602,-532.835,0,0
329158,77.8291,-531.346,0,0
329419,77.6943,-529.883,0,0
329679,77.644,-528.389,0,0
329939,77.6616,-526.972,0,0
330200,77.7924,-525.563,0,0
330460,77.8806,-524.279,0,0
330720.15,78.2458,-523.005,0,0
330980.475,78.4978,-521.88,0,0
331240.8,78.735,-520.806,0,0
331501.125,79.0302,-519.789,0,0
331761.45,79.2938,-518.918,0,0
332021.775,79.5981,-518.018,0,0
332282.1,79.8735,-517.207,0,0
332542.425,80.1109,-516.458,0,0
332802.75,80.2542,-515.836,0,0
333063.075,80.3431,-515.143,0,0
333323.4,80.4199,-514.626,0,0
333583.725,80.4732,-514.053,0,0
333844.05,80.4182,-513.42,0,0
334104.375,80.2998,-512.922,0,0
334364.7,80.1534,-512.336,0,0
334625.025,79.9369,-511.715,0,0
334885.35,79.6965,-511.141,0,0
335145.675,79.4446,-510.478,0,0
335406.0,79.0862,-509.752,0,0
335666.325,78.7204,-509.089,0,0
335926.65,78.3282,-508.331,0,0
336186.975,77.9315,-507.581,0,0
336447.3,77.4528,-506.663,0,0
336707.625,77.1052,-505.792,0,0
336967.95,76.708,-504.809,0,0
337228.275,76.2444,-503.693,0,0
337488.6,75.8997,-502.492,0,0
337748.925,75.6232,-501.338,0,0
338009.25,75.4169,-500.102,0,0
338269.575,75.2277,-498.882,0,0
338529.9,75.118,-497.659,0,0
338790.225,75.1079,-496.366,0,0
339050.55,75.0516,-495.064,0,0
339310.875,75.1006,-493.823,0,0
339571.2,75.1588,-492.491,0,0
339831.525,75.3943,-491.227,0,0
340091.85,75.6113,-489.957,0,0
340352.175,75.8958,-488.711,0,0
340612.5,76.2373,-487.415,0,0
340872.825,76.6142,-486.219,0,0
341133.15,77.1324,-484.949,0,0
341393.475,77.6982,-483.789,0,0
341653.8,78.3453,-482.657,0,0
341914.125,79.0479,-481.62,0,0
342174.45,79.9132,-480.643,0,0
342434.775,80.7248,-479.74,0,0
342695.1,81.6151,-478.997,0,0
342955.425,82.5527,-478.355,0,0
343215.75,83.4556,-477.815,0,0
343476.075,84.3778,-477.444,0,0
343736.4,85.2208,-477.151,0,0
343996.725,85.9906,-476.955,0,0
344257.05,86.6381,-476.889,0,0
344517.375,87.2646,-476.852,0,0
344777.7,87.8734,-476.867,0,0
345038.025,88.3054,-476.877,0,0
345298.35,88.7426,-476.984,0,0
345558.675,89.0341,-477.071,0,0
345819.0,89.2158,-477.146,0,0
346079.325,89.4129,-477.307,0,0
346339.65,89.4789,-477.421,0,0
346599.975,89.5076,-477.49,0,0
346860,89.439,-477.574,0,0
347121,89.3781,-477.669,0,0
347381,89.1552,-477.658,0,0
347641,88.956,-477.637,0,0
347902,88.7213,-477.582,0,0
348162,88.4944,-477.44,0,0
348422,88.2372,-477.384,0,0
348683,87.9246,-477.227,0,0
348943,87.5107,-477.014,0,0
349203,87.1681,-476.83,0,0
349464,86.8438,-476.599,0,0
349724,86.3761,-476.273,0,0
349984,85.9106,-475.984,0,0
350245,85.4823,-475.574,0,0
350505,85.0457,-475.173,0,0
350765,84.6368,-474.696,0,0
351025,84.2312,-474.169,0,0
351286,83.8368,-473.616,0,0
351546,83.4332,-473.077,0,0
351806,83.0708,-472.458,0,0
352067,82.7076,-471.813,0,0
352327,82.4118,-471.219,0,0
352587,82.0416,-470.483,0,0
352848,81.7515,-469.773,0,0
353108,81.5044,-468.985,0,0
353368,81.2878,-468.192,0,0
353629,81.1381,-467.438,0,0
353889,81.0042,-466.604,0,0
354149,80.9965,-465.836,0,0
354410,81.0754,-465.083,0,0
354670,81.0971,-464.391,0,0
354930,81.2414,-463.719,0,0
355191,81.2992,-463.144,0,0
355451,81.4211,-462.631,0,0
355711,81.4618,-462.1,0,0
355972,81.5195,-461.662,0,0
356232,81.5475,-461.22,0,0
356492,81.496,-460.808,0,0
356753,81.4185,-460.415,0,0
357013,81.3191,-460.005,0,0
357273,81.2333,-459.602,0,0
357534,81.0692,-459.186,0,0
357794,80.7914,-458.75,0,0
358054,80.5724,-458.349,0,0
358315,80.2506,-457.836,0,0
358575,79.9695,-457.319,0,0
358835,79.621,-456.74,0,0
359096,79.2882,-456.065,0,0
359356,79.0084,-455.363,0,0
359616,78.6877,-454.55,0,0
359877,78.4608,-453.706,0,0
360137,78.3072,-452.845,0,0
360397,78.223,-452.054,0,0
360658,78.0846,-451.217,0,0
360918,78.0422,-450.377,0,0
361178,78.0124,-449.544,0,0
361438,77.9786,-448.69,0,0
361699,78.0717,-447.834,0,0
361959,78.1392,-446.979,0,0
362219,78.202,-446.108,0,0
362480,78.4243,-445.275,0,0
362740.1,78.6384,-444.556,0,0
363000.425,78.858,-443.837,0,0
363260.75,79.1042,-443.177,0,0
363521.075,79.332,-442.563,0,0
363781.4,79.5447,-442.004,0,0
364041.725,79.6856,-441.425,0,0
364302.05,79.8468,-440.95,0,0
364562.375,79.8423,-440.359,0,0
364822.7,79.9219,-439.832,0,0
365083.025,79.8777,-439.183,0,0
365343.35,79.9195,-438.533,0,0
365603.675,79.8659,-437.905,0,0
365864.0,79.8001,-437.109,0,0
366124.325,79.8471,-436.326,0,0
366384.65,79.892,-435.491,0,0
366644.975,79.9423,-434.598,0,0
366905.3,80.0816,-433.67,0,0
367165.625,80.2028,-432.764,0,0
367425.95,80.4519,-431.787,0,0
367686.275,80.8371,-430.842,0,0
367946.6,81.1982,-429.852,0,0
368206.925,81.6486,-428.927,0,0
368467.25,82.1218,-427.968,0,0
368727.575,82.6815,-427.002,0,0
368987.9,83.2942,-426.152,0,0
369248.225,84.0283,-425.225,0,0
369508.55,84.8433,-424.396,0,0
369768.875,85.7001,-423.622,0,0
370029.2,86.6341,-422.955,0,0
370289.525,87.5572,-422.328,0,0
370549.85,88.5646,-421.828,0,0
370810.175,89.6472,-421.414,0,0
371070.5,90.6893,-421.047,0,0
371330.825,91.7178,-420.821,0,0
371591.15,92.7847,-420.638,0,0
371851.475,93.8909,-420.563,0,0
372111.8,94.9927,-420.612,0,0
372372.125,96.03,-420.76,0,0
372632.45,97.0532,-421.101,0,0
372892.775,97.9725,-421.465,0,0
373153.1,98.8259,-422.009,0,0
373413.425,99.5168,-422.617,0,0
373673.75,100.141,-423.263,0,0
373934.075,100.675,-423.929,0,0
374194.4,100.961,-424.627,0,0
374454.725,101.202,-425.326,0,0
374715.05,101.328,-426.063,0,0
374975.375,101.37,-426.677,0,0
375235.7,101.288,-427.233,0,0
375496.025,101.157,-427.703,0,0
375756.35,100.98,-428.147,0,0
376016.675,100.805,-428.471,0,0
376277.0,100.564,-428.782,0,0
376537.325,100.362,-429.044,0,0
376797.65,100.149,-429.245,0,0
377057.975,99.9245,-429.406,0,0
377318.3,99.7562,-429.543,0,0
377578.625,99.5948,-429.701,0,0
377838.95,99.4521,-429.823,0,0
378099.275,99.3035,-429.982,0,0
378359.6,99.1288,-430.132,0,0
378619.925,98.9923,-430.302,0,0
378880,98.742,-430.49,0,0
379141,98.4943,-430.697,0,0
379401,98.2454,-430.804,0,0
379661,97.9359,-430.95,0,0
379922,97.5565,-430.959,0,0
380182,97.2484,-430.96,0,0
380442,96.9614,-430.979,0,0
380703,96.68,-431.036,0,0
380963,96.3899,-430.977,0,0
381223,96.0255,-430.977,0,0
381483,95.6722,-430.924,0,0
381744,95.3528,-430.72,0,0
382004,95.093,-430.473,0,0
382264,94.888,-430.141,0,0
382525,94.9417,-429.893,0,0
382785,94.9726,-429.752,0,0
383045,95.2098,-429.695,0,0
383306,95.4673,-429.809,0,0
383566,95.7107,-430.109,0,0
383826,95.7977,-430.622,0,0
384087,95.7272,-431.174,0,0
384347,95.4976,-431.852,0,0
384607,95.1035,-432.547,0,0
384868,94.597,-433.166,0,0
385128,93.8275,-433.761,0,0
385388,93.0784,-434.311,0,0
385649,92.1077,-434.767,0,0
385909,91.0004,-435.074,0,0
386169,89.8728,-435.311,0,0
386430,88.6429,-435.334,0,0
386690,87.4169,-435.247,0,0
386950,86.1813,-434.988,0,0
387211,84.9844,-434.585,0,0
387471,83.8644,-434.04,0,0
387731,82.7435,-433.407,0,0
387992,81.7935,-432.616,0,0
388252,80.8653,-431.732,0,0
388512,80.1079,-430.784,0,0
388773,79.5488,-429.816,0,0
389033,79.0601,-428.788,0,0
389293,78.7134,-427.814,0,0
389554,78.5275,-426.869,0,0
389814,78.4954,-425.966,0,0
390074,78.483,-425.206,0,0
390335,78.626,-424.548,0,0
390595,78.7447,-424.044,0,0
390855,78.9464,-423.64,0,0
391116,79.0363,-423.323,0,0
391376,79.2019,-423.209,0,0
391636,79.2538,-423.117,0,0
391896,79.2288,-423.166,0,0
392157,79.0986,-423.36,0,0
392417,78.8114,-423.561,0,0
392677,78.3855,-423.796,0,0
392938,77.7976,-424.019,0,0
393198,77.0123,-424.146,0,0
393458,76.1677,-424.161,0,0
393719,75.2321,-424.089,0,0
393979,74.2919,-423.888,0,0
394239,73.3363,-423.542,0,0
394500,72.3628,-423.08,0,0
394760.05,71.3657,-422.6,0,0
395020.375,70.4815,-421.97,0,0
395280.7,69.5856,-421.313,0,0
395541.025,68.7181,-420.528,0,0
395801.35,67.8959,-419.76,0,0
396061.675,67.1342,-418.865,0,0
396322.0,66.4512,-418.003,0,0
396582.325,65.7901,-417.076,0,0
396842.65,65.2508,-416.109,0,0
397102.975,64.6608,-415.164,0,0
397363.3,64.2024,-414.219,0,0
397623.625,63.7985,-413.252,0,0
397883.95,63.3048,-412.299,0,0
398144.275,62.9136,-411.356,0,0
398404.6,62.5744,-410.381,0,0
398664.925,62.2022,-409.441,0,0
398925.25,61.8753,-408.468,0,0
399185.575,61.573,-407.478,0,0
399445.9,61.2931,-406.467,0,0
399706.225,61.0443,-405.446,0,0
399966.55,60.8367,-404.447,0,0
400006.6,60.8135,-404.284,0,0