File: Accelerated corrosion test data/2025-10-09_06-00-03/sample_7.csv
Frequency (Hz),Impedance (ohms),Phase (Radians),Temperature (C),Humidity (%)
10000.0,277.185,-12092.5,0,0
10260.325,271.454,-11801.2,0,0
10520.65,260.839,-11502.8,0,0
10780.975,256.435,-11221.6,0,0
11041.3,253.244,-10954.1,0,0
11301.625,250.399,-10698.5,0,0
11561.95,254.654,-10449,0,0
11822.275,262.667,-10218.9,0,0
12082.6,274.408,-9989.11,0,0
12342.925,316.261,-9847.53,0,0
12603.25,262.147,-9638.96,0,0
12863.575,266.19,-9469.28,0,0
13123.9,238.96,-9274.57,0,0
13384.225,229.619,-9101.36,0,0
13644.55,226.42,-8926.68,0,0
13904.875,213.287,-8751.78,0,0
14165.2,218.117,-8579.72,0,0
14425.525,207.459,-8440.1,0,0
14685.8,205.646,-8291.98,0,0
14946.175,201.658,-8145.24,0,0
15206.5,195.9,-8016.06,0,0
15466.825,190.12,-7873.52,0,0
15727.15,184.433,-7745.03,0,0
15987.5,181.815,-7614.66,0,0
16247.8,179.064,-7497.48,0,0
16508.125,173.95,-7374.41,0,0
16768.45,174.471,-7255.93,0,0
17028.775,172.72,-7146.16,0,0
17289.1,167.775,-7036.33,0,0
17549.425,167.298,-6927.53,0,0
17809.75,174.282,-6819.37,0,0
18070.075,171.448,-6721.22,0,0
18330.4,185.434,-6616.67,0,0
18590.725,204.043,-6537.08,0,0
18851.05,196.732,-6461.69,0,0
19111.375,183.704,-6372.97,0,0
19371.7,202.004,-6316.32,0,0
19632.025,167.931,-6234.78,0,0
19892.35,160.39,-6133.85,0,0
20152.675,171.357,-6056.52,0,0
20413.0,169.235,-5986.07,0,0
20673.3,172.929,-5904.34,0,0
20933.65,180.306,-5848.17,0,0
21193.975,162.634,-5782.28,0,0
21454.3,154.474,-5706.42,0,0
21714.625,156.922,-5643.37,0,0
21974.9,147.249,-5577.69,0,0
22235.275,144.104,-5509.12,0,0
22495.6,140.114,-5447.21,0,0
22755.925,135.198,-5382.67,0,0
23016.25,131.71,-5319.05,0,0
23276.6,130.234,-5256.15,0,0
23536.9,131.765,-5196.98,0,0
23797.225,128.855,-5141.21,0,0
24057.55,125.717,-5083.39,0,0
24317.875,124.724,-5025.81,0,0
24578.2,125.225,-4972.27,0,0
24838.525,123.896,-4917.73,0,0
25098.85,122.088,-4866.06,0,0
25359.175,121.287,-4814.53,0,0
25619.5,120.11,-4761.78,0,0
25879.8,119.798,-4712.61,0,0
26140.1,121.862,-4660.52,0,0
26400.5,125.583,-4614.43,0,0
26660.8,123.052,-4567.08,0,0
26921.1,124.912,-4516.58,0,0
27181.4,131.385,-4470.34,0,0
27441.8,134.607,-4421.96,0,0
27702.1,146.215,-4377.27,0,0
27962.4,163.44,-4335,0,0
28222.7,181.746,-4314.17,0,0
28483.1,183.796,-4294.09,0,0
28743.4,176.349,-4277.55,0,0
29003.7,161.069,-4249.4,0,0
29264,145.292,-4211.18,0,0
29524.4,138.674,-4171.41,0,0
29784.7,130.176,-4131.97,0,0
30045,131.714,-4089.26,0,0
30305.3,134.287,-4054.91,0,0
30565.7,133.441,-4020.75,0,0
30826,135.632,-3987.09,0,0
31086.3,137.378,-3960.34,0,0
31346.6,134.802,-3930.78,0,0
31607,130.555,-3907.5,0,0
31867.3,122.514,-3874.53,0,0
32127.6,119.125,-3843.05,0,0
32387.9,115.821,-3812.7,0,0
32648.3,111.353,-3782.34,0,0
32908.6,108.931,-3751.74,0,0
33168.9,105.785,-3721.71,0,0
33429.2,102.743,-3692.28,0,0
33689.6,100.596,-3661.9,0,0
33949.9,98.4384,-3632.76,0,0
34210.2,96.7101,-3604.19,0,0
34470.5,94.8667,-3575.24,0,0
34730.9,93.8532,-3547.34,0,0
34991.2,92.4073,-3519.88,0,0
35251.5,91.447,-3492.55,0,0
35511.8,90.5877,-3465.63,0,0
35772.2,89.901,-3439.19,0,0
36032.5,89.5888,-3413.56,0,0
36292.8,88.8313,-3388.51,0,0
36553.1,87.8832,-3363.36,0,0
36813.5,87.5969,-3338.08,0,0
37073.8,87.5428,-3313.71,0,0
37334.1,87.3585,-3289.92,0,0
37594.4,86.8352,-3266.41,0,0
37854.8,86.4342,-3242.7,0,0
38115.1,86.5664,-3219.13,0,0
38375.4,86.5677,-3195.73,0,0
38635.7,87.7348,-3172.79,0,0
38896.1,89.498,-3150.36,0,0
39156.4,90.495,-3128.63,0,0
39416.7,94.0357,-3107.61,0,0
39677,96.9452,-3089.48,0,0
39937.4,98.3486,-3072.57,0,0
40197.7,98.5442,-3056.67,0,0
40458,95.8266,-3040.22,0,0
40718.3,93.3402,-3022.71,0,0
40978.7,90.4761,-3004.3,0,0
41239,87.6172,-2985.09,0,0
41499.3,86.2061,-2965.62,0,0
41759.6,84.9587,-2946.59,0,0
42020,82.8068,-2928.15,0,0
42280.275,81.5841,-2908.61,0,0
42540.6,81.4022,-2888.96,0,0
42800.925,81.4906,-2871.19,0,0
43061.25,81.6246,-2852.38,0,0
43321.575,81.5409,-2836.5,0,0
43581.9,80.2266,-2818.53,0,0
43842.225,80.2449,-2799.82,0,0
44102.55,81.9926,-2782.72,0,0
44362.875,83.0623,-2767.82,0,0
44623.2,83.2963,-2752.55,0,0
44883.525,81.9741,-2738.08,0,0
45143.85,81.1572,-2722.35,0,0
45404.175,79.7745,-2706.19,0,0
45664.5,81.3902,-2689.81,0,0
45924.825,82.0422,-2676.98,0,0
46185.15,80.6074,-2664.2,0,0
46445.475,78.1932,-2650.43,0,0
46705.8,75.2624,-2635.36,0,0
46966.125,73.4947,-2619.43,0,0
47226.45,72.4968,-2603.74,0,0
47486.775,72.2719,-2588.59,0,0
47747.1,71.7825,-2574.01,0,0
48007.425,71.324,-2559.62,0,0
48267.75,70.9766,-2545.82,0,0
48528.075,70.2085,-2531.47,0,0
48788.4,69.5266,-2517.53,0,0
49048.725,68.9501,-2503.59,0,0
49309.05,68.5027,-2489.86,0,0
49569.375,68.2038,-2476.36,0,0
49829.7,67.7949,-2462.91,0,0
50090.025,67.3818,-2449.64,0,0
50350.35,66.9959,-2436.58,0,0
50610.675,66.7805,-2423.65,0,0
50871.0,66.3936,-2410.63,0,0
51131.325,65.9298,-2398.14,0,0
51391.65,65.5459,-2385.39,0,0
51651.975,65.4354,-2372.81,0,0
51912.3,65.1185,-2360.53,0,0
52172.625,64.9511,-2348.19,0,0
52432.95,64.596,-2336.18,0,0
52693.275,64.5052,-2324.11,0,0
52953.6,64.3405,-2312.24,0,0
53213.925,64.3637,-2300.91,0,0
53474.25,64.0485,-2289.51,0,0
53734.575,63.7121,-2278.12,0,0
53994.9,63.3728,-2266.62,0,0
54255.225,63.1698,-2255.37,0,0
54515.55,62.8332,-2244.4,0,0
54775.875,62.6704,-2233.19,0,0
55036.2,62.2943,-2222.29,0,0
55296.525,62.1858,-2211.35,0,0
55556.85,61.9802,-2200.66,0,0
55817.175,61.6663,-2189.89,0,0
56077.5,61.5975,-2179.17,0,0
56337.825,61.5491,-2168.85,0,0
56598.15,61.3159,-2158.61,0,0
56858.475,61.0224,-2148.26,0,0
57118.8,60.8985,-2138.2,0,0
57379.125,60.7106,-2128,0,0
57639.45,60.3925,-2117.97,0,0
57899.775,60.2879,-2107.82,0,0
58160.1,60.4437,-2097.76,0,0
58420.4,60.7166,-2088.23,0,0
58680.7,60.7081,-2078.85,0,0
58941.1,60.4494,-2069.49,0,0
59201.4,60.3984,-2059.76,0,0
59461.7,60.6323,-2050.38,0,0
59722,60.7366,-2041.66,0,0
59982.4,60.6596,-2032.64,0,0
60242.7,60.8473,-2023.84,0,0
60503,60.4705,-2015.27,0,0
60763.3,59.9859,-2006.64,0,0
61023.7,59.6582,-1997.85,0,0
61284,59.2419,-1989.18,0,0
61544.3,58.8674,-1980.66,0,0
61804.6,58.361,-1972.05,0,0
62065,57.9588,-1963.28,0,0
62325.3,57.6742,-1954.65,0,0
62585.6,57.3659,-1946.04,0,0
62845.9,56.9621,-1937.53,0,0
63106.3,56.7647,-1928.89,0,0
63366.6,56.7271,-1920.47,0,0
63626.9,56.8299,-1912.47,0,0
63887.2,56.4901,-1904.37,0,0
64147.6,56.123,-1896.26,0,0
64407.9,56.0277,-1888.18,0,0
64668.2,55.8169,-1879.88,0,0
64928.5,55.8281,-1871.72,0,0
65188.9,56.0803,-1863.89,0,0
65449.2,56.0179,-1856.39,0,0
65709.5,55.9721,-1848.86,0,0
65969.8,55.8641,-1841.41,0,0
66230.2,55.6238,-1833.98,0,0
66490.5,55.507,-1826.61,0,0
66750.8,55.1203,-1819.4,0,0
67011.1,54.5877,-1812.04,0,0
67271.5,54.232,-1804.42,0,0
67531.8,53.8593,-1797.06,0,0
67792.1,53.5904,-1789.69,0,0
68052.4,53.2751,-1782.29,0,0
68312.8,53.1601,-1774.82,0,0
68573.1,52.9898,-1767.72,0,0
68833.4,52.8126,-1760.59,0,0
69093.7,52.6617,-1753.35,0,0
69354.1,52.7562,-1746.38,0,0
69614.4,52.6053,-1739.35,0,0
69874.7,52.5526,-1732.47,0,0
70135,52.4556,-1725.51,0,0
70395.4,52.4873,-1718.76,0,0
70655.7,52.4711,-1712.02,0,0
70916,52.4494,-1705.42,0,0
71176.3,52.434,-1698.98,0,0
71436.7,52.0821,-1692.61,0,0
71697,51.8175,-1686.01,0,0
71957.3,51.5808,-1679.49,0,0
72217.6,51.3344,-1673.07,0,0
72478,51.052,-1666.59,0,0
72738.3,50.8441,-1660.11,0,0
72998.6,50.7592,-1653.69,0,0
73258.9,50.6008,-1647.3,0,0
73519.3,50.4085,-1641,0,0
73779.6,50.2298,-1634.71,0,0
74039.9,50.1393,-1628.47,0,0
74300.225,50.0091,-1622.27,0,0
74560.55,49.899,-1616.06,0,0
74820.875,49.9142,-1610.05,0,0
75081.2,49.7419,-1603.99,0,0
75341.525,49.6926,-1597.91,0,0
75601.85,49.5667,-1591.92,0,0
75862.175,49.4225,-1585.91,0,0
76122.5,49.3055,-1579.91,0,0
76382.825,49.2246,-1574.01,0,0
76643.15,49.2024,-1568.17,0,0
76903.475,49.1463,-1562.43,0,0
77163.8,49.0352,-1556.65,0,0
77424.125,49.0338,-1550.87,0,0
77684.45,48.9604,-1545.19,0,0
77944.775,48.9177,-1539.52,0,0
78205.1,48.7788,-1533.89,0,0
78465.425,48.7648,-1528.25,0,0
78725.75,48.7347,-1522.85,0,0
78986.075,48.6339,-1517.19,0,0
79246.4,48.5921,-1511.69,0,0
79506.725,48.5899,-1506.24,0,0
79767.05,48.5528,-1500.79,0,0
80027.375,48.5162,-1495.46,0,0
80287.7,48.4608,-1490.16,0,0
80548.025,48.3887,-1484.88,0,0
80808.35,48.2848,-1479.58,0,0
81068.675,48.199,-1474.26,0,0
81329.0,48.2006,-1468.96,0,0
81589.325,48.1496,-1463.78,0,0
81849.65,48.1318,-1458.63,0,0
82109.975,48.0783,-1453.43,0,0
82370.3,48.095,-1448.22,0,0
82630.625,48.0763,-1443.21,0,0
82890.95,47.9116,-1438.15,0,0
83151.275,47.8524,-1433.1,0,0
83411.6,47.8735,-1428.01,0,0
83671.925,47.9397,-1422.97,0,0
83932.25,47.9658,-1417.96,0,0
84192.575,48.0389,-1413.04,0,0
84452.9,48.041,-1408.17,0,0
84713.225,48.0669,-1403.29,0,0
84973.55,48.1231,-1398.39,0,0
85233.875,48.2432,-1393.62,0,0
85494.2,48.1729,-1388.95,0,0
85754.525,48.1228,-1384.26,0,0
86014.85,48.146,-1379.36,0,0
86275.175,48.1778,-1374.74,0,0
86535.5,48.2527,-1370.15,0,0
86795.825,48.239,-1365.4,0,0
87056.15,48.2937,-1360.76,0,0
87316.475,48.3465,-1356.19,0,0
87576.8,48.367,-1351.74,0,0
87837.125,48.3714,-1347.18,0,0
88097.45,48.386,-1342.66,0,0
88357.775,48.33,-1338.19,0,0
88618.1,48.3174,-1333.78,0,0
88878.425,48.3201,-1329.31,0,0
89138.75,48.2061,-1324.89,0,0
89399.075,48.174,-1320.27,0,0
89659.4,48.2412,-1315.87,0,0
89919.725,48.2174,-1311.45,0,0
90180,48.3017,-1307.01,0,0
90440.4,48.4441,-1302.53,0,0
90700.7,48.4945,-1298.31,0,0
90961,48.5371,-1293.94,0,0
91221.3,48.5949,-1289.58,0,0
91481.7,48.665,-1285.28,0,0
91742,48.769,-1281.07,0,0
92002.3,49.0181,-1276.75,0,0
92262.6,49.2255,-1272.58,0,0
92523,49.1927,-1268.56,0,0
92783.3,49.1795,-1264.3,0,0
93043.6,49.3115,-1259.99,0,0
93303.9,49.4317,-1255.73,0,0
93564.3,49.697,-1251.49,0,0
93824.6,50.2358,-1247.25,0,0
94084.9,50.7714,-1243.35,0,0
94345.2,51.1005,-1239.74,0,0
94605.6,51.2868,-1235.98,0,0
94865.9,51.5777,-1232.31,0,0
95126.2,51.7848,-1228.87,0,0
95386.5,51.5767,-1225.43,0,0
95646.9,51.2414,-1221.76,0,0
95907.2,51.0461,-1217.8,0,0
96167.5,50.9563,-1214.11,0,0
96427.8,50.6484,-1210.19,0,0
96688.2,50.6114,-1206.18,0,0
96948.5,50.4938,-1202.31,0,0
97208.8,50.4293,-1198.36,0,0
97469.1,50.4319,-1194.21,0,0
97729.5,50.6785,-1190.24,0,0
97989.8,50.8321,-1186.38,0,0
98250.1,51.1799,-1182.52,0,0
98510.4,51.4133,-1179.11,0,0
98770.8,51.3776,-1175.57,0,0
99031.1,51.2598,-1171.89,0,0
99291.4,51.1109,-1168.12,0,0
99551.7,50.9437,-1164.11,0,0
99812.1,51.1584,-1160.16,0,0
100072,51.375,-1156.24,0,0
100333,51.7031,-1152.57,0,0
100593,51.7567,-1148.87,0,0
100853,52.0993,-1144.96,0,0
101114,52.5184,-1141.34,0,0
101374,52.777,-1137.78,0,0
101634,53.0073,-1134.15,0,0
101895,53.2213,-1130.48,0,0
102155,53.5572,-1126.78,0,0
102415,53.9341,-1123.15,0,0
102676,54.4082,-1119.5,0,0
102936,55.044,-1115.89,0,0
103196,55.8008,-1112.62,0,0
103457,56.391,-1109.52,0,0
103717,56.9156,-1106.61,0,0
103977,56.986,-1103.69,0,0
104238,57.186,-1100.46,0,0
104498,57.4026,-1097.26,0,0
104758,57.7465,-1094.32,0,0
105019,57.8229,-1091.39,0,0
105279,57.7362,-1088.28,0,0
105539,57.7787,-1085.11,0,0
105800,57.8023,-1082.04,0,0
106060,57.5484,-1078.75,0,0
106320.175,57.5719,-1075.22,0,0
106580.5,57.8249,-1071.76,0,0
106840.825,58.2696,-1068.45,0,0
107101.15,58.5962,-1065.54,0,0
107361.475,58.5707,-1062.46,0,0
107621.8,58.5715,-1059.21,0,0
107882.125,58.7246,-1055.87,0,0
108142.45,58.9528,-1052.67,0,0
108402.775,59.1842,-1049.53,0,0
108663.1,59.2474,-1046.38,0,0
108923.425,59.467,-1043.17,0,0
109183.75,59.6048,-1040.06,0,0
109444.075,59.5892,-1036.93,0,0
109704.4,59.5677,-1033.57,0,0
109964.725,59.5859,-1030.09,0,0
110225.05,59.7485,-1026.39,0,0
110485.375,60.2521,-1022.72,0,0
110745.7,60.9314,-1019.15,0,0
111006.025,61.7494,-1015.93,0,0
111266.35,62.2959,-1012.98,0,0
111526.675,62.8424,-1009.61,0,0
111787.0,63.4355,-1006.31,0,0
112047.325,64.127,-1003.05,0,0
112307.65,64.9386,-999.733,0,0
112567.975,65.9635,-996.577,0,0
112828.3,66.9607,-993.587,0,0
113088.625,68.0041,-990.689,0,0
113348.95,68.9944,-987.936,0,0
113609.275,69.8361,-985.178,0,0
113869.6,70.6773,-982.471,0,0
114129.925,71.6522,-979.579,0,0
114390.25,72.6758,-976.94,0,0
114650.575,73.6055,-974.176,0,0
114910.9,74.7913,-971.42,0,0
115171.225,76.0259,-968.725,0,0
115431.55,77.4373,-966.134,0,0
115691.875,79.1094,-963.769,0,0
115952.2,80.6399,-961.797,0,0
116212.525,82.157,-959.815,0,0
116472.85,83.874,-958.291,0,0
116733.175,85.1722,-957.203,0,0
116993.5,86.1064,-955.944,0,0
117253.825,87.1161,-954.776,0,0
117514.15,87.8346,-953.79,0,0
117774.475,88.3165,-952.59,0,0
118034.8,88.8715,-951.213,0,0
118295.125,89.7523,-949.919,0,0
118555.45,90.725,-949.059,0,0
118815.775,91.427,-948.618,0,0
119076.1,91.8289,-948.31,0,0
119336.425,91.9556,-948.143,0,0
119596.75,91.8151,-948.293,0,0
119857.075,90.8691,-948.391,0,0
120117.4,89.8027,-948.146,0,0
120377.725,88.1492,-948.083,0,0
120638.05,86.0091,-947.353,0,0
120898.375,83.7553,-946.221,0,0
121158.7,81.3768,-944.386,0,0
121419.025,79.505,-941.931,0,0
121679.35,78.1155,-939.798,0,0
121939.675,76.43,-937.667,0,0
122200.0,74.8496,-935.293,0,0
122460,73.3052,-932.881,0,0
122721,71.7635,-930.231,0,0
122981,70.3992,-927.401,0,0
123241,69.231,-924.566,0,0
123502,68.046,-921.66,0,0
123762,67.1215,-918.632,0,0
124022,66.4532,-915.646,0,0
124283,65.8666,-912.928,0,0
124543,65.196,-910.224,0,0
124803,64.5497,-907.689,0,0
125064,63.647,-905.215,0,0
125324,62.6331,-902.459,0,0
125584,61.7493,-899.504,0,0
125845,61.0398,-896.581,0,0
126105,60.3103,-893.721,0,0
126365,59.583,-890.744,0,0
126626,59.0467,-887.631,0,0
126886,58.5304,-884.747,0,0
127146,57.7975,-881.639,0,0
127406,57.5112,-878.614,0,0
127667,57.2899,-875.559,0,0
127927,56.9952,-872.744,0,0
128187,56.5881,-869.89,0,0
128448,56.2177,-866.993,0,0
128708,55.8377,-864.103,0,0
128968,55.4478,-861.095,0,0
129229,55.2952,-858.082,0,0
129489,55.1661,-855.239,0,0
129749,54.903,-852.364,0,0
130010,54.7014,-849.44,0,0
130270,54.5733,-846.607,0,0
130530,54.345,-843.793,0,0
130791,54.0591,-841.015,0,0
131051,53.67,-838.068,0,0
131311,53.3955,-834.901,0,0
131572,53.3533,-831.8,0,0
131832,53.2836,-828.822,0,0
132092,53.1839,-825.782,0,0
132353,53.1856,-822.74,0,0
132613,53.1877,-819.681,0,0
132873,53.2359,-816.648,0,0
133134,53.2688,-813.509,0,0
133394,53.3619,-810.373,0,0
133654,53.6304,-807.116,0,0
133915,53.9874,-803.913,0,0
134175,54.5744,-800.756,0,0
134435,55.2169,-797.752,0,0
134696,55.8444,-794.94,0,0
134956,56.4326,-792.057,0,0
135216,57.1233,-789.108,0,0
135477,58.0057,-786.165,0,0
135737,59.2775,-783.452,0,0
135997,60.6149,-781.273,0,0
136258,61.6422,-779.46,0,0
136518,62.4887,-777.753,0,0
136778,63.1296,-776.389,0,0
137039,63.0902,-775.115,0,0
137299,62.706,-773.376,0,0
137559,62.3884,-771.26,0,0
137819,62.2442,-769.147,0,0
138080,61.907,-767.076,0,0
138340.125,61.4183,-764.81,0,0
138600.45,60.9117,-762.284,0,0
138860.775,60.5351,-759.515,0,0
139121.1,60.398,-756.618,0,0
139381.425,60.5015,-753.853,0,0
139641.75,60.6259,-751.156,0,0
139902.075,60.8254,-748.507,0,0
140162.4,60.9993,-746.022,0,0
140422.725,60.9882,-743.562,0,0
140683.05,60.9332,-740.94,0,0
140943.375,60.9532,-738.256,0,0
141203.7,61.0131,-735.536,0,0
141464.025,61.0613,-732.802,0,0
141724.35,61.157,-729.935,0,0
141984.675,61.4199,-727.115,0,0
142245.0,61.745,-724.329,0,0
142505.325,62.0051,-721.572,0,0
142765.65,62.3511,-718.756,0,0
143025.975,62.818,-715.94,0,0
143286.3,63.4017,-713.226,0,0
143546.625,63.9615,-710.667,0,0
143806.95,64.5483,-708.274,0,0
144067.275,64.9124,-705.889,0,0
144327.6,65.2327,-703.52,0,0
144587.925,65.4676,-701.037,0,0
144848.25,65.7175,-698.424,0,0
145108.575,66.1524,-695.898,0,0
145368.9,66.5414,-693.518,0,0
145629.225,66.7146,-691.177,0,0
145889.55,66.6983,-688.673,0,0
146149.875,66.823,-685.926,0,0
146410.2,67.1047,-683.16,0,0
146670.525,67.3936,-680.436,0,0
146930.85,67.7947,-677.68,0,0
147191.175,68.2432,-675.123,0,0
147451.5,68.5,-672.533,0,0
147711.825,68.8421,-669.78,0,0
147972.15,69.3684,-667.165,0,0
148232.475,69.7418,-664.757,0,0
148492.8,69.9024,-662.377,0,0
148753.125,69.8724,-659.875,0,0
149013.45,69.6956,-657.173,0,0
149273.775,69.5746,-654.161,0,0
149534.1,69.6684,-651.003,0,0
149794.425,69.8576,-647.898,0,0
150054.75,70.0575,-644.774,0,0
150315.075,70.2545,-641.599,0,0
150575.4,70.4672,-638.289,0,0
150835.725,70.7792,-634.894,0,0
151096.05,71.1815,-631.415,0,0
151356.375,71.7318,-627.891,0,0
151616.7,72.3695,-624.337,0,0
151877.025,73.0963,-620.811,0,0
152137.35,73.9072,-617.283,0,0
152397.675,74.7612,-613.705,0,0
152658.0,75.7424,-610.103,0,0
152918.325,76.8277,-606.515,0,0
153178.65,77.9699,-603.002,0,0
153438.975,79.1099,-599.504,0,0
153699.3,80.282,-595.861,0,0
153959.625,81.6116,-592.156,0,0
154219.95,83.1338,-588.495,0,0
154480,84.7322,-584.89,0,0
154741,86.4165,-581.342,0,0
155001,88.1298,-577.801,0,0
155261,89.9361,-574.275,0,0
155522,91.9052,-570.696,0,0
155782,94.0532,-567.172,0,0
156042,96.3323,-563.809,0,0
156303,98.6424,-560.582,0,0
156563,100.984,-557.389,0,0
156823,103.4,-554.237,0,0
157084,106.008,-551.147,0,0
157344,108.813,-548.28,0,0
157604,111.573,-545.703,0,0
157864,114.239,-543.299,0,0
158125,116.905,-540.939,0,0
158385,119.686,-538.837,0,0
158645,122.25,-537.209,0,0
158906,124.356,-535.679,0,0
159166,126.144,-534.145,0,0
159426,127.655,-532.545,0,0
159687,128.759,-530.825,0,0
159947,129.539,-528.768,0,0
160207,130.177,-526.191,0,0
160468,130.865,-523.248,0,0
160728,131.541,-520.04,0,0
160988,132.145,-516.237,0,0
161249,133.109,-511.938,0,0
161509,134.538,-507.182,0,0
161769,136.59,-502.207,0,0
162030,139.178,-497.237,0,0
162290,142.321,-492.413,0,0
162550,145.593,-487.867,0,0
162811,148.993,-483.227,0,0
163071,152.757,-478.461,0,0
163331,157.069,-473.665,0,0
163592,161.938,-469.228,0,0
163852,166.985,-465.242,0,0
164112,172.019,-461.403,0,0
164373,177.299,-457.705,0,0
164633,182.84,-454.117,0,0
164893,188.426,-451.113,0,0
165154,193.823,-448.179,0,0
165414,198.902,-444.86,0,0
165674,204.347,-441.052,0,0
165935,210.538,-436.849,0,0
166195,217.791,-432.543,0,0
166455,226.085,-428.982,0,0
166716,234.687,-426.325,0,0
166976,243.392,-423.966,0,0
167236,252.827,-422.026,0,0
167497,262.578,-420.925,0,0
167757,272.654,-420.134,0,0
168017,283.379,-420.002,0,0
168277,294.881,-421.157,0,0
168538,306.211,-423.998,0,0
168798,316.847,-427.909,0,0
169058,326.999,-432.647,0,0
169319,336.513,-438.116,0,0
169579,345.352,-443.845,0,0
169839,354.129,-449.678,0,0
170100,363.115,-456.166,0,0
170360.075,372.205,-464.328,0,0
170620.4,379.677,-474.032,0,0
170880.725,385.388,-483.533,0,0
171141.05,390.837,-492.491,0,0
171401.375,396.243,-502.118,0,0
171661.7,400.925,-512.195,0,0
171922.025,405.446,-522.856,0,0
172182.35,409.251,-535.101,0,0
172442.675,410.722,-548.354,0,0
172703.0,410.268,-561.071,0,0
172963.325,408.636,-573.586,0,0
173223.65,405.298,-585.934,0,0
173483.975,399.95,-597.404,0,0
173744.3,393.31,-607.221,0,0
174004.625,386.136,-615.706,0,0
174264.95,377.986,-622.942,0,0
174525.275,369.285,-628.408,0,0
174785.6,360.49,-631.86,0,0
175045.925,352.664,-633.647,0,0
175306.25,345.723,-634.802,0,0
175566.575,338.619,-635.044,0,0
175826.9,332.414,-633.432,0,0
176087.225,328.074,-630.98,0,0
176347.55,325.037,-628.383,0,0
176607.875,323.593,-625.37,0,0
176868.2,324.125,-622.853,0,0
177128.525,326.199,-621.785,0,0
177388.85,328.587,-622.506,0,0
177649.175,330.986,-624.031,0,0
177909.5,334.025,-626.57,0,0
178169.825,337.596,-631.14,0,0
178430.15,340.157,-638.547,0,0
178690.475,339.894,-647.497,0,0
178950.8,336.962,-656.028,0,0
179211.125,332.533,-663.432,0,0
179471.45,327.32,-670.064,0,0
179731.775,321.001,-675.951,0,0
179992.1,314.188,-680.007,0,0
180252.425,308.514,-683.251,0,0
180512.75,303.23,-687.127,0,0
180773.075,297.52,-691.678,0,0
181033.4,290.277,-696.971,0,0
181293.725,280.625,-701.066,0,0
181554.05,270.485,-702.511,0,0
181814.375,261.37,-702.712,0,0
182074.7,252.326,-702.61,0,0
182335.025,243.016,-701.599,0,0
182595.35,233.839,-699.387,0,0
182855.675,225.314,-695.813,0,0
183116.0,218.235,-691.571,0,0
183376.325,212.14,-687.878,0,0
183636.65,205.733,-684.447,0,0
183896.975,199.172,-680.17,0,0
184157.3,193.273,-675.095,0,0
184417.625,188.315,-669.59,0,0
184677.95,184.46,-664.369,0,0
184938.275,180.956,-659.814,0,0
185198.6,177.303,-655.513,0,0
185458.925,173.623,-651.319,0,0
185719.25,169.558,-646.907,0,0
185979.575,165.589,-641.752,0,0
186239.9,162.299,-636.081,0,0
186500,159.774,-630.484,0,0
186761,157.476,-625.135,0,0
187021,155.346,-619.546,0,0
187281,153.89,-613.846,0,0
187542,153.097,-608.361,0,0
187802,152.784,-603.339,0,0
188062,152.774,-598.918,0,0
188322,152.811,-595.217,0,0
188583,152.394,-592.208,0,0
188843,151.199,-589.326,0,0
189103,149.492,-586.04,0,0
189364,147.708,-582.233,0,0
189624,146.109,-578.121,0,0
189884,144.621,-573.797,0,0
190145,143.464,-569.385,0,0
190405,142.257,-565.265,0,0
190665,140.687,-560.843,0,0
190926,139.241,-555.717,0,0
191186,138.531,-550.209,0,0
191446,138.457,-544.987,0,0
191707,138.487,-540.142,0,0
191967,138.416,-535.396,0,0
192227,138.301,-530.484,0,0
192488,138.417,-525.45,0,0
192748,138.742,-520.403,0,0
193008,139.243,-515.328,0,0
193269,140.012,-510.275,0,0
193529,140.915,-505.355,0,0
193789,141.877,-500.446,0,0
194050,142.963,-495.456,0,0
194310,144.266,-490.433,0,0
194570,145.822,-485.401,0,0
194831,147.681,-480.45,0,0
195091,149.761,-475.75,0,0
195351,151.97,-471.19,0,0
195612,154.282,-466.731,0,0
195872,156.709,-462.483,0,0
196132,159.061,-458.458,0,0
196393,161.509,-454.432,0,0
196653,163.979,-450.473,0,0
196913,166.686,-446.664,0,0
197174,169.33,-443.042,0,0
197434,172.002,-439.477,0,0
197694,174.408,-436.225,0,0
197955,176.605,-432.821,0,0
198215,178.848,-429.179,0,0
198475,181.353,-425.397,0,0
198735,183.812,-421.722,0,0
198996,186.343,-418.07,0,0
199256,188.726,-414.288,0,0
199516,191.222,-410.238,0,0
199777,194.01,-405.964,0,0
200037,197.103,-401.605,0,0
200297,200.575,-397.343,0,0
200558,204.24,-393.301,0,0
200818,207.9,-389.413,0,0
201078,211.393,-385.318,0,0
201339,215.233,-380.951,0,0
201599,219.546,-376.501,0,0
201859,224.354,-372.223,0,0
202120,229.469,-368.199,0,0
202380.025,234.845,-364.438,0,0
202640.35,240.231,-360.903,0,0
202900.675,245.824,-357.434,0,0
203161.0,251.697,-353.992,0,0
203421.325,257.839,-350.85,0,0
203681.65,264.187,-347.882,0,0
203941.975,270.856,-345.223,0,0
204202.3,277.677,-342.816,0,0
204462.625,284.642,-340.764,0,0
204722.95,291.646,-339.03,0,0
204983.275,298.747,-337.257,0,0
205243.6,306.469,-335.652,0,0
205503.925,314.634,-334.824,0,0
205764.25,322.821,-334.838,0,0
206024.575,330.775,-335.456,0,0
206284.9,338.513,-336.675,0,0
206545.225,346.044,-338.335,0,0
206805.55,353.011,-340.81,0,0
207065.875,358.969,-343.486,0,0
207326.2,364.116,-345.962,0,0
207586.525,368.758,-347.758,0,0
207846.85,373.116,-348.813,0,0
208107.175,377.794,-349.232,0,0
208367.5,382.959,-348.717,0,0
208627.825,389.069,-347.881,0,0
208888.15,396.541,-346.998,0,0
209148.475,405.019,-347.025,0,0
209408.8,414.218,-347.708,0,0
209669.125,424.012,-349.364,0,0
209929.45,434.328,-351.994,0,0
210189.775,445.169,-356.066,0,0
210450.1,455.83,-362.067,0,0
210710.425,465.459,-369.727,0,0
210970.75,473.636,-377.991,0,0
211231.075,481.148,-386.603,0,0
211491.4,487.904,-395.855,0,0
211751.725,493.68,-405.73,0,0
212012.05,498.121,-415.927,0,0
212272.375,501.367,-425.672,0,0
212532.7,504.364,-435.187,0,0
212793.025,506.775,-445.068,0,0
213053.35,507.824,-454.975,0,0
213313.675,507.971,-463.969,0,0
213574.0,508.133,-472.221,0,0
213834.325,508.295,-480.429,0,0
214094.65,508.119,-488.877,0,0
214354.975,507.221,-497.386,0,0
214615.3,505.346,-505.529,0,0
214875.625,502.9,-512.737,0,0
215135.95,500.37,-518.98,0,0
215396.275,498.229,-524.625,0,0
215656.6,496.476,-530.026,0,0
215916.925,495.124,-535.406,0,0
216177.25,494.301,-541.172,0,0
216437.575,493.418,-547.777,0,0
216697.9,491.79,-555.283,0,0
216958.225,488.645,-563.041,0,0
217218.55,484.207,-569.904,0,0
217478.875,479.64,-575.561,0,0
217739.2,475.223,-580.859,0,0
217999.525,470.645,-585.992,0,0
218259.85,465.881,-590.878,0,0
218520,460.791,-595.755,0,0
218780,454.949,-600.417,0,0
219041,448.287,-604.308,0,0
219301,441.381,-607.025,0,0
219561,434.588,-608.911,0,0
219822,427.94,-610.18,0,0
220082,421.11,-610.477,0,0
220342,414.787,-609.848,0,0
220603,408.985,-608.548,0,0
220863,403.879,-606.687,0,0
221123,399.294,-604.578,0,0
221384,395.157,-602.113,0,0
221644,391.556,-599.227,0,0
221904,388.829,-595.993,0,0
222165,386.971,-592.776,0,0
222425,385.728,-590.027,0,0
222685,384.84,-587.547,0,0
222946,384.101,-585.212,0,0
223206,383.679,-582.98,0,0
223466,383.591,-580.81,0,0
223727,383.824,-578.955,0,0
223987,384.207,-577.391,0,0
224247,384.367,-575.99,0,0
224508,384.499,-574.556,0,0
224768,384.77,-572.667,0,0
225028,385.489,-570.435,0,0
225289,386.889,-568.11,0,0
225549,389.194,-565.962,0,0
225809,392.149,-564.302,0,0
226070,395.629,-563.37,0,0
226330,399.312,-563.253,0,0
226590,402.852,-563.861,0,0
226851,406.106,-564.819,0,0
227111,409.326,-565.898,0,0
227371,412.689,-567.189,0,0
227632,416.368,-568.814,0,0
227892,420.257,-571.13,0,0
228152,424.05,-574.164,0,0
228413,427.624,-577.9,0,0
228673,430.857,-582.125,0,0
228933,433.584,-586.931,0,0
229193,435.651,-592.068,0,0
229454,437.111,-597.231,0,0
229714,438.502,-602.137,0,0
229974,440.099,-607.264,0,0
230235,441.557,-613.236,0,0
230495,442.417,-619.795,0,0
230755,442.425,-626.85,0,0
231016,441.292,-633.891,0,0
231276,439.29,-640.412,0,0
231536,437.079,-646.382,0,0
231797,434.933,-652.029,0,0
232057,432.861,-657.886,0,0
232317,430.548,-664.178,0,0
232578,427.549,-670.836,0,0
232838,423.628,-677.404,0,0
233098,419.137,-683.584,0,0
233359,414.325,-689.669,0,0
233619,408.801,-695.837,0,0
233879,402.252,-701.649,0,0
234140,395.002,-706.751,0,0
234400,387.123,-711.282,0,0
234660.3,378.525,-714.969,0,0
234920.625,369.273,-717.344,0,0
235180.95,359.968,-718.208,0,0
235441.275,351.389,-717.826,0,0
235701.6,343.569,-716.712,0,0
235961.925,336.448,-714.995,0,0
236222.25,330.15,-713.004,0,0
236482.575,324.562,-711.028,0,0
236742.9,319.446,-709.477,0,0
237003.225,314.387,-708.244,0,0
237263.55,308.817,-707.033,0,0
237523.875,303.045,-705.331,0,0
237784.2,297.185,-703.252,0,0
238044.525,291.361,-700.542,0,0
238304.85,285.496,-697.091,0,0
238565.175,280.169,-692.736,0,0
238825.5,275.856,-687.519,0,0
239085.825,272.679,-682.107,0,0
239346.15,270.841,-676.739,0,0
239606.475,269.999,-672.03,0,0
239866.8,269.912,-668.142,0,0
240127.125,270.233,-665.275,0,0
240387.45,270.416,-663.444,0,0
240647.775,270.23,-662.411,0,0
240908.1,269.3,-661.738,0,0
241168.425,267.769,-661.094,0,0
241428.75,265.841,-660.326,0,0
241689.075,263.717,-659.444,0,0
241949.4,261.234,-658.585,0,0
242209.725,258.125,-657.309,0,0
242470.05,254.777,-655.289,0,0
242730.375,251.675,-652.454,0,0
242990.7,249.195,-649.264,0,0
243251.025,247.037,-646.133,0,0
243511.35,244.858,-642.772,0,0
243771.675,242.944,-638.829,0,0
244032.0,241.702,-634.48,0,0
244292.325,241.346,-630.116,0,0
244552.65,241.79,-625.848,0,0
244812.975,242.904,-622.28,0,0
245073.3,244.248,-619.504,0,0
245333.625,245.703,-617.1,0,0
245593.95,247.094,-615.379,0,0
245854.275,248.355,-614.05,0,0
246114.6,249.234,-613.1,0,0
246374.925,249.718,-612.188,0,0
246635.25,250.12,-611.21,0,0
246895.575,250.342,-610.305,0,0
247155.9,250.379,-609.328,0,0
247416.225,250.338,-608.165,0,0
247676.55,250.365,-606.861,0,0
247936.875,250.574,-605.582,0,0
248197.2,250.789,-604.365,0,0
248457.525,251.085,-603.075,0,0
248717.85,251.392,-601.793,0,0
248978.175,251.85,-600.477,0,0
249238.5,252.529,-599.211,0,0
249498.825,253.317,-598.193,0,0
249759.15,254.074,-597.234,0,0
250019.475,254.84,-596.513,0,0
250279.8,255.623,-595.843,0,0
250540,256.298,-595.186,0,0
250800,257.106,-594.537,0,0
251061,257.989,-593.978,0,0
251321,258.984,-593.54,0,0
251581,260.04,-593.227,0,0
251842,261.196,-593.183,0,0
252102,262.321,-593.342,0,0
252362,263.363,-593.743,0,0
252623,264.275,-594.328,0,0
252883,265.145,-595.092,0,0
253143,265.882,-596.092,0,0
253404,266.381,-597.308,0,0
253664,266.585,-598.655,0,0
253924,266.549,-600.12,0,0
254185,266.194,-601.506,0,0
254445,265.456,-602.86,0,0
254705,264.607,-604.13,0,0
254966,263.632,-605.28,0,0
255226,262.245,-606.335,0,0
255486,260.847,-607.175,0,0
255747,259.262,-607.856,0,0
256007,257.581,-608.347,0,0
256267,255.841,-608.632,0,0
256528,254.11,-608.856,0,0
256788,252.247,-608.862,0,0
257048,250.3,-608.67,0,0
257309,248.306,-608.199,0,0
257569,246.406,-607.466,0,0
257829,244.618,-606.538,0,0
258090,242.904,-605.405,0,0
258350,241.401,-604.031,0,0
258610,240.166,-602.573,0,0
258871,239.17,-601.124,0,0
259131,238.31,-599.772,0,0
259391,237.548,-598.471,0,0
259651,236.66,-597.229,0,0
259912,235.67,-595.932,0,0
260172,234.715,-594.297,0,0
260432,233.899,-592.515,0,0
260693,233.269,-590.564,0,0
260953,232.91,-588.437,0,0
261213,232.794,-586.215,0,0
261474,232.979,-583.943,0,0
261734,233.461,-581.668,0,0
261994,234.365,-579.433,0,0
262255,235.64,-577.371,0,0
262515,237.243,-575.542,0,0
262775,239.117,-574.008,0,0
263036,241.242,-572.841,0,0
263296,243.524,-572.132,0,0
263556,245.782,-571.881,0,0
263817,247.987,-572.096,0,0
264077,249.952,-572.691,0,0
264337,251.59,-573.581,0,0
264598,252.92,-574.64,0,0
264858,253.917,-575.751,0,0
265118,254.601,-576.826,0,0
265379,254.954,-577.727,0,0
265639,255.372,-578.363,0,0
265899,255.826,-578.856,0,0
266160,256.42,-579.252,0,0
266420,257.224,-579.688,0,0
266680.25,258.179,-580.359,0,0
266940.575,259.142,-581.249,0,0
267200.9,260.009,-582.335,0,0
267461.225,260.793,-583.517,0,0
267721.55,261.463,-584.869,0,0
267981.875,262.037,-586.385,0,0
268242.2,262.36,-588.005,0,0
268502.525,262.415,-589.592,0,0
268762.85,262.261,-591.047,0,0
269023.175,262.031,-592.277,0,0
269283.5,261.92,-593.352,0,0
269543.825,261.84,-594.35,0,0
269804.15,261.907,-595.337,0,0
270064.475,262.199,-596.3,0,0
270324.8,262.595,-597.393,0,0
270585.125,263.195,-598.57,0,0
270845.45,263.816,-599.919,0,0
271105.775,264.597,-601.449,0,0
271366.1,265.657,-603.181,0,0
271626.425,267.036,-605.32,0,0
271886.75,268.576,-608.088,0,0
272147.075,270.141,-611.731,0,0
272407.4,271.294,-616.373,0,0
272667.725,271.643,-621.805,0,0
272928.05,270.941,-627.729,0,0
273188.375,269.233,-633.853,0,0
273448.7,266.492,-640.039,0,0
273709.025,262.747,-646.007,0,0
273969.35,257.952,-651.552,0,0
274229.675,252.394,-656.474,0,0
274490.0,246.254,-660.658,0,0
274750.325,239.605,-664.265,0,0
275010.65,232.4,-667.291,0,0
275270.975,224.643,-669.364,0,0
275531.3,216.641,-670.405,0,0
275791.625,208.717,-670.326,0,0
276051.95,201.139,-669.455,0,0
276312.275,193.822,-667.961,0,0
276572.6,186.749,-665.912,0,0
276832.925,179.891,-663.214,0,0
277093.25,173.383,-659.846,0,0
277353.575,167.393,-655.834,0,0
277613.9,162.044,-651.353,0,0
277874.225,157.371,-646.566,0,0
278134.55,153.338,-641.592,0,0
278394.875,149.984,-636.557,0,0
278655.2,147.209,-631.592,0,0
278915.525,144.909,-626.812,0,0
279175.85,142.951,-622.239,0,0
279436.175,141.239,-617.711,0,0
279696.5,139.825,-613.229,0,0
279956.825,138.698,-608.853,0,0
280217.15,138.041,-604.581,0,0
280477.475,137.674,-600.485,0,0
280737.8,137.689,-596.745,0,0
280998.125,137.897,-593.457,0,0
281258.45,138.058,-590.598,0,0
281518.775,138.092,-588.068,0,0
281779.1,137.905,-585.755,0,0
282039.425,137.485,-583.475,0,0
282299.75,136.868,-581.203,0,0
282560,136.041,-578.796,0,0
282820,135.161,-576.123,0,0
283081,134.319,-573.22,0,0
283341,133.655,-570.109,0,0
283601,133.215,-566.837,0,0
283862,133.074,-563.499,0,0
284122,133.187,-560.14,0,0
284382,133.552,-556.924,0,0
284643,134.107,-553.755,0,0
284903,134.828,-550.704,0,0
285163,135.743,-547.816,0,0
285424,136.831,-545.036,0,0
285684,138.044,-542.452,0,0
285944,139.385,-540.097,0,0
286205,140.808,-537.919,0,0
286465,142.253,-536.008,0,0
286725,143.613,-534.385,0,0
286986,144.838,-532.938,0,0
287246,145.894,-531.559,0,0
287506,146.826,-530.246,0,0
287767,147.638,-528.94,0,0
288027,148.335,-527.614,0,0
288287,148.934,-526.219,0,0
288548,149.518,-524.717,0,0
288808,150.104,-523.099,0,0
289068,150.773,-521.443,0,0
289329,151.516,-519.739,0,0
289589,152.305,-518.057,0,0
289849,153.154,-516.367,0,0
290109,154.015,-514.597,0,0
290370,154.979,-512.747,0,0
290630,156.159,-510.886,0,0
290890,157.503,-509.091,0,0
291151,158.981,-507.411,0,0
291411,160.581,-505.875,0,0
291671,162.216,-504.5,0,0
291932,163.814,-503.29,0,0
292192,165.374,-502.139,0,0
292452,166.907,-501.019,0,0
292713,168.47,-499.934,0,0
292973,170.018,-498.914,0,0
293233,171.584,-497.901,0,0
293494,173.138,-496.916,0,0
293754,174.729,-495.943,0,0
294014,176.341,-495.01,0,0
294275,177.959,-494.112,0,0
294535,179.559,-493.153,0,0
294795,181.281,-492.151,0,0
295056,183.116,-491.153,0,0
295316,185.083,-490.201,0,0
295576,187.146,-489.318,0,0
295837,189.341,-488.506,0,0
296097,191.639,-487.758,0,0
296357,194.053,-487.132,0,0
296618,196.597,-486.636,0,0
296878,199.238,-486.281,0,0
297138,201.956,-486.121,0,0
297399,204.745,-486.149,0,0
297659,207.573,-486.354,0,0
297919,210.402,-486.811,0,0
298180,213.146,-487.425,0,0
298440,215.844,-488.143,0,0
298700.2,218.525,-488.97,0,0
298960.525,221.232,-489.962,0,0
299220.85,223.829,-491,0,0
299481.175,226.533,-492.13,0,0
299741.5,229.374,-493.402,0,0
300001.825,232.074,-494.838,0,0
300262.15,234.929,-496.433,0,0
300522.475,237.911,-498.258,0,0
300782.8,240.851,-500.28,0,0
301043.125,243.834,-502.614,0,0
301303.45,246.885,-505.108,0,0
301563.775,250.001,-508.116,0,0
301824.1,253.102,-511.485,0,0
302084.425,256.289,-515.377,0,0
302344.75,259.116,-520.011,0,0
302605.075,261.512,-525.246,0,0
302865.4,263.259,-530.979,0,0
303125.725,264.235,-537.061,0,0
303386.05,264.384,-543.261,0,0
303646.375,263.727,-549.424,0,0
303906.7,262.352,-555.338,0,0
304167.025,260.419,-560.897,0,0
304427.35,258.025,-566.092,0,0
304687.675,255.294,-570.909,0,0
304948.0,252.294,-575.36,0,0
305208.325,249.058,-579.51,0,0
305468.65,245.678,-583.428,0,0
305728.975,242.037,-587.056,0,0
305989.3,238.178,-590.419,0,0
306249.625,234.061,-593.417,0,0
306509.95,229.794,-596.031,0,0
306770.275,225.431,-598.23,0,0
307030.6,221.069,-600.037,0,0
307290.925,216.737,-601.509,0,0
307551.25,212.486,-602.702,0,0
307811.575,208.288,-603.65,0,0
308071.9,204.151,-604.39,0,0
308332.225,200.005,-604.924,0,0
308592.55,195.896,-605.201,0,0
308852.875,191.829,-605.198,0,0
309113.2,187.842,-604.933,0,0
309373.525,183.978,-604.385,0,0
309633.85,180.333,-603.645,0,0
309894.175,176.891,-602.7,0,0
310154.5,173.654,-601.665,0,0
310414.825,170.626,-600.569,0,0
310675.15,167.761,-599.39,0,0
310935.475,165.041,-598.207,0,0
311195.8,162.425,-597.001,0,0
311456.125,159.913,-595.767,0,0
311716.45,157.505,-594.487,0,0
311976.775,155.189,-593.219,0,0
312237.1,152.964,-591.914,0,0
312497.425,150.818,-590.593,0,0
312757.75,148.72,-589.255,0,0
313018.075,146.719,-587.93,0,0
313278.4,144.721,-586.564,0,0
313538.725,142.765,-585.199,0,0
313799.05,140.85,-583.74,0,0
314059.375,138.992,-582.226,0,0
314319.7,137.219,-580.621,0,0
314580,135.524,-578.987,0,0
314840,133.968,-577.261,0,0
315101,132.506,-575.486,0,0
315361,131.184,-573.751,0,0
315621,130.026,-571.995,0,0
315882,128.958,-570.277,0,0
316142,128.006,-568.609,0,0
316402,127.17,-567.003,0,0
316663,126.39,-565.472,0,0
316923,125.69,-564.025,0,0
317183,124.968,-562.65,0,0
317444,124.261,-561.296,0,0
317704,123.588,-559.984,0,0
317964,122.906,-558.683,0,0
318225,122.293,-557.419,0,0
318485,121.67,-556.152,0,0
318745,121.074,-554.892,0,0
319006,120.53,-553.605,0,0
319266,120.062,-552.366,0,0
319526,119.656,-551.168,0,0
319787,119.288,-550.005,0,0
320047,118.963,-548.918,0,0
320307,118.688,-547.892,0,0
320567,118.391,-546.914,0,0
320828,118.11,-545.981,0,0
321088,117.851,-545.14,0,0
321348,117.575,-544.331,0,0
321609,117.288,-543.574,0,0
321869,116.967,-542.889,0,0
322129,116.634,-542.218,0,0
322390,116.252,-541.601,0,0
322650,115.857,-540.997,0,0
322910,115.403,-540.422,0,0
323171,114.908,-539.826,0,0
323431,114.379,-539.245,0,0
323691,113.817,-538.647,0,0
323952,113.228,-538.011,0,0
324212,112.634,-537.349,0,0
324472,112.041,-536.638,0,0
324733,111.485,-535.911,0,0
324993,110.952,-535.19,0,0
325253,110.465,-534.417,0,0
325514,110.01,-533.704,0,0
325774,109.575,-533.019,0,0
326034,109.142,-532.384,0,0
326295,108.716,-531.755,0,0
326555,108.274,-531.159,0,0
326815,107.844,-530.595,0,0
327076,107.382,-530.063,0,0
327336,106.901,-529.553,0,0
327596,106.381,-529.048,0,0
327857,105.833,-528.563,0,0
328117,105.244,-528.067,0,0
328377,104.64,-527.554,0,0
328638,104.008,-527.021,0,0
328898,103.406,-526.482,0,0
329158,102.77,-525.94,0,0
329419,102.15,-525.397,0,0
329679,101.506,-524.866,0,0
329939,100.865,-524.297,0,0
330200,100.183,-523.734,0,0
330460,99.5513,-523.162,0,0
330720.15,98.9157,-522.581,0,0
330980.475,98.2183,-522.042,0,0
331240.8,97.6191,-521.568,0,0
331501.125,96.8813,-521.015,0,0
331761.45,96.1443,-520.541,0,0
332021.775,95.3404,-520.059,0,0
332282.1,94.5928,-519.584,0,0
332542.425,93.7473,-519.024,0,0
332802.75,92.8253,-518.449,0,0
333063.075,91.8416,-517.91,0,0
333323.4,90.8592,-517.227,0,0
333583.725,89.798,-516.525,0,0
333844.05,88.7965,-515.753,0,0
334104.375,87.8169,-514.9,0,0
334364.7,86.7989,-514.034,0,0
334625.025,85.8383,-513.105,0,0
334885.35,84.9721,-512.192,0,0
335145.675,84.0209,-511.136,0,0
335406.0,83.085,-510.186,0,0
335666.325,82.2256,-509.122,0,0
335926.65,81.2989,-508.128,0,0
336186.975,80.4624,-506.947,0,0
336447.3,79.5842,-505.807,0,0
336707.625,78.7224,-504.695,0,0
336967.95,77.9865,-503.37,0,0
337228.275,77.194,-502.181,0,0
337488.6,76.5005,-500.92,0,0
337748.925,75.8126,-499.581,0,0
338009.25,75.127,-498.322,0,0
338269.575,74.5692,-496.98,0,0
338529.9,74.0061,-495.686,0,0
338790.225,73.5185,-494.4,0,0
339050.55,73.0163,-493.019,0,0
339310.875,72.5604,-491.703,0,0
339571.2,72.1247,-490.438,0,0
339831.525,71.6701,-489.138,0,0
340091.85,71.3284,-487.815,0,0
340352.175,70.9772,-486.514,0,0
340612.5,70.6326,-485.256,0,0
340872.825,70.241,-483.949,0,0
341133.15,70.0111,-482.598,0,0
341393.475,69.6879,-481.262,0,0
341653.8,69.4433,-479.941,0,0
341914.125,69.2311,-478.575,0,0
342174.45,69.0709,-477.298,0,0
342434.775,68.9445,-475.91,0,0
342695.1,68.8553,-474.603,0,0
342955.425,68.7976,-473.309,0,0
343215.75,68.794,-472.016,0,0
343476.075,68.828,-470.751,0,0
343736.4,68.8838,-469.53,0,0
343996.725,68.9246,-468.271,0,0
344257.05,69.1096,-467.136,0,0
344517.375,69.1719,-466.023,0,0
344777.7,69.262,-464.933,0,0
345038.025,69.4308,-463.89,0,0
345298.35,69.5347,-462.814,0,0
345558.675,69.7473,-461.81,0,0
345819.0,69.8978,-460.835,0,0
346079.325,70.0597,-459.853,0,0
346339.65,70.2275,-458.929,0,0
346599.975,70.4013,-458.103,0,0
346860,70.4885,-457.285,0,0
347121,70.5747,-456.47,0,0
347381,70.6413,-455.736,0,0
347641,70.6405,-454.932,0,0
347902,70.6343,-454.153,0,0
348162,70.5993,-453.374,0,0
348422,70.4928,-452.569,0,0
348683,70.383,-451.776,0,0
348943,70.2078,-450.847,0,0
349203,70.1264,-449.907,0,0
349464,70.008,-449.027,0,0
349724,69.946,-448.063,0,0
349984,69.87,-447.149,0,0
350245,69.7817,-446.141,0,0
350505,69.671,-445.122,0,0
350765,69.5805,-444.079,0,0
351025,69.5189,-442.911,0,0
351286,69.5595,-441.839,0,0
351546,69.606,-440.705,0,0
351806,69.7597,-439.555,0,0
352067,69.9431,-438.337,0,0
352327,70.173,-437.317,0,0
352587,70.4523,-436.236,0,0
352848,70.7707,-435.215,0,0
353108,71.0693,-434.188,0,0
353368,71.4608,-433.234,0,0
353629,71.8637,-432.318,0,0
353889,72.257,-431.419,0,0
354149,72.6342,-430.615,0,0
354410,73.0591,-429.792,0,0
354670,73.4459,-429.021,0,0
354930,73.8672,-428.313,0,0
355191,74.3501,-427.566,0,0
355451,74.8094,-426.989,0,0
355711,75.2452,-426.457,0,0
355972,75.5684,-426.025,0,0
356232,75.826,-425.637,0,0
356492,75.997,-425.227,0,0
356753,76.1238,-424.844,0,0
357013,76.1615,-424.384,0,0
357273,76.1322,-423.913,0,0
357534,76.053,-423.401,0,0
357794,75.9934,-422.828,0,0
358054,75.8326,-422.239,0,0
358315,75.6749,-421.539,0,0
358575,75.5144,-420.823,0,0
358835,75.3399,-419.963,0,0
359096,75.2223,-419.1,0,0
359356,75.107,-418.19,0,0
359616,75.1139,-417.185,0,0
359877,75.1541,-416.196,0,0
360137,75.2063,-415.161,0,0
360397,75.3287,-414.163,0,0
360658,75.5742,-413.054,0,0
360918,75.7931,-412.099,0,0
361178,76.121,-411.022,0,0
361438,76.4344,-410.058,0,0
361699,76.7873,-409.067,0,0
361959,77.2239,-408.155,0,0
362219,77.6449,-407.262,0,0
362480,78.1094,-406.398,0,0
362740.1,78.5708,-405.554,0,0
363000.425,79.0528,-404.725,0,0
363260.75,79.5317,-403.961,0,0
363521.075,80.0418,-403.203,0,0
363781.4,80.5709,-402.463,0,0
364041.725,81.0584,-401.764,0,0
364302.05,81.5635,-401.043,0,0
364562.375,82.1426,-400.365,0,0
364822.7,82.7329,-399.706,0,0
365083.025,83.3031,-399.105,0,0
365343.35,83.9214,-398.544,0,0
365603.675,84.4952,-398.051,0,0
365864.0,85.101,-397.62,0,0
366124.325,85.6566,-397.215,0,0
366384.65,86.1315,-396.821,0,0
366644.975,86.6242,-396.428,0,0
366905.3,87.0251,-396.059,0,0
367165.625,87.4818,-395.699,0,0
367425.95,87.8419,-395.282,0,0
367686.275,88.3115,-394.921,0,0
367946.6,88.7169,-394.503,0,0
368206.925,89.1475,-394.194,0,0
368467.25,89.5718,-393.904,0,0
368727.575,89.9875,-393.589,0,0
368987.9,90.42,-393.318,0,0
369248.225,90.8758,-393.078,0,0
369508.55,91.2309,-392.929,0,0
369768.875,91.627,-392.84,0,0
370029.2,91.847,-392.807,0,0
370289.525,92.0232,-392.787,0,0
370549.85,92.0989,-392.776,0,0
370810.175,92.0299,-392.769,0,0
371070.5,91.9293,-392.607,0,0
371330.825,91.7224,-392.395,0,0
371591.15,91.4893,-392.096,0,0
371851.475,91.246,-391.712,0,0
372111.8,90.9946,-391.235,0,0
372372.125,90.7694,-390.616,0,0
372632.45,90.624,-389.981,0,0
372892.775,90.4874,-389.247,0,0
373153.1,90.4549,-388.54,0,0
373413.425,90.4719,-387.755,0,0
373673.75,90.531,-387.002,0,0
373934.075,90.629,-386.23,0,0
374194.4,90.7471,-385.464,0,0
374454.725,90.9435,-384.71,0,0
374715.05,91.1605,-383.936,0,0
374975.375,91.3633,-383.161,0,0
375235.7,91.6293,-382.453,0,0
375496.025,91.9588,-381.714,0,0
375756.35,92.3065,-381.027,0,0
376016.675,92.63,-380.373,0,0
376277.0,92.9433,-379.74,0,0
376537.325,93.2725,-379.162,0,0
376797.65,93.5567,-378.535,0,0
377057.975,93.8262,-377.973,0,0
377318.3,94.0654,-377.304,0,0
377578.625,94.3228,-376.65,0,0
377838.95,94.6124,-375.914,0,0
378099.275,94.9548,-375.162,0,0
378359.6,95.3519,-374.398,0,0
378619.925,95.7188,-373.685,0,0
378880,96.1721,-373.001,0,0
379141,96.6798,-372.313,0,0
379401,97.1857,-371.63,0,0
379661,97.715,-370.983,0,0
379922,98.2686,-370.393,0,0
380182,98.7724,-369.848,0,0
380442,99.319,-369.311,0,0
380703,99.8183,-368.796,0,0
380963,100.342,-368.246,0,0
381223,100.837,-367.727,0,0
381483,101.333,-367.198,0,0
381744,101.806,-366.621,0,0
382004,102.295,-366.07,0,0
382264,102.868,-365.507,0,0
382525,103.433,-364.945,0,0
382785,104.011,-364.426,0,0
383045,104.638,-363.918,0,0
383306,105.23,-363.458,0,0
383566,105.888,-363.034,0,0
383826,106.488,-362.561,0,0
384087,107.106,-362.147,0,0
384347,107.729,-361.736,0,0
384607,108.354,-361.358,0,0
384868,108.966,-360.992,0,0
385128,109.553,-360.643,0,0
385388,110.125,-360.321,0,0
385649,110.65,-359.987,0,0
385909,111.227,-359.619,0,0
386169,111.719,-359.267,0,0
386430,112.301,-358.893,0,0
386690,112.832,-358.53,0,0
386950,113.381,-358.171,0,0
387211,113.905,-357.818,0,0
387471,114.434,-357.441,0,0
387731,114.949,-357.005,0,0
387992,115.513,-356.555,0,0
388252,116.042,-356.046,0,0
388512,116.596,-355.489,0,0
388773,117.304,-354.93,0,0
389033,118.085,-354.347,0,0
389293,118.917,-353.832,0,0
389554,119.878,-353.326,0,0
389814,120.804,-352.941,0,0
390074,121.797,-352.586,0,0
390335,122.822,-352.329,0,0
390595,123.796,-352.172,0,0
390855,124.736,-352.068,0,0
391116,125.622,-351.994,0,0
391376,126.442,-351.889,0,0
391636,127.247,-351.805,0,0
391896,128.036,-351.714,0,0
392157,128.873,-351.567,0,0
392417,129.729,-351.404,0,0
392677,130.594,-351.337,0,0
392938,131.426,-351.23,0,0
393198,132.283,-351.191,0,0
393458,133.11,-351.086,0,0
393719,133.97,-351.026,0,0
393979,134.769,-350.893,0,0
394239,135.643,-350.786,0,0
394500,136.564,-350.627,0,0
394760.05,137.529,-350.469,0,0
395020.375,138.58,-350.3,0,0
395280.7,139.663,-350.137,0,0
395541.025,140.857,-350.087,0,0
395801.35,142.064,-350,0,0
396061.675,143.397,-349.997,0,0
396322.0,144.787,-350.041,0,0
396582.325,146.247,-350.184,0,0
396842.65,147.778,-350.438,0,0
397102.975,149.363,-350.841,0,0
397363.3,150.946,-351.331,0,0
397623.625,152.544,-351.984,0,0
397883.95,154.154,-352.841,0,0
398144.275,155.739,-353.751,0,0
398404.6,157.291,-354.859,0,0
398664.925,158.753,-356.132,0,0
398925.25,160.151,-357.511,0,0
399185.575,161.505,-359.025,0,0
399445.9,162.693,-360.771,0,0
399706.225,163.754,-362.609,0,0
399966.55,164.635,-364.535,0,0
400006.6,164.694,-364.897,0,0