File: Accelerated corrosion test data/2025-10-09_06-00-03/sample_8.csv
Frequency (Hz),Impedance (ohms),Phase (Radians),Temperature (C),Humidity (%)
10000.0,313.346,-10958.8,0,0
10260.325,305.061,-10684,0,0
10520.65,298.14,-10422.8,0,0
10780.975,290.687,-10174.7,0,0
11041.3,284.377,-9937.26,0,0
11301.625,277.966,-9712.51,0,0
11561.95,271.6,-9495.97,0,0
11822.275,265.828,-9289.3,0,0
12082.6,263.38,-9089.49,0,0
12342.925,260.806,-8903.1,0,0
12603.25,256.203,-8722.61,0,0
12863.575,251.987,-8551.31,0,0
13123.9,243.737,-8387.1,0,0
13384.225,237.921,-8225.06,0,0
13644.55,235.051,-8070.56,0,0
13904.875,227.342,-7922.13,0,0
14165.2,222.485,-7776.95,0,0
14425.525,217.291,-7638.13,0,0
14685.8,212.927,-7504.23,0,0
14946.175,210.636,-7374.66,0,0
15206.5,206.875,-7248.96,0,0
15466.825,203.625,-7129.13,0,0
15727.15,200.118,-7011.77,0,0
15987.5,197.097,-6898.71,0,0
16247.8,194.138,-6789.48,0,0
16508.125,190.757,-6682.94,0,0
16768.45,187.821,-6580.25,0,0
17028.775,184.809,-6480.29,0,0
17289.1,182.092,-6383.45,0,0
17549.425,179.607,-6288.89,0,0
17809.75,177.38,-6197.14,0,0
18070.075,174.758,-6109.98,0,0
18330.4,172.312,-6022.53,0,0
18590.725,170.433,-5937.38,0,0
18851.05,170.893,-5854.31,0,0
19111.375,169.312,-5775.82,0,0
19371.7,172.023,-5699.06,0,0
19632.025,168.346,-5626.64,0,0
19892.35,164.748,-5556.67,0,0
20152.675,161.782,-5483.55,0,0
20413.0,161.2,-5413.38,0,0
20673.3,160.414,-5346.25,0,0
20933.65,159.033,-5282.86,0,0
21193.975,155.692,-5219.66,0,0
21454.3,153.338,-5155.49,0,0
21714.625,151.772,-5093.26,0,0
21974.9,151.32,-5033.6,0,0
22235.275,151.326,-4975.61,0,0
22495.6,149.718,-4919.16,0,0
22755.925,148.297,-4865.03,0,0
23016.25,145.434,-4810.46,0,0
23276.6,142.036,-4758.36,0,0
23536.9,140.706,-4704.99,0,0
23797.225,138.134,-4654.06,0,0
24057.55,136.46,-4603.43,0,0
24317.875,135.176,-4554.19,0,0
24578.2,133.286,-4505.51,0,0
24838.525,132.079,-4457.8,0,0
25098.85,130.927,-4411.37,0,0
25359.175,129.237,-4366.05,0,0
25619.5,128.448,-4321.88,0,0
25879.8,126.578,-4277.63,0,0
26140.1,126.255,-4235.72,0,0
26400.5,125.046,-4193.85,0,0
26660.8,123.595,-4151.96,0,0
26921.1,123.082,-4110.98,0,0
27181.4,123.08,-4071.58,0,0
27441.8,122.147,-4032.82,0,0
27702.1,121.854,-3995.54,0,0
27962.4,119.708,-3958.06,0,0
28222.7,120.249,-3920.16,0,0
28483.1,118.603,-3885.02,0,0
28743.4,119.308,-3849.15,0,0
29003.7,118.279,-3815.15,0,0
29264,118.503,-3780.62,0,0
29524.4,117.326,-3746.93,0,0
29784.7,117.605,-3713.97,0,0
30045,117.855,-3682.62,0,0
30305.3,117.411,-3651.25,0,0
30565.7,116.95,-3620.64,0,0
30826,116.235,-3590.4,0,0
31086.3,115.322,-3560.7,0,0
31346.6,114.786,-3530.22,0,0
31607,114.473,-3501.25,0,0
31867.3,113.902,-3472.58,0,0
32127.6,113.869,-3444.8,0,0
32387.9,113.296,-3416.5,0,0
32648.3,113.532,-3388.93,0,0
32908.6,114.714,-3361.84,0,0
33168.9,114.407,-3335.91,0,0
33429.2,115.611,-3310.66,0,0
33689.6,117.145,-3286.56,0,0
33949.9,116.332,-3263.67,0,0
34210.2,115.498,-3240.36,0,0
34470.5,114.186,-3216.95,0,0
34730.9,113.322,-3193.48,0,0
34991.2,112.997,-3171.06,0,0
35251.5,112.194,-3149.46,0,0
35511.8,110.218,-3127.52,0,0
35772.2,108.525,-3105.64,0,0
36032.5,106.917,-3084.03,0,0
36292.8,105.035,-3062.28,0,0
36553.1,103.466,-3040.56,0,0
36813.5,101.772,-3019.17,0,0
37073.8,100.737,-2998.03,0,0
37334.1,99.3548,-2977.2,0,0
37594.4,97.6426,-2956.82,0,0
37854.8,96.4212,-2936.04,0,0
38115.1,94.9599,-2915.72,0,0
38375.4,93.4715,-2895.86,0,0
38635.7,92.2903,-2875.58,0,0
38896.1,90.9713,-2855.95,0,0
39156.4,90.1807,-2836.43,0,0
39416.7,89.1418,-2817.06,0,0
39677,88.1076,-2798.01,0,0
39937.4,87.1658,-2778.95,0,0
40197.7,86.5067,-2759.75,0,0
40458,86.3676,-2741.23,0,0
40718.3,86.1997,-2723.57,0,0
40978.7,85.4326,-2706.08,0,0
41239,84.7747,-2688.27,0,0
41499.3,84.2568,-2670.95,0,0
41759.6,83.8921,-2653.94,0,0
42020,83.2645,-2637.02,0,0
42280.275,82.5255,-2620.24,0,0
42540.6,82.2509,-2603.35,0,0
42800.925,82.3428,-2587.06,0,0
43061.25,82.1412,-2570.82,0,0
43321.575,82.4456,-2555.6,0,0
43581.9,82.5649,-2539.99,0,0
43842.225,81.8624,-2525.21,0,0
44102.55,81.1001,-2510.3,0,0
44362.875,80.322,-2495.38,0,0
44623.2,79.6793,-2480.57,0,0
44883.525,79.0853,-2465.7,0,0
45143.85,78.6358,-2451.01,0,0
45404.175,77.9432,-2436.63,0,0
45664.5,77.5578,-2422.28,0,0
45924.825,77.0801,-2408.25,0,0
46185.15,76.6277,-2394.14,0,0
46445.475,76.0115,-2380.13,0,0
46705.8,75.6888,-2366.22,0,0
46966.125,75.4997,-2352.7,0,0
47226.45,75.1302,-2339.02,0,0
47486.775,74.8962,-2325.91,0,0
47747.1,74.9762,-2312.99,0,0
48007.425,74.4689,-2300.07,0,0
48267.75,74.2021,-2287.21,0,0
48528.075,73.8167,-2274.62,0,0
48788.4,73.3014,-2262.37,0,0
49048.725,72.7051,-2249.92,0,0
49309.05,72.252,-2237.63,0,0
49569.375,71.8205,-2225.28,0,0
49829.7,71.5241,-2213.18,0,0
50090.025,71.1633,-2201.04,0,0
50350.35,70.8931,-2189.06,0,0
50610.675,70.6375,-2177.18,0,0
50871.0,70.4088,-2165.45,0,0
51131.325,70.2113,-2153.86,0,0
51391.65,69.9972,-2142.45,0,0
51651.975,70.0523,-2131.04,0,0
51912.3,70.0991,-2120.11,0,0
52172.625,69.8038,-2109.08,0,0
52432.95,69.6922,-2098.32,0,0
52693.275,69.6565,-2087.37,0,0
52953.6,69.715,-2076.67,0,0
53213.925,69.7484,-2066.3,0,0
53474.25,69.6035,-2056.07,0,0
53734.575,69.5383,-2046.34,0,0
53994.9,69.0907,-2036.59,0,0
54255.225,68.3345,-2026.69,0,0
54515.55,67.7372,-2016.7,0,0
54775.875,67.3636,-2006.58,0,0
55036.2,66.7253,-1996.98,0,0
55296.525,66.0299,-1987.16,0,0
55556.85,65.2978,-1977.19,0,0
55817.175,64.852,-1967.41,0,0
56077.5,64.226,-1957.59,0,0
56337.825,63.758,-1947.63,0,0
56598.15,63.454,-1937.88,0,0
56858.475,63.2043,-1928.17,0,0
57118.8,63.0008,-1918.61,0,0
57379.125,62.867,-1909.14,0,0
57639.45,62.6513,-1899.97,0,0
57899.775,62.5736,-1890.65,0,0
58160.1,62.3901,-1881.45,0,0
58420.4,62.3173,-1872.28,0,0
58680.7,62.3766,-1863.4,0,0
58941.1,62.3909,-1854.53,0,0
59201.4,62.4668,-1846.12,0,0
59461.7,62.1968,-1837.73,0,0
59722,61.8424,-1829.25,0,0
59982.4,61.5129,-1820.7,0,0
60242.7,61.1377,-1812.07,0,0
60503,60.8709,-1803.48,0,0
60763.3,60.7218,-1794.82,0,0
61023.7,60.7161,-1786.44,0,0
61284,60.7377,-1778.01,0,0
61544.3,60.8037,-1769.82,0,0
61804.6,60.9194,-1762.04,0,0
62065,60.6816,-1753.96,0,0
62325.3,60.5747,-1745.84,0,0
62585.6,60.5392,-1737.77,0,0
62845.9,60.6701,-1729.71,0,0
63106.3,61.0009,-1721.92,0,0
63366.6,61.2439,-1714.08,0,0
63626.9,61.4729,-1706.61,0,0
63887.2,61.7836,-1699.22,0,0
64147.6,62.2458,-1691.77,0,0
64407.9,62.6071,-1684.96,0,0
64668.2,62.5985,-1678.24,0,0
64928.5,62.3901,-1671.34,0,0
65188.9,62.3257,-1664.49,0,0
65449.2,61.9985,-1657.85,0,0
65709.5,61.5099,-1650.74,0,0
65969.8,61.3961,-1643.96,0,0
66230.2,61.2019,-1637.29,0,0
66490.5,60.5281,-1630.61,0,0
66750.8,59.9218,-1623.66,0,0
67011.1,59.4452,-1616.52,0,0
67271.5,59.2619,-1609.4,0,0
67531.8,59.0807,-1602.53,0,0
67792.1,58.7166,-1595.71,0,0
68052.4,58.6275,-1588.81,0,0
68312.8,58.4728,-1582.09,0,0
68573.1,58.2978,-1575.42,0,0
68833.4,57.9635,-1568.57,0,0
69093.7,58.0418,-1561.85,0,0
69354.1,57.9441,-1555.22,0,0
69614.4,58.0512,-1548.57,0,0
69874.7,58.1382,-1542.08,0,0
70135,58.2271,-1535.61,0,0
70395.4,58.3437,-1529.38,0,0
70655.7,58.2875,-1523.09,0,0
70916,58.287,-1516.87,0,0
71176.3,58.4597,-1510.61,0,0
71436.7,58.5388,-1504.54,0,0
71697,58.6192,-1498.5,0,0
71957.3,58.7427,-1492.66,0,0
72217.6,58.8538,-1486.8,0,0
72478,58.705,-1481.1,0,0
72738.3,58.5014,-1475.47,0,0
72998.6,58.0966,-1469.61,0,0
73258.9,57.83,-1463.66,0,0
73519.3,57.8192,-1457.61,0,0
73779.6,57.747,-1451.85,0,0
74039.9,57.7386,-1446.09,0,0
74300.225,57.6499,-1440.51,0,0
74560.55,57.453,-1434.86,0,0
74820.875,57.2816,-1429.02,0,0
75081.2,57.1946,-1423.37,0,0
75341.525,57.1592,-1417.62,0,0
75601.85,57.1452,-1411.91,0,0
75862.175,57.1544,-1406.3,0,0
76122.5,57.2242,-1400.8,0,0
76382.825,57.2823,-1395.34,0,0
76643.15,57.3836,-1389.81,0,0
76903.475,57.3479,-1384.58,0,0
77163.8,57.2524,-1379.26,0,0
77424.125,57.1871,-1373.95,0,0
77684.45,57.1154,-1368.61,0,0
77944.775,57.0771,-1363.34,0,0
78205.1,56.9318,-1358.03,0,0
78465.425,56.8421,-1352.78,0,0
78725.75,56.7375,-1347.47,0,0
78986.075,56.6759,-1342.12,0,0
79246.4,56.646,-1336.84,0,0
79506.725,56.6426,-1331.57,0,0
79767.05,56.6972,-1326.3,0,0
80027.375,56.81,-1321.12,0,0
80287.7,56.8948,-1316,0,0
80548.025,56.921,-1310.93,0,0
80808.35,56.9315,-1305.81,0,0
81068.675,56.9654,-1300.67,0,0
81329.0,57.1173,-1295.46,0,0
81589.325,57.3332,-1290.36,0,0
81849.65,57.5903,-1285.24,0,0
82109.975,57.8987,-1280.18,0,0
82370.3,58.28,-1275.34,0,0
82630.625,58.5635,-1270.45,0,0
82890.95,58.8805,-1265.72,0,0
83151.275,59.2681,-1261.02,0,0
83411.6,59.4922,-1256.31,0,0
83671.925,59.7722,-1251.49,0,0
83932.25,60.2287,-1246.82,0,0
84192.575,60.5938,-1242.33,0,0
84452.9,60.9283,-1237.81,0,0
84713.225,61.4156,-1233.43,0,0
84973.55,61.8745,-1229.33,0,0
85233.875,61.845,-1225.43,0,0
85494.2,61.5822,-1221.25,0,0
85754.525,61.3238,-1216.76,0,0
86014.85,61.1154,-1212.07,0,0
86275.175,61.2049,-1207.38,0,0
86535.5,61.263,-1202.8,0,0
86795.825,61.4153,-1198.19,0,0
87056.15,61.7216,-1193.48,0,0
87316.475,62.051,-1189.04,0,0
87576.8,62.1939,-1184.61,0,0
87837.125,62.5474,-1180.01,0,0
88097.45,63.0003,-1175.59,0,0
88357.775,63.3908,-1171.24,0,0
88618.1,63.6976,-1166.87,0,0
88878.425,64.1613,-1162.55,0,0
89138.75,64.598,-1158.29,0,0
89399.075,65.0064,-1153.92,0,0
89659.4,65.4393,-1149.6,0,0
89919.725,66.079,-1145.29,0,0
90180,66.7249,-1140.99,0,0
90440.4,67.4418,-1136.81,0,0
90700.7,68.1452,-1132.6,0,0
90961,69.1521,-1128.56,0,0
91221.3,70.0932,-1124.54,0,0
91481.7,71.1959,-1120.82,0,0
91742,72.2801,-1117.47,0,0
92002.3,73.0834,-1114.17,0,0
92262.6,73.88,-1110.93,0,0
92523,74.5382,-1107.81,0,0
92783.3,75.0077,-1104.88,0,0
93043.6,75.5531,-1101.89,0,0
93303.9,75.5106,-1099.32,0,0
93564.3,75.1361,-1096.22,0,0
93824.6,74.6622,-1092.74,0,0
94084.9,74.4396,-1088.86,0,0
94345.2,74.5933,-1085.17,0,0
94605.6,74.6315,-1081.41,0,0
94865.9,75.0618,-1077.53,0,0
95126.2,75.4067,-1074.02,0,0
95386.5,75.9449,-1070.34,0,0
95646.9,76.5384,-1067.17,0,0
95907.2,76.6832,-1063.89,0,0
96167.5,76.8967,-1060.45,0,0
96427.8,77.2449,-1056.88,0,0
96688.2,77.8057,-1053.52,0,0
96948.5,78.1736,-1050.25,0,0
97208.8,78.69,-1046.92,0,0
97469.1,79.1262,-1043.72,0,0
97729.5,79.8599,-1040.55,0,0
97989.8,80.4243,-1037.7,0,0
98250.1,80.8004,-1034.83,0,0
98510.4,81.2225,-1031.91,0,0
98770.8,81.6847,-1029.28,0,0
99031.1,81.7918,-1026.86,0,0
99291.4,81.5248,-1024.28,0,0
99551.7,81.2486,-1021.23,0,0
99812.1,81.2622,-1018.11,0,0
100072,81.3648,-1015.06,0,0
100333,81.4641,-1012.14,0,0
100593,81.637,-1009.28,0,0
100853,81.7027,-1006.5,0,0
101114,81.6257,-1003.81,0,0
101374,81.4992,-1000.94,0,0
101634,81.5077,-998.132,0,0
101895,81.2902,-995.557,0,0
102155,80.8917,-992.733,0,0
102415,80.4702,-989.836,0,0
102676,80.04,-986.794,0,0
102936,79.7096,-983.666,0,0
103196,79.3385,-980.491,0,0
103457,79.0348,-977.177,0,0
103717,78.9533,-973.891,0,0
103977,78.948,-970.572,0,0
104238,79.0388,-967.421,0,0
104498,79.0187,-964.392,0,0
104758,79.0002,-961.269,0,0
105019,78.789,-958.179,0,0
105279,78.6675,-954.892,0,0
105539,78.7732,-951.491,0,0
105800,79.0843,-948.194,0,0
106060,79.3469,-945.117,0,0
106320.175,79.5895,-942.018,0,0
106580.5,79.9764,-938.938,0,0
106840.825,80.4499,-936.012,0,0
107101.15,80.8601,-933.287,0,0
107361.475,81.1313,-930.717,0,0
107621.8,81.2595,-928.139,0,0
107882.125,81.2078,-925.582,0,0
108142.45,81.0504,-922.834,0,0
108402.775,80.9309,-919.868,0,0
108663.1,81.0086,-916.944,0,0
108923.425,81.1285,-914.105,0,0
109183.75,81.2099,-911.276,0,0
109444.075,81.3296,-908.403,0,0
109704.4,81.4987,-905.586,0,0
109964.725,81.6849,-902.803,0,0
110225.05,81.8726,-900.143,0,0
110485.375,81.989,-897.487,0,0
110745.7,82.1175,-894.823,0,0
111006.025,82.1001,-892.287,0,0
111266.35,82.0544,-889.534,0,0
111526.675,81.9873,-886.797,0,0
111787.0,82.0656,-884.071,0,0
112047.325,82.219,-881.434,0,0
112307.65,82.251,-878.788,0,0
112567.975,82.2249,-876.126,0,0
112828.3,82.2861,-873.454,0,0
113088.625,82.3347,-870.791,0,0
113348.95,82.3714,-868.167,0,0
113609.275,82.3894,-865.524,0,0
113869.6,82.4357,-862.966,0,0
114129.925,82.3605,-860.412,0,0
114390.25,82.2762,-857.765,0,0
114650.575,82.2232,-855.043,0,0
114910.9,82.2376,-852.382,0,0
115171.225,82.2758,-849.759,0,0
115431.55,82.2468,-847.227,0,0
115691.875,82.1472,-844.638,0,0
115952.2,82.0009,-841.928,0,0
116212.525,81.9851,-839.238,0,0
116472.85,81.9688,-836.606,0,0
116733.175,81.7878,-833.962,0,0
116993.5,81.6111,-831.207,0,0
117253.825,81.5938,-828.314,0,0
117514.15,81.7106,-825.442,0,0
117774.475,81.9097,-822.71,0,0
118034.8,82.0366,-820.055,0,0
118295.125,82.1571,-817.399,0,0
118555.45,82.2806,-814.75,0,0
118815.775,82.5011,-812.127,0,0
119076.1,82.7301,-809.647,0,0
119336.425,82.8205,-807.279,0,0
119596.75,82.7402,-804.854,0,0
119857.075,82.6089,-802.313,0,0
120117.4,82.5593,-799.701,0,0
120377.725,82.5083,-797.059,0,0
120638.05,82.422,-794.467,0,0
120898.375,82.3916,-791.709,0,0
121158.7,82.4853,-789.029,0,0
121419.025,82.5686,-786.459,0,0
121679.35,82.5734,-783.813,0,0
121939.675,82.6245,-781.129,0,0
122200.0,82.7108,-778.434,0,0
122460,82.9208,-775.872,0,0
122721,83.0194,-773.414,0,0
122981,83.0199,-770.955,0,0
123241,82.9271,-768.407,0,0
123502,82.8467,-765.756,0,0
123762,82.8352,-763.033,0,0
124022,82.877,-760.341,0,0
124283,82.9366,-757.599,0,0
124543,83.0697,-754.85,0,0
124803,83.2532,-752.127,0,0
125064,83.4858,-749.508,0,0
125324,83.7311,-746.938,0,0
125584,83.8575,-744.406,0,0
125845,83.9765,-741.855,0,0
126105,84.12,-739.29,0,0
126365,84.2141,-736.723,0,0
126626,84.3255,-734.042,0,0
126886,84.5652,-731.405,0,0
127146,84.7897,-728.917,0,0
127406,85.009,-726.359,0,0
127667,85.0566,-723.916,0,0
127927,85.1711,-721.387,0,0
128187,85.2664,-718.798,0,0
128448,85.3752,-716.239,0,0
128708,85.4685,-713.646,0,0
128968,85.5121,-711.041,0,0
129229,85.7481,-708.497,0,0
129489,85.8216,-705.939,0,0
129749,85.8594,-703.306,0,0
130010,85.9518,-700.567,0,0
130270,86.0764,-697.814,0,0
130530,86.3186,-694.99,0,0
130791,86.7746,-692.261,0,0
131051,87.1927,-689.721,0,0
131311,87.5157,-687.263,0,0
131572,87.8939,-684.853,0,0
131832,88.0279,-682.624,0,0
132092,87.9665,-680.215,0,0
132353,87.8755,-677.616,0,0
132613,87.8795,-674.922,0,0
132873,87.9571,-672.146,0,0
133134,88.0896,-669.42,0,0
133394,88.3022,-666.716,0,0
133654,88.4061,-664.041,0,0
133915,88.4957,-661.251,0,0
134175,88.6173,-658.343,0,0
134435,88.8873,-655.39,0,0
134696,89.2312,-652.47,0,0
134956,89.6276,-649.537,0,0
135216,90.1673,-646.564,0,0
135477,90.8274,-643.71,0,0
135737,91.542,-641.044,0,0
135997,92.3328,-638.423,0,0
136258,93.0822,-636.085,0,0
136518,93.5989,-633.858,0,0
136778,94.0596,-631.652,0,0
137039,94.3152,-629.556,0,0
137299,94.327,-627.344,0,0
137559,94.2313,-624.992,0,0
137819,94.0229,-622.488,0,0
138080,93.7474,-619.783,0,0
138340.125,93.5095,-616.831,0,0
138600.45,93.4863,-613.7,0,0
138860.775,93.6348,-610.539,0,0
139121.1,93.9184,-607.358,0,0
139381.425,94.3322,-604.314,0,0
139641.75,94.6431,-601.434,0,0
139902.075,94.8633,-598.347,0,0
140162.4,95.2283,-595.198,0,0
140422.725,95.6225,-592.127,0,0
140683.05,95.965,-589.009,0,0
140943.375,96.3527,-585.78,0,0
141203.7,96.8901,-582.52,0,0
141464.025,97.4807,-579.338,0,0
141724.35,98.0527,-576.21,0,0
141984.675,98.5356,-573.062,0,0
142245.0,98.9938,-569.796,0,0
142505.325,99.5581,-566.391,0,0
142765.65,100.273,-562.979,0,0
143025.975,101.007,-559.623,0,0
143286.3,101.729,-556.191,0,0
143546.625,102.506,-552.723,0,0
143806.95,103.301,-549.227,0,0
144067.275,104.205,-545.59,0,0
144327.6,105.187,-541.997,0,0
144587.925,106.154,-538.308,0,0
144848.25,107.289,-534.395,0,0
145108.575,108.741,-530.466,0,0
145368.9,110.422,-526.601,0,0
145629.225,112.329,-522.896,0,0
145889.55,114.31,-519.42,0,0
146149.875,116.288,-516.087,0,0
146410.2,118.231,-512.878,0,0
146670.525,120.147,-509.645,0,0
146930.85,122.126,-506.454,0,0
147191.175,124.18,-503.266,0,0
147451.5,126.422,-500.269,0,0
147711.825,128.461,-497.784,0,0
147972.15,129.843,-495.178,0,0
148232.475,131.058,-491.955,0,0
148492.8,132.54,-488.348,0,0
148753.125,134.356,-484.486,0,0
149013.45,136.462,-480.597,0,0
149273.775,138.896,-476.627,0,0
149534.1,141.65,-472.697,0,0
149794.425,144.817,-468.862,0,0
150054.75,148.16,-465.253,0,0
150315.075,151.754,-461.665,0,0
150575.4,155.65,-458.245,0,0
150835.725,160.007,-455.017,0,0
151096.05,164.839,-452.079,0,0
151356.375,170.095,-450.036,0,0
151616.7,175.302,-448.773,0,0
151877.025,180.077,-448.254,0,0
152137.35,184.59,-448.284,0,0
152397.675,188.46,-448.94,0,0
152658.0,191.334,-449.622,0,0
152918.325,193.769,-449.762,0,0
153178.65,196.258,-449.979,0,0
153438.975,198.31,-450.222,0,0
153699.3,200.036,-450.185,0,0
153959.625,201.607,-449.805,0,0
154219.95,203.267,-449.506,0,0
154480,204.525,-448.998,0,0
154741,205.568,-447.846,0,0
155001,207.186,-446.124,0,0
155261,209.513,-444.347,0,0
155522,212.307,-443,0,0
155782,215.452,-441.987,0,0
156042,219.12,-441.475,0,0
156303,223.142,-442.477,0,0
156563,225.806,-445.057,0,0
156823,226.573,-447.946,0,0
157084,225.479,-450.216,0,0
157344,223.12,-450.665,0,0
157604,221.202,-449.265,0,0
157864,219.936,-447.002,0,0
158125,219.534,-444.102,0,0
158385,219.941,-440.912,0,0
158645,221.194,-437.641,0,0
158906,223.263,-434.687,0,0
159166,225.889,-432.365,0,0
159426,228.761,-430.68,0,0
159687,231.776,-430.074,0,0
159947,233.873,-430.338,0,0
160207,234.933,-430.524,0,0
160468,235.652,-430.405,0,0
160728,235.451,-429.93,0,0
160988,234.962,-428.324,0,0
161249,234.918,-425.917,0,0
161509,235.529,-422.942,0,0
161769,236.796,-419.751,0,0
162030,238.75,-416.8,0,0
162290,241.254,-413.889,0,0
162550,244.444,-411.421,0,0
162811,247.756,-409.776,0,0
163071,250.865,-408.656,0,0
163331,253.936,-407.539,0,0
163592,257.206,-406.976,0,0
163852,260.305,-406.97,0,0
164112,263.002,-407.407,0,0
164373,264.943,-407.748,0,0
164633,267.001,-407.75,0,0
164893,269.276,-408.09,0,0
165154,271.507,-408.904,0,0
165414,273.653,-410.271,0,0
165674,274.901,-412.727,0,0
165935,274.432,-415.014,0,0
166195,273.156,-416.206,0,0
166455,271.872,-416.754,0,0
166716,270.225,-417.005,0,0
166976,268.214,-416.613,0,0
167236,266.273,-415.483,0,0
167497,264.578,-413.709,0,0
167757,263.245,-411.769,0,0
168017,261.922,-409.767,0,0
168277,260.548,-407.332,0,0
168538,259.29,-404.598,0,0
168798,258.178,-401.546,0,0
169058,257.184,-398.085,0,0
169319,256.621,-394.199,0,0
169579,256.668,-390.262,0,0
169839,256.966,-386.648,0,0
170100,257.002,-383.188,0,0
170360.075,256.95,-379.204,0,0
170620.4,257.382,-374.909,0,0
170880.725,258.064,-370.702,0,0
171141.05,258.836,-366.52,0,0
171401.375,259.454,-362.207,0,0
171661.7,260.111,-357.263,0,0
171922.025,261.365,-351.671,0,0
172182.35,263.562,-345.852,0,0
172442.675,266.671,-340.432,0,0
172703.0,270.11,-335.475,0,0
172963.325,273.815,-331.049,0,0
173223.65,277.535,-326.967,0,0
173483.975,281.36,-323.086,0,0
173744.3,285.381,-319.519,0,0
174004.625,289.262,-316.188,0,0
174264.95,293.228,-313.116,0,0
174525.275,296.928,-310.543,0,0
174785.6,300.229,-307.814,0,0
175045.925,303.358,-305.052,0,0
175306.25,306.215,-302.055,0,0
175566.575,309.157,-298.809,0,0
175826.9,311.83,-295.251,0,0
176087.225,314.62,-291.024,0,0
176347.55,318.083,-286.387,0,0
176607.875,322.124,-281.499,0,0
176868.2,327.048,-276.815,0,0
177128.525,332.53,-272.784,0,0
177388.85,337.83,-269.398,0,0
177649.175,342.69,-265.851,0,0
177909.5,347.771,-261.735,0,0
178169.825,353.492,-257.367,0,0
178430.15,360.153,-253.31,0,0
178690.475,367.423,-249.848,0,0
178950.8,374.878,-247.201,0,0
179211.125,382.321,-244.945,0,0
179471.45,389.673,-243.258,0,0
179731.775,396.75,-241.857,0,0
179992.1,403.842,-240.51,0,0
180252.425,411.27,-239.422,0,0
180512.75,418.871,-239.426,0,0
180773.075,425.6,-239.456,0,0
181033.4,432.261,-239.494,0,0
181293.725,438.629,-239.891,0,0
181554.05,444.356,-239.992,0,0
181814.375,450.337,-239.755,0,0
182074.7,456.889,-239.263,0,0
182335.025,463.554,-239.25,0,0
182595.35,470.286,-239.563,0,0
182855.675,476.903,-240.385,0,0
183116.0,483.59,-241.747,0,0
183376.325,489.588,-243.711,0,0
183636.65,494.605,-245.405,0,0
183896.975,499.178,-246.819,0,0
184157.3,503.157,-247.545,0,0
184417.625,507.418,-247.29,0,0
184677.95,512.259,-246.558,0,0
184938.275,517.456,-245.782,0,0
185198.6,522.964,-244.453,0,0
185458.925,529.225,-243.265,0,0
185719.25,536.096,-242.222,0,0
185979.575,543.156,-241.348,0,0
186239.9,550.916,-240.421,0,0
186500,559.505,-240.351,0,0
186761,567.841,-241.415,0,0
187021,575.77,-242.401,0,0
187281,583.67,-243.424,0,0
187542,591.642,-244.165,0,0
187802,600.12,-244.832,0,0
188062,609.617,-245.68,0,0
188322,619.754,-247.423,0,0
188583,630.352,-250.351,0,0
188843,640.543,-254.542,0,0
189103,650.104,-259.926,0,0
189364,658.174,-265.762,0,0
189624,665.418,-271.296,0,0
189884,672.323,-276.285,0,0
190145,679.133,-281.228,0,0
190405,685.298,-286.118,0,0
190665,690.965,-289.881,0,0
190926,697.398,-292.426,0,0
191186,705.74,-294.984,0,0
191446,714.803,-298.484,0,0
191707,724.383,-302.666,0,0
191967,734.189,-308.203,0,0
192227,743.073,-314.89,0,0
192488,750.929,-321.7,0,0
192748,757.61,-327.913,0,0
193008,764.384,-332.261,0,0
193269,773.109,-335.36,0,0
193529,783.908,-339.162,0,0
193789,796.183,-343.971,0,0
194050,810.023,-350.409,0,0
194310,824.566,-359.296,0,0
194570,838.721,-370.891,0,0
194831,851.792,-384.664,0,0
195091,862.937,-399.343,0,0
195351,873.04,-414.071,0,0
195612,883.148,-429.078,0,0
195872,893.506,-445.245,0,0
196132,903.593,-463.478,0,0
196393,912.301,-483.903,0,0
196653,918.745,-505.868,0,0
196913,922.746,-528.4,0,0
197174,924.457,-551.04,0,0
197434,924.477,-573.248,0,0
197694,923.141,-595.807,0,0
197955,919.465,-618.02,0,0
198215,913.928,-639.165,0,0
198475,907.719,-659.171,0,0
198735,899.893,-678.538,0,0
198996,891.145,-697.047,0,0
199256,881.567,-714.212,0,0
199516,871.835,-731.053,0,0
199777,861.142,-747.397,0,0
200037,849.212,-763.422,0,0
200297,835.79,-778.368,0,0
200558,821.044,-791.965,0,0
200818,805.624,-803.293,0,0
201078,790.667,-812.496,0,0
201339,776.673,-820.724,0,0
201599,763.175,-828.699,0,0
201859,749.444,-836.528,0,0
202120,735.312,-843.983,0,0
202380.025,720.027,-851.099,0,0
202640.35,703.696,-856.61,0,0
202900.675,687.086,-859.714,0,0
203161.0,671.519,-860.812,0,0
203421.325,657.03,-860.91,0,0
203681.65,643.422,-860.119,0,0
203941.975,630.84,-858.6,0,0
204202.3,619.04,-856.492,0,0
204462.625,608.453,-854.019,0,0
204722.95,598.866,-851.87,0,0
204983.275,589.683,-849.662,0,0
205243.6,580.734,-847.574,0,0
205503.925,572.013,-845.72,0,0
205764.25,563.108,-843.446,0,0
206024.575,554.105,-840.748,0,0
206284.9,545.146,-837.057,0,0
206545.225,536.955,-832.488,0,0
206805.55,529.836,-827.204,0,0
207065.875,523.977,-821.656,0,0
207326.2,519.307,-816.218,0,0
207586.525,515.638,-811.381,0,0
207846.85,512.428,-807.13,0,0
208107.175,509.55,-803.414,0,0
208367.5,506.793,-800.045,0,0
208627.825,504.104,-796.881,0,0
208888.15,501.591,-793.826,0,0
209148.475,499.234,-790.769,0,0
209408.8,497.35,-787.706,0,0
209669.125,495.835,-784.785,0,0
209929.45,494.853,-781.946,0,0
210189.775,494.268,-779.646,0,0
210450.1,493.997,-777.876,0,0
210710.425,493.715,-776.676,0,0
210970.75,493.352,-775.836,0,0
211231.075,492.894,-775.304,0,0
211491.4,492.414,-774.878,0,0
211751.725,492.142,-774.664,0,0
212012.05,491.781,-774.94,0,0
212272.375,491.286,-775.439,0,0
212532.7,490.704,-776.008,0,0
212793.025,490.113,-777.115,0,0
213053.35,489.303,-778.595,0,0
213313.675,488.033,-780.401,0,0
213574.0,486.292,-782.168,0,0
213834.325,484.224,-783.948,0,0
214094.65,481.825,-785.556,0,0
214354.975,479.159,-787.029,0,0
214615.3,476.347,-788.312,0,0
214875.625,473.443,-789.453,0,0
215135.95,470.239,-790.382,0,0
215396.275,466.917,-791.106,0,0
215656.6,463.497,-791.599,0,0
215916.925,459.935,-791.6,0,0
216177.25,456.606,-791.208,0,0
216437.575,453.424,-790.654,0,0
216697.9,450.258,-789.824,0,0
216958.225,447.343,-788.497,0,0
217218.55,445.069,-786.906,0,0
217478.875,443.279,-785.318,0,0
217739.2,442.009,-783.873,0,0
217999.525,441.116,-782.634,0,0
218259.85,440.63,-781.787,0,0
218520,440.274,-781.45,0,0
218780,439.737,-781.448,0,0
219041,439.091,-781.633,0,0
219301,438.353,-781.728,0,0
219561,437.661,-782.029,0,0
219822,437.134,-782.357,0,0
220082,436.575,-782.81,0,0
220342,436.173,-783.304,0,0
220603,435.716,-784.199,0,0
220863,435.259,-785.277,0,0
221123,434.809,-786.649,0,0
221384,434.041,-788.11,0,0
221644,433.193,-789.568,0,0
221904,432.449,-791.102,0,0
222165,431.808,-792.916,0,0
222425,430.923,-794.978,0,0
222685,429.983,-797.386,0,0
222946,428.543,-800.011,0,0
223206,426.61,-802.608,0,0
223466,424.428,-804.97,0,0
223727,422.172,-807.019,0,0
223987,420.091,-808.979,0,0
224247,418.045,-811.103,0,0
224508,416,-813.231,0,0
224768,413.932,-815.782,0,0
225028,411.794,-818.152,0,0
225289,409.479,-820.945,0,0
225549,406.71,-824.086,0,0
225809,403.565,-827.612,0,0
226070,399.602,-830.75,0,0
226330,395.049,-833.475,0,0
226590,390.358,-835.732,0,0
226851,385.618,-837.516,0,0
227111,380.964,-839.37,0,0
227371,376.119,-840.933,0,0
227632,370.956,-842.237,0,0
227892,365.58,-843.057,0,0
228152,360.299,-843.277,0,0
228413,355.373,-843.086,0,0
228673,350.797,-842.606,0,0
228933,346.607,-842.239,0,0
229193,342.739,-841.594,0,0
229454,339.245,-841.46,0,0
229714,335.496,-841.63,0,0
229974,331.794,-842.033,0,0
230235,327.756,-842.48,0,0
230495,323.333,-843.021,0,0
230755,318.698,-843.333,0,0
231016,313.687,-843.297,0,0
231276,308.772,-842.98,0,0
231536,303.841,-842.47,0,0
231797,298.837,-841.802,0,0
232057,293.787,-840.824,0,0
232317,288.799,-839.562,0,0
232578,283.776,-838.162,0,0
232838,278.925,-836.37,0,0
233098,274.286,-834.417,0,0
233359,269.786,-832.42,0,0
233619,265.282,-830.338,0,0
233879,260.822,-828.021,0,0
234140,256.538,-825.542,0,0
234400,252.303,-822.918,0,0
234660.3,248.193,-820.02,0,0
234920.625,244.291,-817.023,0,0
235180.95,240.543,-813.723,0,0
235441.275,237.037,-810.388,0,0
235701.6,233.947,-806.901,0,0
235961.925,231.047,-803.519,0,0
236222.25,228.323,-799.994,0,0
236482.575,225.885,-796.556,0,0
236742.9,223.569,-793.16,0,0
237003.225,221.464,-789.803,0,0
237263.55,219.546,-786.498,0,0
237523.875,217.76,-783.268,0,0
237784.2,216.116,-779.999,0,0
238044.525,214.666,-776.798,0,0
238304.85,213.421,-773.737,0,0
238565.175,212.205,-770.676,0,0
238825.5,211.225,-767.559,0,0
239085.825,210.605,-764.702,0,0
239346.15,210.24,-762.101,0,0
239606.475,210.054,-759.912,0,0
239866.8,209.777,-758.065,0,0
240127.125,209.437,-756.556,0,0
240387.45,208.803,-755.313,0,0
240647.775,207.967,-754.217,0,0
240908.1,206.938,-753.244,0,0
241168.425,205.668,-752.297,0,0
241428.75,204.056,-751.403,0,0
241689.075,202.272,-750.348,0,0
241949.4,200.299,-749.202,0,0
242209.725,198.154,-747.886,0,0
242470.05,195.981,-746.349,0,0
242730.375,193.715,-744.58,0,0
242990.7,191.482,-742.56,0,0
243251.025,189.328,-740.394,0,0
243511.35,187.382,-738.16,0,0
243771.675,185.425,-735.776,0,0
244032.0,183.596,-733.34,0,0
244292.325,181.886,-730.698,0,0
244552.65,180.324,-728.107,0,0
244812.975,178.94,-725.48,0,0
245073.3,177.608,-722.859,0,0
245333.625,176.249,-720.327,0,0
245593.95,175.036,-717.662,0,0
245854.275,173.876,-714.921,0,0
246114.6,172.829,-712.16,0,0
246374.925,172.071,-709.346,0,0
246635.25,171.396,-706.605,0,0
246895.575,170.944,-704.102,0,0
247155.9,170.587,-701.701,0,0
247416.225,170.122,-699.547,0,0
247676.55,169.555,-697.467,0,0
247936.875,168.857,-695.383,0,0
248197.2,168.164,-693.254,0,0
248457.525,167.203,-691.103,0,0
248717.85,166.342,-688.815,0,0
248978.175,165.441,-686.305,0,0
249238.5,164.654,-683.755,0,0
249498.825,163.929,-681.002,0,0
249759.15,163.354,-678.242,0,0
250019.475,162.951,-675.372,0,0
250279.8,162.627,-672.529,0,0
250540,162.438,-669.606,0,0
250800,162.414,-666.723,0,0
251061,162.6,-663.679,0,0
251321,162.964,-660.649,0,0
251581,163.615,-657.65,0,0
251842,164.556,-654.795,0,0
252102,165.79,-652.129,0,0
252362,167.187,-649.748,0,0
252623,168.721,-647.666,0,0
252883,170.291,-645.973,0,0
253143,171.766,-644.61,0,0
253404,173.033,-643.574,0,0
253664,174.095,-642.659,0,0
253924,174.883,-641.834,0,0
254185,175.391,-641.013,0,0
254445,175.737,-640.065,0,0
254705,175.962,-639.005,0,0
254966,176.253,-637.768,0,0
255226,176.476,-636.483,0,0
255486,176.808,-635.129,0,0
255747,177.167,-633.769,0,0
256007,177.54,-632.349,0,0
256267,177.962,-630.846,0,0
256528,178.47,-629.381,0,0
256788,179.049,-627.923,0,0
257048,179.629,-626.483,0,0
257309,180.278,-624.946,0,0
257569,181.057,-623.424,0,0
257829,181.992,-621.949,0,0
258090,183.009,-620.519,0,0
258350,184.109,-619.197,0,0
258610,185.298,-617.95,0,0
258871,186.507,-616.822,0,0
259131,187.847,-615.786,0,0
259391,189.142,-614.875,0,0
259651,190.515,-614.048,0,0
259912,191.868,-613.383,0,0
260172,193.19,-613.001,0,0
260432,194.375,-612.561,0,0
260693,195.572,-612.107,0,0
260953,196.639,-611.778,0,0
261213,197.818,-611.5,0,0
261474,198.924,-611.297,0,0
261734,200.029,-611.131,0,0
261994,201.139,-610.987,0,0
262255,202.245,-610.984,0,0
262515,203.261,-611.233,0,0
262775,204.013,-611.487,0,0
263036,204.603,-611.661,0,0
263296,205.167,-611.745,0,0
263556,205.745,-611.824,0,0
263817,206.222,-611.945,0,0
264077,206.556,-611.963,0,0
264337,206.851,-611.883,0,0
264598,207.091,-611.579,0,0
264858,207.347,-611.167,0,0
265118,207.878,-610.517,0,0
265379,208.435,-609.82,0,0
265639,209.223,-609.063,0,0
265899,210.176,-608.289,0,0
266160,211.389,-607.448,0,0
266420,212.893,-606.652,0,0
266680.25,214.627,-605.973,0,0
266940.575,216.622,-605.494,0,0
267200.9,218.793,-605.203,0,0
267461.225,221.203,-605.213,0,0
267721.55,223.759,-605.463,0,0
267981.875,226.421,-606.101,0,0
268242.2,229.169,-607.018,0,0
268502.525,232.018,-608.318,0,0
268762.85,234.836,-610.152,0,0
269023.175,237.478,-612.451,0,0
269283.5,239.874,-615.205,0,0
269543.825,241.978,-618.239,0,0
269804.15,243.689,-621.526,0,0
270064.475,245.131,-624.969,0,0
270324.8,246.36,-628.6,0,0
270585.125,247.322,-632.463,0,0
270845.45,247.918,-636.569,0,0
271105.775,248.145,-640.815,0,0
271366.1,247.953,-645.219,0,0
271626.425,247.344,-649.647,0,0
271886.75,246.267,-654.095,0,0
272147.075,244.839,-658.546,0,0
272407.4,242.901,-662.919,0,0
272667.725,240.51,-667.166,0,0
272928.05,237.711,-671.232,0,0
273188.375,234.536,-675.069,0,0
273448.7,231.063,-678.732,0,0
273709.025,227.174,-682.074,0,0
273969.35,222.902,-685.058,0,0
274229.675,218.298,-687.601,0,0
274490.0,213.521,-689.657,0,0
274750.325,208.469,-691.285,0,0
275010.65,203.553,-692.201,0,0
275270.975,198.59,-692.854,0,0
275531.3,193.653,-692.91,0,0
275791.625,188.982,-692.522,0,0
276051.95,184.511,-691.833,0,0
276312.275,180.381,-690.852,0,0
276572.6,176.52,-689.739,0,0
276832.925,172.885,-688.483,0,0
277093.25,169.426,-687.182,0,0
277353.575,166.116,-685.759,0,0
277613.9,162.917,-684.261,0,0
277874.225,159.893,-682.689,0,0
278134.55,157.001,-681.058,0,0
278394.875,154.251,-679.34,0,0
278655.2,151.55,-677.586,0,0
278915.525,148.96,-675.765,0,0
279175.85,146.435,-673.84,0,0
279436.175,144.002,-671.785,0,0
279696.5,141.723,-669.568,0,0
279956.825,139.718,-667.224,0,0
280217.15,137.936,-664.794,0,0
280477.475,136.384,-662.43,0,0
280737.8,135.07,-660.068,0,0
280998.125,133.944,-657.792,0,0
281258.45,132.967,-655.607,0,0
281518.775,132.13,-653.5,0,0
281779.1,131.422,-651.478,0,0
282039.425,130.799,-649.523,0,0
282299.75,130.351,-647.648,0,0
282560,130.021,-645.926,0,0
282820,129.767,-644.435,0,0
283081,129.488,-643.153,0,0
283341,129.104,-641.965,0,0
283601,128.651,-640.845,0,0
283862,128.079,-639.707,0,0
284122,127.48,-638.511,0,0
284382,126.922,-637.294,0,0
284643,126.325,-636.008,0,0
284903,125.809,-634.711,0,0
285163,125.351,-633.253,0,0
285424,125.134,-631.71,0,0
285684,125.164,-630.218,0,0
285944,125.407,-628.869,0,0
286205,125.819,-627.725,0,0
286465,126.357,-626.778,0,0
286725,127.011,-626.067,0,0
286986,127.739,-625.676,0,0
287246,128.421,-625.631,0,0
287506,129.033,-625.908,0,0
287767,129.415,-626.534,0,0
288027,129.499,-627.405,0,0
288287,129.206,-628.449,0,0
288548,128.523,-629.495,0,0
288808,127.475,-630.489,0,0
289068,126.173,-631.334,0,0
289329,124.601,-631.969,0,0
289589,122.885,-632.447,0,0
289849,121.05,-632.686,0,0
290109,119.099,-632.748,0,0
290370,117.153,-632.511,0,0
290630,115.303,-632.083,0,0
290890,113.535,-631.589,0,0
291151,111.884,-631.027,0,0
291411,110.227,-630.5,0,0
291671,108.602,-629.938,0,0
291932,106.908,-629.372,0,0
292192,105.158,-628.713,0,0
292452,103.358,-627.979,0,0
292713,101.542,-627.115,0,0
292973,99.7494,-626.12,0,0
293233,98.0011,-625.009,0,0
293494,96.3295,-623.841,0,0
293754,94.6924,-622.638,0,0
294014,93.1039,-621.347,0,0
294275,91.5703,-619.96,0,0
294535,90.0802,-618.602,0,0
294795,88.66,-617.105,0,0
295056,87.281,-615.628,0,0
295316,85.9477,-614.052,0,0
295576,84.7066,-612.48,0,0
295837,83.5439,-610.866,0,0
296097,82.4875,-609.224,0,0
296357,81.4834,-607.588,0,0
296618,80.5557,-605.959,0,0
296878,79.6399,-604.353,0,0
297138,78.7958,-602.757,0,0
297399,77.9615,-601.171,0,0
297659,77.174,-599.589,0,0
297919,76.4159,-597.987,0,0
298180,75.6924,-596.376,0,0
298440,74.9955,-594.759,0,0
298700.2,74.3455,-593.149,0,0
298960.525,73.7671,-591.515,0,0
299220.85,73.1987,-589.897,0,0
299481.175,72.6554,-588.297,0,0
299741.5,72.1828,-586.652,0,0
300001.825,71.7105,-585.041,0,0
300262.15,71.3112,-583.418,0,0
300522.475,70.9853,-581.777,0,0
300782.8,70.6873,-580.117,0,0
301043.125,70.4347,-578.471,0,0
301303.45,70.2844,-576.839,0,0
301563.775,70.2257,-575.245,0,0
301824.1,70.2122,-573.708,0,0
302084.425,70.2792,-572.225,0,0
302344.75,70.3673,-570.808,0,0
302605.075,70.4785,-569.46,0,0
302865.4,70.6152,-568.177,0,0
303125.725,70.753,-566.945,0,0
303386.05,70.8817,-565.755,0,0
303646.375,71.0237,-564.612,0,0
303906.7,71.1608,-563.488,0,0
304167.025,71.2997,-562.396,0,0
304427.35,71.4238,-561.328,0,0
304687.675,71.556,-560.286,0,0
304948.0,71.7382,-559.276,0,0
305208.325,71.9369,-558.272,0,0
305468.65,72.1326,-557.335,0,0
305728.975,72.3435,-556.453,0,0
305989.3,72.5596,-555.588,0,0
306249.625,72.7831,-554.802,0,0
306509.95,72.9868,-554.035,0,0
306770.275,73.16,-553.319,0,0
307030.6,73.3478,-552.642,0,0
307290.925,73.4927,-551.992,0,0
307551.25,73.6516,-551.365,0,0
307811.575,73.8049,-550.755,0,0
308071.9,73.9663,-550.189,0,0
308332.225,74.1174,-549.687,0,0
308592.55,74.2667,-549.275,0,0
308852.875,74.3428,-548.944,0,0
309113.2,74.3544,-548.678,0,0
309373.525,74.2185,-548.426,0,0
309633.85,74.0046,-548.186,0,0
309894.175,73.6963,-547.837,0,0
310154.5,73.3663,-547.458,0,0
310414.825,73.0104,-547.025,0,0
310675.15,72.6322,-546.566,0,0
310935.475,72.2713,-546.067,0,0
311195.8,71.9138,-545.542,0,0
311456.125,71.5412,-545.021,0,0
311716.45,71.1807,-544.478,0,0
311976.775,70.8003,-543.933,0,0
312237.1,70.4179,-543.377,0,0
312497.425,70.061,-542.808,0,0
312757.75,69.6713,-542.243,0,0
313018.075,69.2752,-541.689,0,0
313278.4,68.8885,-541.12,0,0
313538.725,68.446,-540.56,0,0
313799.05,67.9902,-539.97,0,0
314059.375,67.5141,-539.361,0,0
314319.7,67.0265,-538.705,0,0
314580,66.5291,-537.993,0,0
314840,66.0049,-537.332,0,0
315101,65.6105,-536.477,0,0
315361,65.0956,-535.764,0,0
315621,64.6878,-534.97,0,0
315882,64.2316,-534.095,0,0
316142,63.8705,-533.274,0,0
316402,63.493,-532.477,0,0
316663,63.1616,-531.51,0,0
316923,62.8254,-530.712,0,0
317183,62.5615,-529.815,0,0
317444,62.3605,-529.002,0,0
317704,62.1139,-528.068,0,0
317964,62.0105,-527.267,0,0
318225,61.7804,-526.452,0,0
318485,61.6395,-525.649,0,0
318745,61.5494,-524.879,0,0
319006,61.4112,-524.086,0,0
319266,61.2835,-523.39,0,0
319526,61.2284,-522.611,0,0
319787,61.118,-521.931,0,0
320047,61.099,-521.285,0,0
320307,61.0504,-520.653,0,0
320567,60.9222,-520.076,0,0
320828,60.9037,-519.481,0,0
321088,60.7752,-519.013,0,0
321348,60.6009,-518.509,0,0
321609,60.409,-517.989,0,0
321869,60.2402,-517.551,0,0
322129,59.9895,-517.074,0,0
322390,59.7055,-516.558,0,0
322650,59.4014,-516.028,0,0
322910,59.1831,-515.548,0,0
323171,58.9378,-515.085,0,0
323431,58.5974,-514.577,0,0
323691,58.3242,-514.118,0,0
323952,57.9137,-513.682,0,0
324212,57.5954,-513.194,0,0
324472,57.1065,-512.714,0,0
324733,56.6518,-512.197,0,0
324993,56.194,-511.667,0,0
325253,55.6533,-511.034,0,0
325514,55.1309,-510.403,0,0
325774,54.6379,-509.747,0,0
326034,54.1524,-509.1,0,0
326295,53.7318,-508.327,0,0
326555,53.2704,-507.569,0,0
326815,52.9025,-506.79,0,0
327076,52.4746,-506.045,0,0
327336,52.0674,-505.331,0,0
327596,51.6827,-504.553,0,0
327857,51.3147,-503.756,0,0
328117,50.9275,-502.997,0,0
328377,50.6081,-502.214,0,0
328638,50.2683,-501.432,0,0
328898,49.8806,-500.639,0,0
329158,49.5934,-499.851,0,0
329419,49.2697,-499.105,0,0
329679,48.9077,-498.327,0,0
329939,48.566,-497.516,0,0
330200,48.2569,-496.657,0,0
330460,47.9525,-495.856,0,0
330720.15,47.6024,-494.982,0,0
330980.475,47.3247,-494.19,0,0
331240.8,46.9927,-493.334,0,0
331501.125,46.7161,-492.554,0,0
331761.45,46.4534,-491.651,0,0
332021.775,46.1656,-490.772,0,0
332282.1,45.9662,-489.895,0,0
332542.425,45.6525,-489,0,0
332802.75,45.4269,-488.094,0,0
333063.075,45.2472,-487.211,0,0
333323.4,45.0749,-486.288,0,0
333583.725,44.8921,-485.37,0,0
333844.05,44.7909,-484.477,0,0
334104.375,44.6833,-483.571,0,0
334364.7,44.6109,-482.651,0,0
334625.025,44.5613,-481.798,0,0
334885.35,44.5103,-480.953,0,0
335145.675,44.4739,-480.083,0,0
335406.0,44.5014,-479.227,0,0
335666.325,44.5359,-478.457,0,0
335926.65,44.514,-477.679,0,0
336186.975,44.5434,-476.955,0,0
336447.3,44.5815,-476.179,0,0
336707.625,44.6082,-475.446,0,0
336967.95,44.6233,-474.789,0,0
337228.275,44.6084,-474.149,0,0
337488.6,44.6246,-473.503,0,0
337748.925,44.6025,-472.862,0,0
338009.25,44.6016,-472.228,0,0
338269.575,44.5386,-471.57,0,0
338529.9,44.5361,-470.996,0,0
338790.225,44.4543,-470.401,0,0
339050.55,44.4449,-469.794,0,0
339310.875,44.2756,-469.146,0,0
339571.2,44.2362,-468.512,0,0
339831.525,44.0782,-467.997,0,0
340091.85,43.9877,-467.342,0,0
340352.175,43.9289,-466.726,0,0
340612.5,43.7801,-466.155,0,0
340872.825,43.623,-465.549,0,0
341133.15,43.5142,-464.956,0,0
341393.475,43.3319,-464.316,0,0
341653.8,43.1927,-463.696,0,0
341914.125,42.9351,-463.063,0,0
342174.45,42.7673,-462.34,0,0
342434.775,42.5873,-461.746,0,0
342695.1,42.4391,-460.982,0,0
342955.425,42.2809,-460.283,0,0
343215.75,42.1144,-459.582,0,0
343476.075,41.9288,-458.889,0,0
343736.4,41.8255,-458.167,0,0
343996.725,41.7212,-457.425,0,0
344257.05,41.5361,-456.715,0,0
344517.375,41.4712,-455.971,0,0
344777.7,41.3598,-455.224,0,0
345038.025,41.2475,-454.481,0,0
345298.35,41.1237,-453.767,0,0
345558.675,41.0667,-453.018,0,0
345819.0,40.9966,-452.234,0,0
346079.325,40.9437,-451.504,0,0
346339.65,40.8828,-450.697,0,0
346599.975,40.8238,-449.954,0,0
346860,40.7909,-449.175,0,0
347121,40.8061,-448.428,0,0
347381,40.8041,-447.642,0,0
347641,40.8032,-446.953,0,0
347902,40.8329,-446.174,0,0
348162,40.8806,-445.442,0,0
348422,40.9496,-444.714,0,0
348683,40.9851,-443.995,0,0
348943,41.0066,-443.33,0,0
349203,41.0657,-442.69,0,0
349464,41.1799,-441.94,0,0
349724,41.2017,-441.317,0,0
349984,41.2421,-440.641,0,0
350245,41.3292,-439.936,0,0
350505,41.4425,-439.277,0,0
350765,41.4931,-438.654,0,0
351025,41.5958,-438.003,0,0
351286,41.6856,-437.421,0,0
351546,41.7954,-436.795,0,0
351806,41.8935,-436.148,0,0
352067,41.9286,-435.555,0,0
352327,42.0222,-434.996,0,0
352587,42.1334,-434.395,0,0
352848,42.1966,-433.807,0,0
353108,42.2621,-433.207,0,0
353368,42.3519,-432.616,0,0
353629,42.4857,-432.02,0,0
353889,42.5495,-431.503,0,0
354149,42.6791,-430.901,0,0
354410,42.7636,-430.41,0,0
354670,42.8381,-429.863,0,0
354930,42.9568,-429.314,0,0
355191,42.9854,-428.845,0,0
355451,43.0923,-428.335,0,0
355711,43.1687,-427.843,0,0
355972,43.2335,-427.378,0,0
356232,43.2744,-426.884,0,0
356492,43.3084,-426.436,0,0
356753,43.3276,-425.964,0,0
357013,43.362,-425.522,0,0
357273,43.3264,-425.064,0,0
357534,43.3001,-424.595,0,0
357794,43.302,-424.11,0,0
358054,43.2476,-423.617,0,0
358315,43.1942,-423.135,0,0
358575,43.1665,-422.578,0,0
358835,43.0675,-422.086,0,0
359096,43.033,-421.564,0,0
359356,42.9594,-421.001,0,0
359616,42.9482,-420.438,0,0
359877,42.8694,-419.88,0,0
360137,42.8386,-419.31,0,0
360397,42.8173,-418.736,0,0
360658,42.8391,-418.191,0,0
360918,42.8144,-417.605,0,0
361178,42.8047,-417.019,0,0
361438,42.7355,-416.478,0,0
361699,42.7949,-415.898,0,0
361959,42.7818,-415.265,0,0
362219,42.787,-414.738,0,0
362480,42.8188,-414.099,0,0
362740.1,42.8106,-413.56,0,0
363000.425,42.8057,-412.957,0,0
363260.75,42.8433,-412.319,0,0
363521.075,42.8653,-411.724,0,0
363781.4,42.9053,-411.077,0,0
364041.725,42.9747,-410.479,0,0
364302.05,43.0251,-409.868,0,0
364562.375,43.1187,-409.271,0,0
364822.7,43.2007,-408.66,0,0
365083.025,43.3161,-408.032,0,0
365343.35,43.4416,-407.429,0,0
365603.675,43.5936,-406.868,0,0
365864.0,43.7548,-406.265,0,0
366124.325,43.9247,-405.757,0,0
366384.65,44.0773,-405.246,0,0
366644.975,44.1873,-404.752,0,0
366905.3,44.3345,-404.258,0,0
367165.625,44.4334,-403.781,0,0
367425.95,44.5551,-403.27,0,0
367686.275,44.6511,-402.792,0,0
367946.6,44.6721,-402.285,0,0
368206.925,44.8028,-401.766,0,0
368467.25,44.9121,-401.201,0,0
368727.575,45.0106,-400.69,0,0
368987.9,45.1243,-400.113,0,0
369248.225,45.2695,-399.603,0,0
369508.55,45.4108,-398.984,0,0
369768.875,45.606,-398.426,0,0
370029.2,45.8402,-397.934,0,0
370289.525,46.066,-397.324,0,0
370549.85,46.3596,-396.838,0,0
370810.175,46.6105,-396.425,0,0
371070.5,46.8813,-396.003,0,0
371330.825,47.1317,-395.613,0,0
371591.15,47.4166,-395.25,0,0
371851.475,47.6391,-394.935,0,0
372111.8,47.8479,-394.597,0,0
372372.125,48.0427,-394.283,0,0
372632.45,48.1969,-393.99,0,0
372892.775,48.3836,-393.701,0,0
373153.1,48.5463,-393.446,0,0
373413.425,48.6455,-393.13,0,0
373673.75,48.7787,-392.901,0,0
373934.075,48.8509,-392.593,0,0
374194.4,48.9298,-392.314,0,0
374454.725,48.9719,-392.024,0,0
374715.05,49.0458,-391.746,0,0
374975.375,49.0863,-391.415,0,0
375235.7,49.1089,-391.074,0,0
375496.025,49.1729,-390.748,0,0
375756.35,49.2374,-390.395,0,0
376016.675,49.2983,-390.073,0,0
376277.0,49.3641,-389.716,0,0
376537.325,49.4793,-389.388,0,0
376797.65,49.5782,-389.073,0,0
377057.975,49.6616,-388.755,0,0
377318.3,49.7539,-388.494,0,0
377578.625,49.8374,-388.228,0,0
377838.95,49.9259,-387.996,0,0
378099.275,49.9466,-387.793,0,0
378359.6,49.974,-387.601,0,0
378619.925,49.9187,-387.378,0,0
378880,49.8376,-387.165,0,0
379141,49.7194,-386.872,0,0
379401,49.5469,-386.554,0,0
379661,49.4116,-386.178,0,0
379922,49.3299,-385.714,0,0
380182,49.3029,-385.269,0,0
380442,49.3325,-384.791,0,0
380703,49.4203,-384.3,0,0
380963,49.6383,-383.892,0,0
381223,49.8062,-383.584,0,0
381483,50.0127,-383.34,0,0
381744,50.207,-383.177,0,0
382004,50.2955,-383.08,0,0
382264,50.3175,-382.987,0,0
382525,50.2749,-382.947,0,0
382785,50.207,-382.87,0,0
383045,50.0193,-382.769,0,0
383306,49.8129,-382.656,0,0
383566,49.5651,-382.478,0,0
383826,49.2914,-382.305,0,0
384087,48.9975,-382.042,0,0
384347,48.7055,-381.786,0,0
384607,48.3938,-381.475,0,0
384868,48.0837,-381.115,0,0
385128,47.7334,-380.714,0,0
385388,47.5085,-380.292,0,0
385649,47.1949,-379.869,0,0
385909,46.9301,-379.365,0,0
386169,46.6267,-378.884,0,0
386430,46.4329,-378.344,0,0
386690,46.1959,-377.856,0,0
386950,45.9636,-377.315,0,0
387211,45.7596,-376.73,0,0
387471,45.6174,-376.148,0,0
387731,45.4496,-375.597,0,0
387992,45.3043,-374.988,0,0
388252,45.1849,-374.382,0,0
388512,45.0781,-373.808,0,0
388773,44.9973,-373.202,0,0
389033,44.9547,-372.569,0,0
389293,44.9156,-371.98,0,0
389554,44.9169,-371.393,0,0
389814,44.9271,-370.805,0,0
390074,44.9466,-370.299,0,0
390335,44.9215,-369.746,0,0
390595,44.9568,-369.237,0,0
390855,44.977,-368.725,0,0
391116,44.9709,-368.205,0,0
391376,44.9407,-367.683,0,0
391636,44.9554,-367.233,0,0
391896,44.9328,-366.707,0,0
392157,44.9232,-366.206,0,0
392417,44.9268,-365.701,0,0
392677,44.9363,-365.206,0,0
392938,44.9024,-364.675,0,0
393198,44.8914,-364.181,0,0
393458,44.8957,-363.657,0,0
393719,44.9259,-363.12,0,0
393979,44.8974,-362.618,0,0
394239,44.8931,-362.084,0,0
394500,44.9047,-361.567,0,0
394760.05,44.9421,-361.008,0,0
395020.375,44.9825,-360.462,0,0
395280.7,45.0417,-359.948,0,0
395541.025,45.0593,-359.401,0,0
395801.35,45.1298,-358.841,0,0
396061.675,45.1944,-358.336,0,0
396322.0,45.3099,-357.794,0,0
396582.325,45.3858,-357.304,0,0
396842.65,45.4827,-356.795,0,0
397102.975,45.5635,-356.36,0,0
397363.3,45.6547,-355.89,0,0
397623.625,45.7685,-355.469,0,0
397883.95,45.8472,-355.013,0,0
398144.275,45.9051,-354.588,0,0
398404.6,45.9326,-354.142,0,0
398664.925,46.0036,-353.747,0,0
398925.25,46.0341,-353.277,0,0
399185.575,46.0276,-352.861,0,0
399445.9,46.0525,-352.402,0,0
399706.225,46.0638,-351.967,0,0
399966.55,46.0463,-351.487,0,0
400006.6,46.0542,-351.429,0,0