File: Accelerated corrosion test data/2025-10-09_06-00-03/sample_3.csv
Frequency (Hz),Impedance (ohms),Phase (Radians),Temperature (C),Humidity (%)
10000.0,252.311,-11790.3,0,0
10260.325,246.002,-11493.2,0,0
10520.65,240.239,-11210.7,0,0
10780.975,236.179,-10940.6,0,0
11041.3,230.319,-10688.8,0,0
11301.625,224.494,-10443.8,0,0
11561.95,220.185,-10210.1,0,0
11822.275,215.307,-9986.84,0,0
12082.6,212.951,-9772.94,0,0
12342.925,210.595,-9567.05,0,0
12603.25,204.038,-9373.06,0,0
12863.575,200.04,-9183.07,0,0
13123.9,200.035,-8999.94,0,0
13384.225,193.35,-8831.99,0,0
13644.55,190.623,-8664.3,0,0
13904.875,185.642,-8500.66,0,0
14165.2,185.923,-8343.43,0,0
14425.525,181.653,-8194.52,0,0
14685.8,179.117,-8048.35,0,0
14946.175,177.206,-7911.25,0,0
15206.5,173.785,-7769.71,0,0
15466.825,180.31,-7630.64,0,0
15727.15,194.761,-7530.52,0,0
15987.5,173.981,-7417.29,0,0
16247.8,168.52,-7287.92,0,0
16508.125,162.271,-7175.44,0,0
16768.45,167.232,-7054.97,0,0
17028.775,158.235,-6956.64,0,0
17289.1,161.424,-6843.29,0,0
17549.425,157.211,-6752,0,0
17809.75,157.704,-6646.04,0,0
18070.075,162.607,-6561.04,0,0
18330.4,151.048,-6466.47,0,0
18590.725,148.705,-6374.73,0,0
18851.05,145.281,-6284.58,0,0
19111.375,147.025,-6195.15,0,0
19371.7,146.057,-6112.49,0,0
19632.025,146.842,-6029.13,0,0
19892.35,147.692,-5947.36,0,0
20152.675,149.614,-5873.27,0,0
20413.0,159.282,-5795.04,0,0
20673.3,166.374,-5727.75,0,0
20933.65,161.857,-5675.29,0,0
21193.975,162.465,-5609.38,0,0
21454.3,145.71,-5549.08,0,0
21714.625,139.322,-5473.96,0,0
21974.9,142.251,-5408.12,0,0
22235.275,139.004,-5350.16,0,0
22495.6,137.564,-5287.59,0,0
22755.925,129.674,-5227.3,0,0
23016.25,128.555,-5168.4,0,0
23276.6,128.72,-5106.2,0,0
23536.9,129.506,-5060.44,0,0
23797.225,121.512,-5002.02,0,0
24057.55,119.529,-4944.73,0,0
24317.875,119.282,-4889.13,0,0
24578.2,117.207,-4839.28,0,0
24838.525,119.051,-4786.02,0,0
25098.85,116.242,-4738.98,0,0
25359.175,113.837,-4689.95,0,0
25619.5,113.91,-4641.48,0,0
25879.8,110.941,-4595.73,0,0
26140.1,108.611,-4547.89,0,0
26400.5,108.2,-4500.84,0,0
26660.8,108.446,-4456.2,0,0
26921.1,108.627,-4411.37,0,0
27181.4,108.714,-4371.07,0,0
27441.8,107.989,-4327.57,0,0
27702.1,107.846,-4287.88,0,0
27962.4,105.647,-4247.89,0,0
28222.7,104.057,-4204.89,0,0
28483.1,111.138,-4162.8,0,0
28743.4,112.939,-4128.12,0,0
29003.7,115.216,-4097.69,0,0
29264,108.372,-4064.66,0,0
29524.4,109.33,-4027.51,0,0
29784.7,104.843,-3992.92,0,0
30045,102.224,-3959.22,0,0
30305.3,100.696,-3922.06,0,0
30565.7,102.433,-3887.31,0,0
30826,101.454,-3855.82,0,0
31086.3,102.618,-3823.03,0,0
31346.6,99.1317,-3792.77,0,0
31607,98.0466,-3758.35,0,0
31867.3,98.5913,-3724.49,0,0
32127.6,101.759,-3691.55,0,0
32387.9,110.233,-3663.11,0,0
32648.3,112.144,-3645.06,0,0
32908.6,104.004,-3620.72,0,0
33168.9,101.243,-3593.33,0,0
33429.2,100.069,-3567.05,0,0
33689.6,93.8873,-3539.13,0,0
33949.9,91.1614,-3509.31,0,0
34210.2,91.0893,-3481.44,0,0
34470.5,90.1616,-3455.27,0,0
34730.9,88.1623,-3428.95,0,0
34991.2,86.8622,-3402.36,0,0
35251.5,85.9548,-3376.5,0,0
35511.8,85.2804,-3351.13,0,0
35772.2,84.5739,-3326.16,0,0
36032.5,83.4404,-3301.09,0,0
36292.8,82.7348,-3276.83,0,0
36553.1,82.3982,-3252.96,0,0
36813.5,81.9223,-3229.75,0,0
37073.8,81.4566,-3206.42,0,0
37334.1,80.4108,-3183.32,0,0
37594.4,80.1719,-3160.52,0,0
37854.8,79.5229,-3138.65,0,0
38115.1,79.0829,-3116.63,0,0
38375.4,78.5139,-3094.88,0,0
38635.7,78.2707,-3073.39,0,0
38896.1,77.8008,-3052.4,0,0
39156.4,77.4463,-3031.65,0,0
39416.7,76.9353,-3011.23,0,0
39677,76.6001,-2991.05,0,0
39937.4,75.9072,-2970.82,0,0
40197.7,75.577,-2951.03,0,0
40458,75.1855,-2931.45,0,0
40718.3,74.9158,-2912.25,0,0
40978.7,74.5471,-2892.78,0,0
41239,74.6592,-2873.92,0,0
41499.3,74.4356,-2855.64,0,0
41759.6,74.3509,-2837.26,0,0
42020,74.08,-2819.71,0,0
42280.275,73.9764,-2801.7,0,0
42540.6,73.3249,-2784.14,0,0
42800.925,73.5524,-2766.81,0,0
43061.25,72.9009,-2750.19,0,0
43321.575,72.3784,-2732.69,0,0
43581.9,71.8656,-2715.41,0,0
43842.225,71.9167,-2698.76,0,0
44102.55,72.2572,-2682.36,0,0
44362.875,72.3211,-2666.63,0,0
44623.2,71.519,-2650.63,0,0
44883.525,71.4578,-2634.68,0,0
45143.85,71.2345,-2619,0,0
45404.175,70.7774,-2603.72,0,0
45664.5,70.302,-2587.86,0,0
45924.825,71.0436,-2572.78,0,0
46185.15,70.7173,-2558.6,0,0
46445.475,70.0967,-2543.54,0,0
46705.8,69.9688,-2528.19,0,0
46966.125,70.2549,-2513.78,0,0
47226.45,69.7669,-2499.49,0,0
47486.775,69.4872,-2485.16,0,0
47747.1,70.2647,-2470.64,0,0
48007.425,70.6911,-2457.73,0,0
48267.75,70.7081,-2444.89,0,0
48528.075,69.7459,-2431.61,0,0
48788.4,69.4809,-2418.61,0,0
49048.725,68.6394,-2405.36,0,0
49309.05,68.0223,-2391.86,0,0
49569.375,67.9683,-2378.5,0,0
49829.7,67.8683,-2365.73,0,0
50090.025,67.2902,-2353.16,0,0
50350.35,66.6705,-2340.18,0,0
50610.675,66.5679,-2327.12,0,0
50871.0,66.4034,-2314.64,0,0
51131.325,66.2905,-2302.15,0,0
51391.65,66.3191,-2289.68,0,0
51651.975,66.3361,-2277.5,0,0
51912.3,66.2702,-2265.53,0,0
52172.625,66.1799,-2253.62,0,0
52432.95,66.1124,-2241.37,0,0
52693.275,66.1885,-2229.51,0,0
52953.6,66.5206,-2217.72,0,0
53213.925,67.3317,-2206.16,0,0
53474.25,68.0813,-2195.47,0,0
53734.575,68.1358,-2184.6,0,0
53994.9,68.3804,-2173.54,0,0
54255.225,69.4519,-2162.85,0,0
54515.55,70.2833,-2153.68,0,0
54775.875,69.6504,-2144.45,0,0
55036.2,68.7321,-2134.59,0,0
55296.525,68.1645,-2124.98,0,0
55556.85,66.7165,-2115.45,0,0
55817.175,65.1968,-2104.8,0,0
56077.5,64.35,-2094.35,0,0
56337.825,63.5594,-2083.95,0,0
56598.15,62.565,-2073.17,0,0
56858.475,61.889,-2062.58,0,0
57118.8,61.4615,-2051.74,0,0
57379.125,61.2862,-2041.3,0,0
57639.45,61.1824,-2030.67,0,0
57899.775,61.2923,-2020.59,0,0
58160.1,61.251,-2010.72,0,0
58420.4,61.1736,-2000.73,0,0
58680.7,61.1784,-1990.67,0,0
58941.1,61.4125,-1980.83,0,0
59201.4,61.3925,-1970.93,0,0
59461.7,61.7849,-1961.4,0,0
59722,62.0856,-1951.98,0,0
59982.4,62.3253,-1942.61,0,0
60242.7,62.5132,-1933.43,0,0
60503,62.7269,-1924,0,0
60763.3,63.181,-1914.75,0,0
61023.7,63.4792,-1905.56,0,0
61284,63.9086,-1896.55,0,0
61544.3,64.5031,-1887.49,0,0
61804.6,65.0385,-1879.04,0,0
62065,65.1621,-1870.11,0,0
62325.3,65.7225,-1861.29,0,0
62585.6,66.1326,-1852.54,0,0
62845.9,66.9332,-1843.53,0,0
63106.3,67.9859,-1834.85,0,0
63366.6,68.6846,-1826.53,0,0
63626.9,69.8499,-1817.6,0,0
63887.2,71.3515,-1809.25,0,0
64147.6,72.83,-1800.54,0,0
64407.9,74.9519,-1792.57,0,0
64668.2,77.4118,-1784.67,0,0
64928.5,80.3208,-1777.06,0,0
65188.9,84.3857,-1771.18,0,0
65449.2,86.6726,-1766.68,0,0
65709.5,88.8594,-1761.93,0,0
65969.8,92.1317,-1759,0,0
66230.2,91.3524,-1759.52,0,0
66490.5,85.9071,-1756.96,0,0
66750.8,80.7827,-1750.65,0,0
67011.1,78.0079,-1741.66,0,0
67271.5,76.206,-1733.87,0,0
67531.8,74.9728,-1725.45,0,0
67792.1,75.0121,-1717.46,0,0
68052.4,74.9613,-1709.51,0,0
68312.8,76.015,-1702.59,0,0
68573.1,76.3183,-1696.28,0,0
68833.4,76.292,-1690.03,0,0
69093.7,76.9115,-1683.38,0,0
69354.1,77.225,-1677.99,0,0
69614.4,76.7771,-1672.63,0,0
69874.7,76.0323,-1667.02,0,0
70135,75.2254,-1661.35,0,0
70395.4,74.237,-1655.54,0,0
70655.7,73.146,-1649.54,0,0
70916,71.8531,-1643.26,0,0
71176.3,70.8259,-1636.59,0,0
71436.7,70.113,-1630.08,0,0
71697,69.2799,-1623.17,0,0
71957.3,69.3735,-1616.23,0,0
72217.6,69.3893,-1610.05,0,0
72478,69.4733,-1603.95,0,0
72738.3,69.5493,-1598.22,0,0
72998.6,69.3758,-1592.71,0,0
73258.9,68.823,-1587.01,0,0
73519.3,68.3014,-1581.28,0,0
73779.6,67.9526,-1575.67,0,0
74039.9,67.3918,-1570.19,0,0
74300.225,66.5833,-1564.57,0,0
74560.55,65.8915,-1558.84,0,0
74820.875,65.156,-1553.16,0,0
75081.2,64.3706,-1547.49,0,0
75341.525,63.6386,-1541.66,0,0
75601.85,62.8621,-1535.91,0,0
75862.175,62.104,-1530.02,0,0
76122.5,61.4466,-1524.1,0,0
76382.825,60.7741,-1518.27,0,0
76643.15,60.2515,-1512.38,0,0
76903.475,59.7294,-1506.58,0,0
77163.8,59.2769,-1500.79,0,0
77424.125,58.848,-1495.06,0,0
77684.45,58.2764,-1489.38,0,0
77944.775,57.7231,-1483.67,0,0
78205.1,57.2548,-1477.96,0,0
78465.425,56.8688,-1472.24,0,0
78725.75,56.3779,-1466.48,0,0
78986.075,56.0083,-1460.81,0,0
79246.4,55.5994,-1455.28,0,0
79506.725,55.3163,-1449.58,0,0
79767.05,55.0235,-1443.99,0,0
80027.375,54.7261,-1438.43,0,0
80287.7,54.4077,-1432.82,0,0
80548.025,54.2864,-1427.32,0,0
80808.35,54.0379,-1421.91,0,0
81068.675,53.8092,-1416.46,0,0
81329.0,53.6425,-1411.03,0,0
81589.325,53.449,-1405.65,0,0
81849.65,53.3001,-1400.3,0,0
82109.975,53.2091,-1394.97,0,0
82370.3,53.0739,-1389.65,0,0
82630.625,52.9852,-1384.4,0,0
82890.95,52.882,-1379.2,0,0
83151.275,52.7783,-1373.99,0,0
83411.6,52.7101,-1368.89,0,0
83671.925,52.6162,-1363.67,0,0
83932.25,52.643,-1358.47,0,0
84192.575,52.5959,-1353.51,0,0
84452.9,52.5346,-1348.51,0,0
84713.225,52.4874,-1343.48,0,0
84973.55,52.4814,-1338.46,0,0
85233.875,52.5115,-1333.34,0,0
85494.2,52.5388,-1328.52,0,0
85754.525,52.6658,-1323.56,0,0
86014.85,52.6283,-1318.7,0,0
86275.175,52.6726,-1313.85,0,0
86535.5,52.6404,-1309.02,0,0
86795.825,52.6362,-1304.18,0,0
87056.15,52.6795,-1299.4,0,0
87316.475,52.7604,-1294.47,0,0
87576.8,52.9163,-1289.73,0,0
87837.125,53.0714,-1284.9,0,0
88097.45,53.2232,-1280.2,0,0
88357.775,53.3489,-1275.48,0,0
88618.1,53.5084,-1270.76,0,0
88878.425,53.7582,-1265.95,0,0
89138.75,54.016,-1261.19,0,0
89399.075,54.4875,-1256.49,0,0
89659.4,54.9897,-1251.9,0,0
89919.725,55.5494,-1247.46,0,0
90180,56.0005,-1243.12,0,0
90440.4,56.4541,-1238.94,0,0
90700.7,56.8085,-1234.64,0,0
90961,57.2378,-1230.35,0,0
91221.3,57.7706,-1226.1,0,0
91481.7,58.3352,-1221.87,0,0
91742,58.8378,-1217.93,0,0
92002.3,59.3233,-1213.82,0,0
92262.6,59.936,-1209.81,0,0
92523,60.7304,-1205.96,0,0
92783.3,61.3317,-1202.46,0,0
93043.6,61.7233,-1198.7,0,0
93303.9,62.537,-1195.11,0,0
93564.3,63.1698,-1191.85,0,0
93824.6,63.6812,-1188.81,0,0
94084.9,64.1793,-1186.04,0,0
94345.2,63.9722,-1183.56,0,0
94605.6,63.5634,-1180.77,0,0
94865.9,63.1042,-1178.16,0,0
95126.2,61.6826,-1175.44,0,0
95386.5,60.0229,-1171.66,0,0
95646.9,58.9955,-1167.34,0,0
95907.2,58.3015,-1163.18,0,0
96167.5,57.4917,-1158.88,0,0
96427.8,57.174,-1154.38,0,0
96688.2,57.1285,-1150.11,0,0
96948.5,57.0864,-1146.12,0,0
97208.8,56.9601,-1142.04,0,0
97469.1,56.9496,-1138.05,0,0
97729.5,56.9093,-1134.17,0,0
97989.8,56.8833,-1130.29,0,0
98250.1,56.8182,-1126.5,0,0
98510.4,56.7677,-1122.63,0,0
98770.8,56.7665,-1118.89,0,0
99031.1,56.7344,-1115.19,0,0
99291.4,56.5337,-1111.52,0,0
99551.7,56.2931,-1107.71,0,0
99812.1,56.1521,-1103.83,0,0
100072,55.974,-1100.02,0,0
100333,55.787,-1096.15,0,0
100593,55.6147,-1092.23,0,0
100853,55.5378,-1088.19,0,0
101114,55.564,-1084.14,0,0
101374,55.5736,-1080.12,0,0
101634,55.7158,-1076.02,0,0
101895,55.9463,-1071.92,0,0
102155,56.2323,-1067.82,0,0
102415,56.7375,-1063.63,0,0
102676,57.6335,-1059.55,0,0
102936,58.6633,-1055.96,0,0
103196,59.4288,-1052.66,0,0
103457,60.0226,-1049.35,0,0
103717,60.5828,-1045.88,0,0
103977,61.3301,-1042.42,0,0
104238,62.4209,-1039.25,0,0
104498,63.3956,-1036.6,0,0
104758,63.9081,-1034.33,0,0
105019,64.0052,-1031.91,0,0
105279,63.8788,-1029.13,0,0
105539,63.9471,-1026.35,0,0
105800,63.9625,-1023.75,0,0
106060,63.7216,-1021.22,0,0
106320.175,63.2083,-1018.39,0,0
106580.5,62.7801,-1015.43,0,0
106840.825,62.2637,-1012.52,0,0
107101.15,61.6217,-1009.39,0,0
107361.475,61.046,-1006.04,0,0
107621.8,60.612,-1002.66,0,0
107882.125,60.1838,-999.23,0,0
108142.45,59.7935,-995.731,0,0
108402.775,59.4774,-992.242,0,0
108663.1,59.1175,-988.675,0,0
108923.425,58.806,-984.955,0,0
109183.75,58.6257,-981.179,0,0
109444.075,58.6638,-977.417,0,0
109704.4,58.742,-973.7,0,0
109964.725,58.8124,-970.056,0,0
110225.05,58.8069,-966.353,0,0
110485.375,59.0369,-962.469,0,0
110745.7,59.4877,-958.678,0,0
111006.025,60.183,-955.152,0,0
111266.35,60.7924,-951.812,0,0
111526.675,61.0322,-948.486,0,0
111787.0,61.6244,-945.084,0,0
112047.325,62.1015,-941.801,0,0
112307.65,62.6223,-938.645,0,0
112567.975,63.0715,-935.627,0,0
112828.3,63.3612,-932.492,0,0
113088.625,63.6295,-929.242,0,0
113348.95,63.996,-926.09,0,0
113609.275,64.2842,-922.971,0,0
113869.6,64.5197,-919.785,0,0
114129.925,64.8222,-916.498,0,0
114390.25,65.0606,-913.296,0,0
114650.575,65.3662,-909.917,0,0
114910.9,65.7324,-906.413,0,0
115171.225,66.3201,-903.008,0,0
115431.55,66.968,-899.629,0,0
115691.875,67.6338,-896.396,0,0
115952.2,68.2322,-893.129,0,0
116212.525,68.8703,-889.766,0,0
116472.85,69.6934,-886.367,0,0
116733.175,70.7299,-883.123,0,0
116993.5,71.713,-880.045,0,0
117253.825,72.5523,-877.027,0,0
117514.15,73.3731,-873.726,0,0
117774.475,74.7098,-870.25,0,0
118034.8,76.3983,-867.29,0,0
118295.125,78.1358,-864.642,0,0
118555.45,79.7048,-862.458,0,0
118815.775,80.8177,-860.38,0,0
119076.1,81.8501,-858.078,0,0
119336.425,83.0837,-855.411,0,0
119596.75,84.9016,-853.185,0,0
119857.075,86.6979,-851.667,0,0
120117.4,88.0049,-850.805,0,0
120377.725,88.6442,-849.955,0,0
120638.05,88.911,-848.9,0,0
120898.375,88.9264,-847.786,0,0
121158.7,88.7067,-846.507,0,0
121419.025,88.0684,-845.125,0,0
121679.35,87.1772,-843.223,0,0
121939.675,86.3526,-840.705,0,0
122200.0,86.033,-837.944,0,0
122460,86.04,-835.212,0,0
122721,86.0844,-832.613,0,0
122981,86.2708,-829.886,0,0
123241,86.7805,-827.378,0,0
123502,87.1004,-825.155,0,0
123762,87.3054,-822.849,0,0
124022,87.6055,-820.511,0,0
124283,87.9663,-818.26,0,0
124543,88.2476,-816.065,0,0
124803,88.5157,-813.912,0,0
125064,88.8529,-811.775,0,0
125324,89.0824,-809.739,0,0
125584,89.3115,-807.709,0,0
125845,89.5608,-805.758,0,0
126105,89.6044,-803.949,0,0
126365,89.5102,-802.043,0,0
126626,89.3483,-800.133,0,0
126886,89.0787,-798.134,0,0
127146,88.8379,-795.997,0,0
127406,88.7023,-794.059,0,0
127667,88.3165,-791.861,0,0
127927,88.0251,-789.652,0,0
128187,87.6439,-787.497,0,0
128448,87.1338,-785.244,0,0
128708,86.5598,-782.77,0,0
128968,86.1294,-780.08,0,0
129229,85.9458,-777.368,0,0
129489,85.7731,-774.787,0,0
129749,85.5352,-772.095,0,0
130010,85.3961,-769.276,0,0
130270,85.5581,-766.397,0,0
130530,85.9479,-763.728,0,0
130791,86.3133,-761.326,0,0
131051,86.5704,-759.142,0,0
131311,86.6898,-757.021,0,0
131572,86.6258,-754.869,0,0
131832,86.4921,-752.658,0,0
132092,86.2947,-750.426,0,0
132353,85.9826,-748.024,0,0
132613,85.8169,-745.486,0,0
132873,85.8203,-742.991,0,0
133134,85.7386,-740.659,0,0
133394,85.6093,-738.336,0,0
133654,85.4257,-736.01,0,0
133915,85.1004,-733.632,0,0
134175,84.7877,-731.138,0,0
134435,84.5577,-728.569,0,0
134696,84.2924,-726.083,0,0
134956,83.8905,-723.478,0,0
135216,83.5968,-720.748,0,0
135477,83.3818,-718.008,0,0
135737,83.2859,-715.428,0,0
135997,82.9861,-712.775,0,0
136258,82.5784,-710.039,0,0
136518,82.3086,-707.042,0,0
136778,82.1467,-703.979,0,0
137039,82.1257,-700.895,0,0
137299,82.1993,-697.835,0,0
137559,82.477,-694.892,0,0
137819,82.7009,-692.097,0,0
138080,82.8425,-689.201,0,0
138340.125,83.2392,-686.324,0,0
138600.45,83.7236,-683.784,0,0
138860.775,83.8948,-681.508,0,0
139121.1,83.7688,-679.081,0,0
139381.425,83.5983,-676.514,0,0
139641.75,83.3461,-673.84,0,0
139902.075,83.0946,-671.001,0,0
140162.4,82.9778,-668.004,0,0
140422.725,83.0373,-665,0,0
140683.05,83.1935,-662.203,0,0
140943.375,83.1602,-659.507,0,0
141203.7,83.0275,-656.72,0,0
141464.025,82.8142,-653.885,0,0
141724.35,82.5037,-650.885,0,0
141984.675,82.2742,-647.695,0,0
142245.0,82.2338,-644.44,0,0
142505.325,82.1672,-641.325,0,0
142765.65,82.0617,-638.049,0,0
143025.975,82.0477,-634.705,0,0
143286.3,82.0489,-631.33,0,0
143546.625,82.1112,-627.855,0,0
143806.95,82.227,-624.395,0,0
144067.275,82.4146,-620.904,0,0
144327.6,82.6175,-617.403,0,0
144587.925,82.8583,-613.842,0,0
144848.25,83.1716,-610.221,0,0
145108.575,83.563,-606.623,0,0
145368.9,83.939,-603.03,0,0
145629.225,84.3448,-599.356,0,0
145889.55,84.7587,-595.632,0,0
146149.875,85.2888,-591.81,0,0
146410.2,85.9063,-588.001,0,0
146670.525,86.5732,-584.172,0,0
146930.85,87.2917,-580.3,0,0
147191.175,88.1047,-576.444,0,0
147451.5,88.8893,-572.524,0,0
147711.825,89.8183,-568.456,0,0
147972.15,90.9268,-564.404,0,0
148232.475,92.0967,-560.443,0,0
148492.8,93.298,-556.49,0,0
148753.125,94.5431,-552.458,0,0
149013.45,95.8828,-548.378,0,0
149273.775,97.3185,-544.241,0,0
149534.1,98.9251,-540.008,0,0
149794.425,100.832,-535.782,0,0
150054.75,102.882,-531.678,0,0
150315.075,105.112,-527.647,0,0
150575.4,107.582,-523.761,0,0
150835.725,110.132,-520.165,0,0
151096.05,112.653,-516.771,0,0
151356.375,115.098,-513.439,0,0
151616.7,117.599,-510.174,0,0
151877.025,120.098,-507.015,0,0
152137.35,122.637,-503.888,0,0
152397.675,125.263,-500.918,0,0
152658.0,127.868,-498.131,0,0
152918.325,130.454,-495.466,0,0
153178.65,132.943,-493.061,0,0
153438.975,135.141,-490.718,0,0
153699.3,137.181,-488.298,0,0
153959.625,139.182,-485.762,0,0
154219.95,141.208,-483.206,0,0
154480,143.168,-480.861,0,0
154741,144.591,-478.567,0,0
155001,145.801,-475.668,0,0
155261,147.195,-472.251,0,0
155522,149.182,-468.623,0,0
155782,151.548,-465.357,0,0
156042,153.58,-462.425,0,0
156303,155.421,-459.033,0,0
156563,157.527,-455.435,0,0
156823,159.843,-451.555,0,0
157084,162.86,-447.66,0,0
157344,166.394,-444.147,0,0
157604,170.121,-441.343,0,0
157864,173.447,-439.08,0,0
158125,176.654,-437.023,0,0
158385,179.475,-435.572,0,0
158645,181.253,-434.23,0,0
158906,182.195,-432.247,0,0
159166,182.88,-429.233,0,0
159426,183.992,-425.719,0,0
159687,184.605,-421.785,0,0
159947,185.474,-416.44,0,0
160207,187.788,-410.466,0,0
160468,190.916,-404.536,0,0
160728,194.888,-398.531,0,0
160988,199.912,-393.472,0,0
161249,204.146,-389.38,0,0
161509,207.962,-384.299,0,0
161769,212.772,-378.409,0,0
162030,218.876,-372.738,0,0
162290,225.483,-368.026,0,0
162550,232.381,-363.619,0,0
162811,239.223,-359.811,0,0
163071,246.099,-355.925,0,0
163331,253.465,-351.868,0,0
163592,261.585,-348.08,0,0
163852,270.286,-344.789,0,0
164112,279.19,-342.09,0,0
164373,288.355,-339.764,0,0
164633,298.202,-337.433,0,0
164893,309.433,-335.898,0,0
165154,321.53,-336.351,0,0
165414,332.716,-339.095,0,0
165674,342.362,-342.256,0,0
165935,351.809,-345.064,0,0
166195,362.076,-348.629,0,0
166455,371.812,-354.07,0,0
166716,380.453,-360.163,0,0
166976,388.184,-366.921,0,0
167236,394.922,-374.072,0,0
167497,400.384,-381.129,0,0
167757,405.24,-387.661,0,0
168017,410.59,-394.074,0,0
168277,415.442,-401.583,0,0
168538,419.216,-409.481,0,0
168798,422.21,-417.151,0,0
169058,424.742,-424.649,0,0
169319,427.29,-432.733,0,0
169579,428.406,-442.152,0,0
169839,426.766,-451.317,0,0
170100,423.393,-458.378,0,0
170360.075,419.973,-463.323,0,0
170620.4,417.193,-467.232,0,0
170880.725,414.603,-470.795,0,0
171141.05,411.86,-473.713,0,0
171401.375,409.194,-475.571,0,0
171661.7,407.478,-476.506,0,0
171922.025,406.674,-477.843,0,0
172182.35,405.759,-479.422,0,0
172442.675,404.306,-480.527,0,0
172703.0,403.375,-480.234,0,0
172963.325,404.169,-479.413,0,0
173223.65,406.739,-479.705,0,0
173483.975,409.265,-481.945,0,0
173744.3,410.626,-484.777,0,0
174004.625,411.423,-487.037,0,0
174264.95,413.288,-489.144,0,0
174525.275,415.503,-492.946,0,0
174785.6,416.311,-497.579,0,0
175045.925,416.176,-501.683,0,0
175306.25,415.852,-505.739,0,0
175566.575,415.264,-509.661,0,0
175826.9,414.352,-513.76,0,0
176087.225,412.93,-517.842,0,0
176347.55,411.14,-521.504,0,0
176607.875,409.69,-525.061,0,0
176868.2,407.983,-529.706,0,0
177128.525,404.41,-534.955,0,0
177388.85,399.18,-538.704,0,0
177649.175,393.947,-540.958,0,0
177909.5,388.69,-542.879,0,0
178169.825,382.486,-543.732,0,0
178430.15,376.548,-542.706,0,0
178690.475,371.719,-540.627,0,0
178950.8,367.815,-538.171,0,0
179211.125,364.752,-535.441,0,0
179471.45,362.162,-532.741,0,0
179731.775,360.08,-529.669,0,0
179992.1,359.003,-526.294,0,0
180252.425,358.963,-523.43,0,0
180512.75,359.331,-521.217,0,0
180773.075,359.946,-519.603,0,0
181033.4,360.511,-518.429,0,0
181293.725,361.248,-517.489,0,0
181554.05,362.363,-516.76,0,0
181814.375,363.974,-517.208,0,0
182074.7,364.815,-519.264,0,0
182335.025,363.783,-521.589,0,0
182595.35,361.533,-523.164,0,0
182855.675,359.136,-523.7,0,0
183116.0,357.054,-523.857,0,0
183376.325,354.932,-524.18,0,0
183636.65,352.256,-524.54,0,0
183896.975,349.006,-524.357,0,0
184157.3,345.52,-523.307,0,0
184417.625,342.421,-521.565,0,0
184677.95,339.643,-519.645,0,0
184938.275,336.831,-517.615,0,0
185198.6,334.031,-515.191,0,0
185458.925,331.339,-512.347,0,0
185719.25,328.727,-509.236,0,0
185979.575,326.097,-505.461,0,0
186239.9,324.02,-500.922,0,0
186500,322.786,-496.016,0,0
186761,322.363,-491.111,0,0
187021,322.566,-486.452,0,0
187281,323.193,-482.122,0,0
187542,324.005,-478.001,0,0
187802,325.13,-473.982,0,0
188062,326.592,-470.171,0,0
188322,328.449,-466.813,0,0
188583,330.284,-464.174,0,0
188843,331.465,-461.959,0,0
189103,332.032,-459.257,0,0
189364,332.808,-455.925,0,0
189624,334.087,-452.42,0,0
189884,335.88,-448.995,0,0
190145,337.964,-445.904,0,0
190405,340.004,-443.202,0,0
190665,341.979,-440.591,0,0
190926,343.905,-438.164,0,0
191186,345.696,-435.659,0,0
191446,347.382,-433.176,0,0
191707,348.998,-430.39,0,0
191967,350.904,-427.462,0,0
192227,352.98,-424.739,0,0
192488,354.774,-422.067,0,0
192748,356.336,-419.016,0,0
193008,358.112,-415.272,0,0
193269,360.599,-411.109,0,0
193529,363.809,-407.029,0,0
193789,367.391,-403.206,0,0
194050,371.213,-399.424,0,0
194310,375.618,-395.461,0,0
194570,380.838,-391.729,0,0
194831,386.717,-388.503,0,0
195091,393.178,-386.175,0,0
195351,399.796,-384.563,0,0
195612,406.421,-383.978,0,0
195872,412.653,-383.945,0,0
196132,418.923,-384.292,0,0
196393,425.256,-385.443,0,0
196653,431.166,-387.73,0,0
196913,436.145,-391.043,0,0
197174,439.145,-394.209,0,0
197434,441.187,-396.35,0,0
197694,443.168,-397.387,0,0
197955,445.818,-397.89,0,0
198215,449.009,-398.696,0,0
198475,452.107,-400.165,0,0
198735,454.41,-402.049,0,0
198996,455.736,-403.181,0,0
199256,457.305,-403.114,0,0
199516,460.024,-402.94,0,0
199777,463.155,-403.679,0,0
200037,465.599,-405.248,0,0
200297,466.81,-406.748,0,0
200558,467.163,-407.175,0,0
200818,467.611,-406.28,0,0
201078,468.89,-404.415,0,0
201339,471.242,-402.375,0,0
201599,474.123,-400.676,0,0
201859,477.085,-399.108,0,0
202120,480.161,-397.232,0,0
202380.025,483.904,-395.004,0,0
202640.35,488.65,-392.866,0,0
202900.675,494.073,-391.32,0,0
203161.0,499.924,-390.303,0,0
203421.325,505.997,-389.965,0,0
203681.65,512.16,-390.15,0,0
203941.975,518.364,-390.808,0,0
204202.3,524.787,-392,0,0
204462.625,531.157,-394,0,0
204722.95,537.03,-396.673,0,0
204983.275,542.541,-399.57,0,0
205243.6,547.739,-402.857,0,0
205503.925,552.532,-406.738,0,0
205764.25,556.297,-411.053,0,0
206024.575,558.937,-415.24,0,0
206284.9,560.482,-418.453,0,0
206545.225,561.898,-420.446,0,0
206805.55,563.461,-421.559,0,0
207065.875,565.539,-421.679,0,0
207326.2,568.698,-421.135,0,0
207586.525,573.042,-420.623,0,0
207846.85,578.105,-420.694,0,0
208107.175,583.625,-421.097,0,0
208367.5,589.69,-421.814,0,0
208627.825,596.224,-423.231,0,0
208888.15,602.875,-425.318,0,0
209148.475,609.638,-427.844,0,0
209408.8,616.443,-431.004,0,0
209669.125,623.247,-434.712,0,0
209929.45,629.964,-438.974,0,0
210189.775,636.481,-443.768,0,0
210450.1,642.727,-448.861,0,0
210710.425,648.926,-454.288,0,0
210970.75,654.8,-460.234,0,0
211231.075,660.447,-466.534,0,0
211491.4,665.701,-473.185,0,0
211751.725,670.47,-480.073,0,0
212012.05,674.87,-486.877,0,0
212272.375,679.166,-493.754,0,0
212532.7,683.298,-500.684,0,0
212793.025,687.485,-507.638,0,0
213053.35,691.745,-515.109,0,0
213313.675,695.784,-523.129,0,0
213574.0,699.272,-531.524,0,0
213834.325,702.147,-540.067,0,0
214094.65,704.609,-548.554,0,0
214354.975,706.825,-556.967,0,0
214615.3,708.948,-565.276,0,0
214875.625,711.026,-573.865,0,0
215135.95,712.909,-582.986,0,0
215396.275,714.414,-592.268,0,0
215656.6,715.372,-601.803,0,0
215916.925,715.72,-611.26,0,0
216177.25,715.921,-620.896,0,0
216437.575,715.579,-630.698,0,0
216697.9,714.637,-640.636,0,0
216958.225,712.94,-650.545,0,0
217218.55,710.355,-659.965,0,0
217478.875,707.623,-668.687,0,0
217739.2,704.939,-677.042,0,0
217999.525,702.228,-685.342,0,0
218259.85,699.44,-693.758,0,0
218520,696.161,-702.294,0,0
218780,692.12,-710.38,0,0
219041,687.798,-717.734,0,0
219301,683.832,-724.4,0,0
219561,680.441,-731.085,0,0
219822,677.525,-738.112,0,0
220082,674.317,-745.67,0,0
220342,670.533,-753.705,0,0
220603,665.976,-761.894,0,0
220863,661.064,-769.676,0,0
221123,655.607,-777.376,0,0
221384,649.822,-784.845,0,0
221644,643.852,-792.093,0,0
221904,637.429,-799.491,0,0
222165,629.994,-806.705,0,0
222425,622.062,-812.882,0,0
222685,614.149,-818.648,0,0
222946,605.942,-824.195,0,0
223206,596.894,-829.107,0,0
223466,587.43,-833.362,0,0
223727,577.594,-836.272,0,0
223987,567.753,-838.019,0,0
224247,558.595,-838.329,0,0
224508,550.593,-837.834,0,0
224768,543.56,-836.909,0,0
225028,536.987,-835.672,0,0
225289,531.685,-834.465,0,0
225549,527.164,-833.545,0,0
225809,523.518,-832.764,0,0
226070,520.33,-832.785,0,0
226330,517.259,-833.59,0,0
226590,514.19,-834.849,0,0
226851,511.193,-836.483,0,0
227111,507.89,-838.596,0,0
227371,504.292,-841.145,0,0
227632,500.202,-843.977,0,0
227892,495.53,-846.59,0,0
228152,490.719,-849.13,0,0
228413,485.511,-851.609,0,0
228673,479.981,-853.937,0,0
228933,474.246,-855.881,0,0
229193,468.266,-857.427,0,0
229454,462.398,-858.662,0,0
229714,456.413,-859.498,0,0
229974,450.83,-860.229,0,0
230235,445.138,-860.74,0,0
230495,439.63,-861.431,0,0
230755,433.919,-861.903,0,0
231016,428.065,-862.075,0,0
231276,422.428,-861.831,0,0
231536,417.06,-861.496,0,0
231797,411.847,-861.111,0,0
232057,406.694,-860.62,0,0
232317,401.689,-860.144,0,0
232578,396.774,-859.56,0,0
232838,391.906,-858.935,0,0
233098,387.17,-858.415,0,0
233359,382.328,-857.778,0,0
233619,377.675,-857.059,0,0
233879,373.012,-856.4,0,0
234140,368.363,-855.63,0,0
234400,363.622,-854.83,0,0
234660.3,358.914,-853.881,0,0
234920.625,354.51,-852.997,0,0
235180.95,350.044,-852.112,0,0
235441.275,345.615,-851.378,0,0
235701.6,340.943,-850.631,0,0
235961.925,336.128,-849.733,0,0
236222.25,331.244,-848.69,0,0
236482.575,326.146,-847.281,0,0
236742.9,321.347,-845.767,0,0
237003.225,316.676,-844.177,0,0
237263.55,312.032,-842.639,0,0
237523.875,307.191,-840.919,0,0
237784.2,302.205,-839.107,0,0
238044.525,297.219,-837.006,0,0
238304.85,292.31,-834.545,0,0
238565.175,287.363,-831.894,0,0
238825.5,282.724,-828.816,0,0
239085.825,278.135,-825.57,0,0
239346.15,273.902,-822.147,0,0
239606.475,270.045,-818.43,0,0
239866.8,266.544,-814.705,0,0
240127.125,263.349,-811.111,0,0
240387.45,260.276,-807.645,0,0
240647.775,257.289,-804.181,0,0
240908.1,254.468,-800.795,0,0
241168.425,251.724,-797.347,0,0
241428.75,248.978,-793.91,0,0
241689.075,246.38,-790.218,0,0
241949.4,243.983,-786.302,0,0
242209.725,242.03,-782.362,0,0
242470.05,240.462,-778.694,0,0
242730.375,239.13,-775.279,0,0
242990.7,237.759,-772.02,0,0
243251.025,236.433,-768.694,0,0
243511.35,235.28,-765.505,0,0
243771.675,234.269,-762.495,0,0
244032.0,233.155,-759.745,0,0
244292.325,232.286,-756.944,0,0
244552.65,231.38,-754.335,0,0
244812.975,230.511,-751.753,0,0
245073.3,229.712,-749.351,0,0
245333.625,228.786,-747.193,0,0
245593.95,227.777,-745.009,0,0
245854.275,226.689,-742.811,0,0
246114.6,225.525,-740.589,0,0
246374.925,224.357,-738.185,0,0
246635.25,223.31,-735.825,0,0
246895.575,222.312,-733.406,0,0
247155.9,221.386,-731.056,0,0
247416.225,220.509,-728.694,0,0
247676.55,219.6,-726.392,0,0
247936.875,218.794,-723.935,0,0
248197.2,218.073,-721.383,0,0
248457.525,217.562,-718.814,0,0
248717.85,217.252,-716.338,0,0
248978.175,217.195,-714.102,0,0
249238.5,217.266,-712.122,0,0
249498.825,217.263,-710.229,0,0
249759.15,217.19,-708.717,0,0
250019.475,217.128,-707.251,0,0
250279.8,216.93,-705.92,0,0
250540,216.605,-704.854,0,0
250800,216.056,-703.93,0,0
251061,215.221,-702.936,0,0
251321,214.268,-701.935,0,0
251581,213.125,-700.812,0,0
251842,211.855,-699.617,0,0
252102,210.385,-698.314,0,0
252362,208.807,-696.821,0,0
252623,207.118,-695.1,0,0
252883,205.415,-693.186,0,0
253143,203.741,-690.98,0,0
253404,202.124,-688.48,0,0
253664,200.641,-685.787,0,0
253924,199.346,-682.917,0,0
254185,198.231,-679.902,0,0
254445,197.263,-676.695,0,0
254705,196.609,-673.418,0,0
254966,196.176,-670.091,0,0
255226,195.97,-666.777,0,0
255486,195.929,-663.364,0,0
255747,196.128,-659.876,0,0
256007,196.721,-656.295,0,0
256267,197.698,-652.817,0,0
256528,199.044,-649.515,0,0
256788,200.662,-646.496,0,0
257048,202.512,-643.78,0,0
257309,204.568,-641.41,0,0
257569,206.614,-639.39,0,0
257829,208.545,-637.72,0,0
258090,210.406,-636.132,0,0
258350,212.043,-634.731,0,0
258610,213.562,-633.261,0,0
258871,215.155,-631.653,0,0
259131,216.923,-629.933,0,0
259391,218.989,-628.138,0,0
259651,221.55,-626.572,0,0
259912,224.319,-625.412,0,0
260172,227.292,-624.561,0,0
260432,230.318,-624.276,0,0
260693,233.339,-624.21,0,0
260953,236.45,-624.598,0,0
261213,239.63,-625.386,0,0
261474,242.706,-626.833,0,0
261734,245.379,-628.877,0,0
261994,247.649,-631.303,0,0
262255,249.438,-634.029,0,0
262515,250.717,-636.97,0,0
262775,251.404,-640.036,0,0
263036,251.637,-642.986,0,0
263296,251.463,-645.868,0,0
263556,251.017,-648.644,0,0
263817,250.255,-651.414,0,0
264077,249.118,-654.221,0,0
264337,247.616,-656.747,0,0
264598,245.711,-659.172,0,0
264858,243.427,-661.275,0,0
265118,241.006,-663.069,0,0
265379,238.346,-664.516,0,0
265639,235.518,-665.672,0,0
265899,232.565,-666.532,0,0
266160,229.554,-667.061,0,0
266420,226.476,-667.268,0,0
266680.25,223.495,-667.125,0,0
266940.575,220.48,-666.659,0,0
267200.9,217.645,-665.861,0,0
267461.225,214.823,-664.855,0,0
267721.55,212.234,-663.597,0,0
267981.875,209.836,-662.072,0,0
268242.2,207.67,-660.433,0,0
268502.525,205.732,-658.66,0,0
268762.85,204.012,-656.779,0,0
269023.175,202.524,-654.903,0,0
269283.5,201.25,-653.03,0,0
269543.825,200.095,-651.262,0,0
269804.15,199.031,-649.492,0,0
270064.475,198.007,-647.707,0,0
270324.8,197.038,-646.021,0,0
270585.125,196.174,-644.165,0,0
270845.45,195.492,-642.179,0,0
271105.775,194.974,-640.254,0,0
271366.1,194.628,-638.449,0,0
271626.425,194.393,-636.702,0,0
271886.75,194.222,-635.041,0,0
272147.075,194.189,-633.474,0,0
272407.4,194.235,-632.076,0,0
272667.725,194.182,-630.831,0,0
272928.05,194.044,-629.538,0,0
273188.375,193.687,-628.263,0,0
273448.7,193.391,-626.797,0,0
273709.025,193.207,-625.254,0,0
273969.35,193.09,-623.616,0,0
274229.675,193.102,-621.895,0,0
274490.0,193.319,-620.058,0,0
274750.325,193.723,-618.352,0,0
275010.65,194.293,-616.632,0,0
275270.975,195.126,-614.939,0,0
275531.3,196.09,-613.377,0,0
275791.625,197.266,-611.906,0,0
276051.95,198.654,-610.63,0,0
276312.275,200.189,-609.579,0,0
276572.6,201.807,-608.752,0,0
276832.925,203.571,-608.177,0,0
277093.25,205.419,-607.977,0,0
277353.575,207.17,-608.134,0,0
277613.9,208.767,-608.561,0,0
277874.225,210.235,-609.197,0,0
278134.55,211.56,-610.003,0,0
278394.875,212.729,-611.015,0,0
278655.2,213.728,-612.221,0,0
278915.525,214.485,-613.589,0,0
279175.85,214.951,-615.037,0,0
279436.175,215.252,-616.537,0,0
279696.5,215.286,-618.128,0,0
279956.825,215.089,-619.619,0,0
280217.15,214.7,-621.205,0,0
280477.475,214.046,-622.655,0,0
280737.8,213.2,-624.006,0,0
280998.125,212.248,-625.226,0,0
281258.45,211.175,-626.355,0,0
281518.775,210.038,-627.388,0,0
281779.1,208.765,-628.438,0,0
282039.425,207.316,-629.364,0,0
282299.75,205.73,-630.149,0,0
282560,204.057,-630.726,0,0
282820,202.357,-631.166,0,0
283081,200.631,-631.466,0,0
283341,198.881,-631.658,0,0
283601,197.019,-631.706,0,0
283862,195.237,-631.609,0,0
284122,193.456,-631.376,0,0
284382,191.763,-631.031,0,0
284643,189.981,-630.563,0,0
284903,188.265,-629.995,0,0
285163,186.635,-629.303,0,0
285424,184.961,-628.486,0,0
285684,183.341,-627.524,0,0
285944,181.873,-626.437,0,0
286205,180.496,-625.219,0,0
286465,179.274,-623.953,0,0
286725,178.157,-622.609,0,0
286986,177.172,-621.226,0,0
287246,176.366,-619.775,0,0
287506,175.742,-618.301,0,0
287767,175.34,-616.842,0,0
288027,175.113,-615.516,0,0
288287,175.008,-614.346,0,0
288548,175.005,-613.329,0,0
288808,174.996,-612.496,0,0
289068,174.988,-611.746,0,0
289329,174.948,-611.147,0,0
289589,174.874,-610.675,0,0
289849,174.649,-610.265,0,0
290109,174.382,-609.88,0,0
290370,174.07,-609.421,0,0
290630,173.728,-609,0,0
290890,173.396,-608.611,0,0
291151,172.994,-608.303,0,0
291411,172.495,-607.988,0,0
291671,171.871,-607.641,0,0
291932,171.127,-607.189,0,0
292192,170.384,-606.594,0,0
292452,169.623,-605.859,0,0
292713,168.953,-604.985,0,0
292973,168.368,-604.016,0,0
293233,167.931,-602.945,0,0
293494,167.636,-601.805,0,0
293754,167.544,-600.697,0,0
294014,167.7,-599.674,0,0
294275,167.91,-598.737,0,0
294535,168.271,-597.936,0,0
294795,168.669,-597.235,0,0
295056,169.16,-596.733,0,0
295316,169.684,-596.336,0,0
295576,170.244,-596.133,0,0
295837,170.779,-596.15,0,0
296097,171.239,-596.299,0,0
296357,171.553,-596.614,0,0
296618,171.764,-597.008,0,0
296878,171.879,-597.469,0,0
297138,171.883,-598,0,0
297399,171.77,-598.63,0,0
297659,171.519,-599.29,0,0
297919,171.111,-599.974,0,0
298180,170.548,-600.651,0,0
298440,169.82,-601.29,0,0
298700.2,168.988,-601.855,0,0
298960.525,168.098,-602.317,0,0
299220.85,167.145,-602.73,0,0
299481.175,166.087,-603.088,0,0
299741.5,165.061,-603.362,0,0
300001.825,163.97,-603.586,0,0
300262.15,162.791,-603.792,0,0
300522.475,161.626,-603.917,0,0
300782.8,160.403,-603.987,0,0
301043.125,159.126,-604.009,0,0
301303.45,157.821,-603.95,0,0
301563.775,156.498,-603.831,0,0
301824.1,155.155,-603.648,0,0
302084.425,153.794,-603.352,0,0
302344.75,152.417,-602.991,0,0
302605.075,151.084,-602.518,0,0
302865.4,149.779,-601.988,0,0
303125.725,148.53,-601.429,0,0
303386.05,147.304,-600.829,0,0
303646.375,146.098,-600.212,0,0
303906.7,144.885,-599.536,0,0
304167.025,143.687,-598.809,0,0
304427.35,142.507,-598.037,0,0
304687.675,141.369,-597.211,0,0
304948.0,140.302,-596.333,0,0
305208.325,139.26,-595.419,0,0
305468.65,138.272,-594.492,0,0
305728.975,137.283,-593.519,0,0
305989.3,136.367,-592.496,0,0
306249.625,135.504,-591.449,0,0
306509.95,134.72,-590.368,0,0
306770.275,134.031,-589.29,0,0
307030.6,133.402,-588.233,0,0
307290.925,132.854,-587.179,0,0
307551.25,132.37,-586.16,0,0
307811.575,131.954,-585.187,0,0
308071.9,131.597,-584.287,0,0
308332.225,131.279,-583.451,0,0
308592.55,130.942,-582.71,0,0
308852.875,130.593,-582.025,0,0
309113.2,130.238,-581.386,0,0
309373.525,129.857,-580.784,0,0
309633.85,129.462,-580.216,0,0
309894.175,128.989,-579.71,0,0
310154.5,128.489,-579.253,0,0
310414.825,127.943,-578.769,0,0
310675.15,127.329,-578.294,0,0
310935.475,126.661,-577.812,0,0
311195.8,125.968,-577.29,0,0
311456.125,125.237,-576.765,0,0
311716.45,124.438,-576.226,0,0
311976.775,123.593,-575.651,0,0
312237.1,122.686,-575.026,0,0
312497.425,121.738,-574.287,0,0
312757.75,120.809,-573.451,0,0
313018.075,119.868,-572.541,0,0
313278.4,118.976,-571.52,0,0
313538.725,118.139,-570.451,0,0
313799.05,117.374,-569.288,0,0
314059.375,116.63,-568.114,0,0
314319.7,115.949,-566.878,0,0
314580,115.373,-565.62,0,0
314840,114.843,-564.255,0,0
315101,114.492,-562.843,0,0
315361,114.218,-561.525,0,0
315621,114.022,-560.151,0,0
315882,113.959,-558.873,0,0
316142,114.018,-557.625,0,0
316402,114.18,-556.477,0,0
316663,114.332,-555.409,0,0
316923,114.586,-554.521,0,0
317183,114.848,-553.637,0,0
317444,115.017,-552.857,0,0
317704,115.289,-552.177,0,0
317964,115.38,-551.538,0,0
318225,115.548,-550.97,0,0
318485,115.54,-550.518,0,0
318745,115.579,-549.843,0,0
319006,115.609,-549.353,0,0
319266,115.514,-548.904,0,0
319526,115.474,-548.419,0,0
319787,115.352,-547.794,0,0
320047,115.303,-547.208,0,0
320307,115.233,-546.702,0,0
320567,115.203,-546.12,0,0
320828,115.178,-545.488,0,0
321088,115.254,-544.972,0,0
321348,115.238,-544.334,0,0
321609,115.396,-543.863,0,0
321869,115.601,-543.329,0,0
322129,115.844,-542.893,0,0
322390,116.077,-542.643,0,0
322650,116.354,-542.399,0,0
322910,116.514,-542.345,0,0
323171,116.75,-542.325,0,0
323431,116.74,-542.359,0,0
323691,116.812,-542.545,0,0
323952,116.614,-542.655,0,0
324212,116.448,-542.847,0,0
324472,116.211,-543.049,0,0
324733,115.876,-543.241,0,0
324993,115.458,-543.406,0,0
325253,114.971,-543.603,0,0
325514,114.409,-543.673,0,0
325774,113.755,-543.84,0,0
326034,113.074,-543.911,0,0
326295,112.275,-543.887,0,0
326555,111.553,-543.932,0,0
326815,110.668,-543.858,0,0
327076,109.795,-543.721,0,0
327336,108.959,-543.475,0,0
327596,108.063,-543.269,0,0
327857,107.186,-542.945,0,0
328117,106.239,-542.618,0,0
328377,105.367,-542.259,0,0
328638,104.532,-541.837,0,0
328898,103.698,-541.378,0,0
329158,102.716,-540.868,0,0
329419,102.004,-540.387,0,0
329679,101.179,-539.782,0,0
329939,100.312,-539.261,0,0
330200,99.5398,-538.761,0,0
330460,98.7675,-538.215,0,0
330720.15,97.9571,-537.653,0,0
330980.475,97.1352,-537.113,0,0
331240.8,96.31,-536.509,0,0
331501.125,95.4491,-535.926,0,0
331761.45,94.5429,-535.258,0,0
332021.775,93.6771,-534.595,0,0
332282.1,92.7615,-533.901,0,0
332542.425,91.9259,-533.171,0,0
332802.75,91.0592,-532.431,0,0
333063.075,90.2338,-531.571,0,0
333323.4,89.3032,-530.814,0,0
333583.725,88.4407,-529.921,0,0
333844.05,87.5464,-528.994,0,0
334104.375,86.6356,-528.072,0,0
334364.7,85.8446,-527.076,0,0
334625.025,85.0369,-525.934,0,0
334885.35,84.2286,-524.866,0,0
335145.675,83.5705,-523.654,0,0
335406.0,82.8256,-522.516,0,0
335666.325,82.2038,-521.386,0,0
335926.65,81.634,-520.157,0,0
336186.975,81.1083,-518.906,0,0
336447.3,80.5509,-517.732,0,0
336707.625,80.1621,-516.569,0,0
336967.95,79.7339,-515.351,0,0
337228.275,79.2735,-514.167,0,0
337488.6,78.8435,-512.972,0,0
337748.925,78.5466,-511.747,0,0
338009.25,78.166,-510.531,0,0
338269.575,77.7875,-509.286,0,0
338529.9,77.4851,-508.018,0,0
338790.225,77.1895,-506.681,0,0
339050.55,76.977,-505.478,0,0
339310.875,76.8042,-504.089,0,0
339571.2,76.638,-502.764,0,0
339831.525,76.5935,-501.404,0,0
340091.85,76.5737,-500.008,0,0
340352.175,76.6287,-498.668,0,0
340612.5,76.8948,-497.336,0,0
340872.825,77.1089,-496.019,0,0
341133.15,77.3764,-494.82,0,0
341393.475,77.7284,-493.619,0,0
341653.8,78.2099,-492.493,0,0
341914.125,78.665,-491.404,0,0
342174.45,79.2113,-490.492,0,0
342434.775,79.7249,-489.634,0,0
342695.1,80.2877,-488.802,0,0
342955.425,80.8215,-488.184,0,0
343215.75,81.331,-487.569,0,0
343476.075,81.7989,-487.041,0,0
343736.4,82.1882,-486.574,0,0
343996.725,82.5583,-486.136,0,0
344257.05,82.8424,-485.878,0,0
344517.375,83.1284,-485.475,0,0
344777.7,83.3071,-485.171,0,0
345038.025,83.3591,-484.87,0,0
345298.35,83.4238,-484.525,0,0
345558.675,83.4306,-484.236,0,0
345819.0,83.3743,-483.847,0,0
346079.325,83.3548,-483.409,0,0
346339.65,83.2405,-483.026,0,0
346599.975,83.1424,-482.55,0,0
346860,83.0741,-482.021,0,0
347121,83.0022,-481.571,0,0
347381,82.8856,-481.124,0,0
347641,82.7982,-480.588,0,0
347902,82.6614,-480.088,0,0
348162,82.5051,-479.519,0,0
348422,82.3803,-478.95,0,0
348683,82.2564,-478.335,0,0
348943,82.0814,-477.7,0,0
349203,81.988,-477.053,0,0
349464,81.9577,-476.332,0,0
349724,81.9745,-475.58,0,0
349984,81.9177,-474.812,0,0
350245,82.0246,-474.128,0,0
350505,82.2354,-473.405,0,0
350765,82.465,-472.762,0,0
351025,82.6977,-472.065,0,0
351286,82.9402,-471.495,0,0
351546,83.308,-471.038,0,0
351806,83.7287,-470.583,0,0
352067,84.0345,-470.305,0,0
352327,84.3347,-470.093,0,0
352587,84.5983,-469.969,0,0
352848,84.7385,-469.838,0,0
353108,84.7973,-469.789,0,0
353368,84.7843,-469.79,0,0
353629,84.6936,-469.794,0,0
353889,84.463,-469.704,0,0
354149,84.1775,-469.552,0,0
354410,83.8381,-469.397,0,0
354670,83.5433,-469.176,0,0
354930,83.1073,-468.818,0,0
355191,82.7326,-468.469,0,0
355451,82.3935,-468.065,0,0
355711,82.0946,-467.625,0,0
355972,81.7789,-467.221,0,0
356232,81.4195,-466.727,0,0
356492,81.0803,-466.238,0,0
356753,80.7508,-465.759,0,0
357013,80.4232,-465.305,0,0
357273,80.0925,-464.68,0,0
357534,79.7517,-464.08,0,0
357794,79.4443,-463.433,0,0
358054,79.161,-462.777,0,0
358315,78.8935,-462.049,0,0
358575,78.6861,-461.297,0,0
358835,78.495,-460.597,0,0
359096,78.3346,-459.875,0,0
359356,78.3225,-459.142,0,0
359616,78.213,-458.445,0,0
359877,78.2506,-457.77,0,0
360137,78.2633,-457.082,0,0
360397,78.2843,-456.421,0,0
360658,78.3415,-455.854,0,0
360918,78.3393,-455.367,0,0
361178,78.3352,-454.755,0,0
361438,78.3222,-454.222,0,0
361699,78.2426,-453.724,0,0
361959,78.1924,-453.052,0,0
362219,78.1798,-452.513,0,0
362480,78.1336,-451.888,0,0
362740.1,78.1636,-451.312,0,0
363000.425,78.1449,-450.648,0,0
363260.75,78.1147,-449.985,0,0
363521.075,78.2382,-449.338,0,0
363781.4,78.3999,-448.689,0,0
364041.725,78.6081,-448.059,0,0
364302.05,78.8535,-447.489,0,0
364562.375,79.1698,-446.951,0,0
364822.7,79.4926,-446.585,0,0
365083.025,79.8015,-446.208,0,0
365343.35,80.1549,-445.978,0,0
365603.675,80.4472,-445.847,0,0
365864.0,80.5913,-445.792,0,0
366124.325,80.7213,-445.763,0,0
366384.65,80.6431,-445.694,0,0
366644.975,80.5858,-445.74,0,0
366905.3,80.4052,-445.674,0,0
367165.625,80.1151,-445.661,0,0
367425.95,79.7862,-445.54,0,0
367686.275,79.3664,-445.413,0,0
367946.6,78.865,-445.152,0,0
368206.925,78.3356,-444.85,0,0
368467.25,77.7857,-444.375,0,0
368727.575,77.2326,-443.768,0,0
368987.9,76.7374,-443.168,0,0
369248.225,76.297,-442.353,0,0
369508.55,75.977,-441.485,0,0
369768.875,75.7214,-440.532,0,0
370029.2,75.6413,-439.585,0,0
370289.525,75.7323,-438.673,0,0
370549.85,75.9209,-437.781,0,0
370810.175,76.2128,-437.014,0,0
371070.5,76.5395,-436.359,0,0
371330.825,76.9635,-435.783,0,0
371591.15,77.3585,-435.358,0,0
371851.475,77.7754,-435.088,0,0
372111.8,78.0981,-434.946,0,0
372372.125,78.2244,-434.894,0,0
372632.45,78.3396,-434.833,0,0
372892.775,78.2879,-434.848,0,0
373153.1,78.1792,-434.831,0,0
373413.425,77.9198,-434.772,0,0
373673.75,77.5944,-434.612,0,0
373934.075,77.1867,-434.392,0,0
374194.4,76.813,-434.121,0,0
374454.725,76.4044,-433.719,0,0
374715.05,75.9988,-433.285,0,0
374975.375,75.6169,-432.81,0,0
375235.7,75.265,-432.272,0,0
375496.025,74.8979,-431.665,0,0
375756.35,74.5273,-431.012,0,0
376016.675,74.279,-430.37,0,0
376277.0,74.036,-429.607,0,0
376537.325,73.8444,-428.84,0,0
376797.65,73.7676,-428.091,0,0
377057.975,73.7096,-427.267,0,0
377318.3,73.6734,-426.52,0,0
377578.625,73.7132,-425.806,0,0
377838.95,73.8126,-425.063,0,0
378099.275,73.9207,-424.386,0,0
378359.6,74.0814,-423.808,0,0
378619.925,74.2325,-423.202,0,0
378880,74.4271,-422.601,0,0
379141,74.638,-422.057,0,0
379401,74.8446,-421.507,0,0
379661,75.0664,-421.11,0,0
379922,75.3249,-420.673,0,0
380182,75.5226,-420.298,0,0
380442,75.7206,-419.989,0,0
380703,75.9056,-419.665,0,0
380963,75.9228,-419.435,0,0
381223,76.0254,-419.151,0,0
381483,76.0938,-418.9,0,0
381744,76.1089,-418.586,0,0
382004,76.1896,-418.347,0,0
382264,76.1635,-417.997,0,0
382525,76.1641,-417.787,0,0
382785,76.1665,-417.59,0,0
383045,76.0874,-417.311,0,0
383306,76.0401,-417.058,0,0
383566,75.9546,-416.82,0,0
383826,75.8053,-416.603,0,0
384087,75.6731,-416.343,0,0
384347,75.4535,-416.056,0,0
384607,75.2941,-415.767,0,0
384868,75.039,-415.497,0,0
385128,74.7998,-415.108,0,0
385388,74.5715,-414.713,0,0
385649,74.2815,-414.348,0,0
385909,74.0701,-413.904,0,0
386169,73.8147,-413.414,0,0
386430,73.575,-412.962,0,0
386690,73.332,-412.438,0,0
386950,73.1146,-411.895,0,0
387211,72.8731,-411.376,0,0
387471,72.6652,-410.81,0,0
387731,72.463,-410.232,0,0
387992,72.2691,-409.678,0,0
388252,72.0683,-409.048,0,0
388512,71.8744,-408.38,0,0
388773,71.6885,-407.728,0,0
389033,71.5428,-407.018,0,0
389293,71.3671,-406.292,0,0
389554,71.3155,-405.489,0,0
389814,71.2403,-404.702,0,0
390074,71.2397,-403.921,0,0
390335,71.2466,-403.156,0,0
390595,71.338,-402.306,0,0
390855,71.4768,-401.489,0,0
391116,71.5948,-400.746,0,0
391376,71.8364,-399.942,0,0
391636,72.0454,-399.145,0,0
391896,72.3612,-398.402,0,0
392157,72.7324,-397.68,0,0
392417,73.0985,-396.954,0,0
392677,73.5268,-396.289,0,0
392938,73.9911,-395.721,0,0
393198,74.4383,-395.147,0,0
393458,74.9167,-394.65,0,0
393719,75.4256,-394.176,0,0
393979,75.9733,-393.799,0,0
394239,76.452,-393.457,0,0
394500,76.9572,-393.181,0,0
394760.05,77.4318,-392.918,0,0
395020.375,77.9009,-392.691,0,0
395280.7,78.3424,-392.506,0,0
395541.025,78.7777,-392.382,0,0
395801.35,79.1873,-392.262,0,0
396061.675,79.5734,-392.205,0,0
396322.0,79.9005,-392.159,0,0
396582.325,80.2382,-392.109,0,0
396842.65,80.5319,-392.122,0,0
397102.975,80.8056,-392.15,0,0
397363.3,81.0364,-392.246,0,0
397623.625,81.2358,-392.3,0,0
397883.95,81.3893,-392.467,0,0
398144.275,81.4901,-392.593,0,0
398404.6,81.5021,-392.749,0,0
398664.925,81.5002,-392.855,0,0
398925.25,81.3812,-392.937,0,0
399185.575,81.3056,-393.042,0,0
399445.9,81.1446,-393.098,0,0
399706.225,80.9392,-393.124,0,0
399966.55,80.7909,-393.144,0,0
400006.6,80.7547,-393.128,0,0