File: Accelerated corrosion test data/2025-10-09_06-00-03/sample_6.csv
Frequency (Hz),Impedance (ohms),Phase (Radians),Temperature (C),Humidity (%)
10000.0,4217.03,-6555.63,0,0
10260.325,4078.59,-6478.83,0,0
10520.65,3947.68,-6402.01,0,0
10780.975,3822.01,-6326.04,0,0
11041.3,3702.58,-6249.53,0,0
11301.625,3588.41,-6174.46,0,0
11561.95,3479.01,-6100.15,0,0
11822.275,3374.77,-6027.08,0,0
12082.6,3274.09,-5953.87,0,0
12342.925,3177.92,-5881.55,0,0
12603.25,3088.19,-5810.21,0,0
12863.575,3001.37,-5739.79,0,0
13123.9,2919.1,-5672.55,0,0
13384.225,2837.56,-5607.31,0,0
13644.55,2758.72,-5541.6,0,0
13904.875,2683.6,-5475.53,0,0
14165.2,2612.02,-5411.31,0,0
14425.525,2542.5,-5347.86,0,0
14685.8,2475.98,-5285.23,0,0
14946.175,2414.78,-5223.87,0,0
15206.5,2352.39,-5163.85,0,0
15466.825,2294.23,-5104.4,0,0
15727.15,2237.6,-5047.08,0,0
15987.5,2183.2,-4989.8,0,0
16247.8,2130.53,-4933.78,0,0
16508.125,2079.73,-4878.74,0,0
16768.45,2030.72,-4824.28,0,0
17028.775,1984.95,-4771.83,0,0
17289.1,1939.34,-4719.79,0,0
17549.425,1894.31,-4668.63,0,0
17809.75,1852.21,-4618.77,0,0
18070.075,1810.8,-4569.03,0,0
18330.4,1771.24,-4519.25,0,0
18590.725,1732.7,-4470.86,0,0
18851.05,1697.06,-4425.08,0,0
19111.375,1662.61,-4379.27,0,0
19371.7,1627.37,-4335.15,0,0
19632.025,1594.12,-4290.77,0,0
19892.35,1560.63,-4247.61,0,0
20152.675,1529.64,-4204.71,0,0
20413.0,1498.85,-4163.03,0,0
20673.3,1468.81,-4121.31,0,0
20933.65,1439.43,-4080.57,0,0
21193.975,1412.13,-4040.63,0,0
21454.3,1384.84,-4001.23,0,0
21714.625,1358.86,-3962.04,0,0
21974.9,1333.26,-3924.52,0,0
22235.275,1308.08,-3886.25,0,0
22495.6,1283.79,-3849.35,0,0
22755.925,1261.82,-3810.74,0,0
23016.25,1242.75,-3775.67,0,0
23276.6,1223.07,-3743.94,0,0
23536.9,1201.35,-3711.58,0,0
23797.225,1178.48,-3679.39,0,0
24057.55,1157.66,-3646.49,0,0
24317.875,1137.32,-3614.11,0,0
24578.2,1117.68,-3582.36,0,0
24838.525,1098.59,-3550.55,0,0
25098.85,1080.26,-3519.19,0,0
25359.175,1062.31,-3488.61,0,0
25619.5,1045.01,-3458.55,0,0
25879.8,1027.48,-3429,0,0
26140.1,1011.05,-3399.65,0,0
26400.5,994.988,-3370.6,0,0
26660.8,979.511,-3342.08,0,0
26921.1,964.282,-3314.12,0,0
27181.4,949.963,-3286.05,0,0
27441.8,935.647,-3259.44,0,0
27702.1,921.999,-3232.81,0,0
27962.4,908.229,-3206.58,0,0
28222.7,894.932,-3181.21,0,0
28483.1,880.95,-3155.72,0,0
28743.4,867.994,-3130.66,0,0
29003.7,854.747,-3105.27,0,0
29264,842.446,-3080.03,0,0
29524.4,831.251,-3054.73,0,0
29784.7,820.693,-3030.9,0,0
30045,810.168,-3008.24,0,0
30305.3,798.663,-2985.58,0,0
30565.7,788.034,-2962.95,0,0
30826,777.225,-2940.31,0,0
31086.3,767.076,-2918.03,0,0
31346.6,756.747,-2896.06,0,0
31607,746.672,-2873.94,0,0
31867.3,737.519,-2852.22,0,0
32127.6,728.394,-2830.06,0,0
32387.9,720.544,-2808.74,0,0
32648.3,713.631,-2788.17,0,0
32908.6,706.037,-2769.21,0,0
33168.9,698.474,-2750.43,0,0
33429.2,690.861,-2731.76,0,0
33689.6,683.726,-2713.77,0,0
33949.9,675.744,-2697.21,0,0
34210.2,666.887,-2680.01,0,0
34470.5,657.816,-2661.73,0,0
34730.9,650.155,-2643.61,0,0
34991.2,642.508,-2625.79,0,0
35251.5,635.515,-2608.61,0,0
35511.8,628.393,-2592.11,0,0
35772.2,620.693,-2576.79,0,0
36032.5,611.659,-2560.31,0,0
36292.8,603.92,-2542.89,0,0
36553.1,596.031,-2525.92,0,0
36813.5,589.229,-2509.11,0,0
37073.8,582.206,-2492.95,0,0
37334.1,575.401,-2476.25,0,0
37594.4,568.452,-2460.16,0,0
37854.8,561.816,-2443.8,0,0
38115.1,555.61,-2427.83,0,0
38375.4,549.485,-2411.93,0,0
38635.7,543.276,-2396.28,0,0
38896.1,537.446,-2379.95,0,0
39156.4,532.248,-2364.11,0,0
39416.7,527.596,-2349,0,0
39677,522.581,-2333.96,0,0
39937.4,518.006,-2319.34,0,0
40197.7,513.89,-2304.8,0,0
40458,509.137,-2291.19,0,0
40718.3,504.87,-2277.09,0,0
40978.7,500.364,-2263.85,0,0
41239,495.623,-2250.48,0,0
41499.3,491.09,-2236.81,0,0
41759.6,487.47,-2223.77,0,0
42020,483.457,-2211.3,0,0
42280.275,478.69,-2199.63,0,0
42540.6,473.242,-2187.57,0,0
42800.925,467.544,-2174.2,0,0
43061.25,463.321,-2160.37,0,0
43321.575,459.243,-2146.57,0,0
43581.9,455.722,-2133.68,0,0
43842.225,452.201,-2120.92,0,0
44102.55,449.333,-2108.42,0,0
44362.875,446.541,-2096,0,0
44623.2,443.78,-2083.92,0,0
44883.525,440.918,-2072.07,0,0
45143.85,438.88,-2060.36,0,0
45404.175,436.621,-2049.32,0,0
45664.5,434.435,-2038.76,0,0
45924.825,432.25,-2028.07,0,0
46185.15,430.375,-2018.08,0,0
46445.475,428.024,-2008.35,0,0
46705.8,425.751,-1998.91,0,0
46966.125,423.111,-1989.81,0,0
47226.45,420.299,-1980.48,0,0
47486.775,417.768,-1971.74,0,0
47747.1,414.778,-1962.59,0,0
48007.425,412.208,-1954.16,0,0
48267.75,408.868,-1945.78,0,0
48528.075,405.762,-1937.39,0,0
48788.4,402.51,-1929.15,0,0
49048.725,399.357,-1921.19,0,0
49309.05,395.894,-1913.65,0,0
49569.375,391.703,-1906.09,0,0
49829.7,387.026,-1898.07,0,0
50090.025,382.405,-1889.71,0,0
50350.35,377.907,-1881.29,0,0
50610.675,372.912,-1872.73,0,0
50871.0,368.343,-1863.46,0,0
51131.325,364.121,-1853.68,0,0
51391.65,360.459,-1844.38,0,0
51651.975,356.785,-1835.56,0,0
51912.3,352.83,-1826.44,0,0
52172.625,349.267,-1817.13,0,0
52432.95,345.991,-1807.74,0,0
52693.275,343.096,-1798.86,0,0
52953.6,340.076,-1790.24,0,0
53213.925,337.125,-1781.89,0,0
53474.25,333.725,-1773.9,0,0
53734.575,329.854,-1765.56,0,0
53994.9,326.186,-1756.5,0,0
54255.225,323.107,-1747.61,0,0
54515.55,320.15,-1738.91,0,0
54775.875,317.211,-1730.22,0,0
55036.2,314.2,-1721.86,0,0
55296.525,311.051,-1713.47,0,0
55556.85,307.874,-1704.78,0,0
55817.175,304.692,-1695.91,0,0
56077.5,301.745,-1686.82,0,0
56337.825,299.183,-1677.45,0,0
56598.15,297.272,-1668.06,0,0
56858.475,295.757,-1659.22,0,0
57118.8,294.185,-1650.56,0,0
57379.125,293.255,-1642.1,0,0
57639.45,292.244,-1634.39,0,0
57899.775,290.954,-1626.99,0,0
58160.1,289.451,-1619.81,0,0
58420.4,287.903,-1612.78,0,0
58680.7,285.924,-1605.65,0,0
58941.1,284.247,-1598.35,0,0
59201.4,282.564,-1591.32,0,0
59461.7,280.689,-1584.4,0,0
59722,278.798,-1577.42,0,0
59982.4,276.732,-1570.29,0,0
60242.7,274.792,-1563.25,0,0
60503,272.797,-1556.17,0,0
60763.3,270.887,-1548.88,0,0
61023.7,269.334,-1541.63,0,0
61284,267.783,-1534.46,0,0
61544.3,266.29,-1527.59,0,0
61804.6,264.622,-1520.79,0,0
62065,263.052,-1513.86,0,0
62325.3,261.114,-1506.8,0,0
62585.6,259.642,-1499.03,0,0
62845.9,258.906,-1491.39,0,0
63106.3,258.821,-1484.15,0,0
63366.6,259.238,-1477.74,0,0
63626.9,258.999,-1472.23,0,0
63887.2,258.636,-1467.04,0,0
64147.6,258.011,-1462.34,0,0
64407.9,256.099,-1457.72,0,0
64668.2,254.182,-1452.49,0,0
64928.5,251.934,-1446.98,0,0
65188.9,250.087,-1441.07,0,0
65449.2,248.211,-1435.35,0,0
65709.5,246.488,-1429.5,0,0
65969.8,244.683,-1423.99,0,0
66230.2,242.487,-1418.4,0,0
66490.5,240.224,-1412.44,0,0
66750.8,237.813,-1405.91,0,0
67011.1,235.993,-1399.84,0,0
67271.5,234.019,-1393.07,0,0
67531.8,232.439,-1386.27,0,0
67792.1,230.986,-1379.7,0,0
68052.4,230.133,-1372.84,0,0
68312.8,229.239,-1366.37,0,0
68573.1,228.368,-1359.85,0,0
68833.4,228.224,-1353.66,0,0
69093.7,227.515,-1347.68,0,0
69354.1,226.987,-1341.6,0,0
69614.4,226.767,-1335.66,0,0
69874.7,226.688,-1329.87,0,0
70135,226.418,-1324.28,0,0
70395.4,226.282,-1318.83,0,0
70655.7,226.266,-1313.47,0,0
70916,226.322,-1308.47,0,0
71176.3,226.296,-1303.69,0,0
71436.7,226.284,-1299.02,0,0
71697,226.097,-1294.62,0,0
71957.3,225.551,-1290.35,0,0
72217.6,224.905,-1286.01,0,0
72478,224.144,-1281.63,0,0
72738.3,223.393,-1277.35,0,0
72998.6,222.412,-1273.02,0,0
73258.9,221.431,-1268.68,0,0
73519.3,220.227,-1264.21,0,0
73779.6,219.2,-1259.78,0,0
74039.9,218.043,-1255.1,0,0
74300.225,216.984,-1250.27,0,0
74560.55,216.179,-1245.62,0,0
74820.875,215.54,-1240.87,0,0
75081.2,214.802,-1236.5,0,0
75341.525,214.029,-1232.1,0,0
75601.85,213.275,-1227.73,0,0
75862.175,212.433,-1223.39,0,0
76122.5,211.61,-1218.99,0,0
76382.825,210.713,-1214.6,0,0
76643.15,209.919,-1210.27,0,0
76903.475,209.131,-1205.95,0,0
77163.8,208.156,-1201.6,0,0
77424.125,207.405,-1197.34,0,0
77684.45,206.57,-1193.02,0,0
77944.775,205.745,-1188.75,0,0
78205.1,204.868,-1184.41,0,0
78465.425,204.081,-1180.12,0,0
78725.75,203.279,-1175.79,0,0
78986.075,202.52,-1171.45,0,0
79246.4,201.785,-1167.19,0,0
79506.725,201.062,-1162.9,0,0
79767.05,200.449,-1158.65,0,0
80027.375,199.679,-1154.46,0,0
80287.7,199.153,-1150.24,0,0
80548.025,198.53,-1146.08,0,0
80808.35,197.954,-1141.9,0,0
81068.675,197.432,-1137.76,0,0
81329.0,196.982,-1133.7,0,0
81589.325,196.449,-1129.58,0,0
81849.65,195.996,-1125.6,0,0
82109.975,195.579,-1121.72,0,0
82370.3,195.147,-1117.9,0,0
82630.625,194.642,-1114.02,0,0
82890.95,194.115,-1110.18,0,0
83151.275,193.572,-1106.44,0,0
83411.6,193.088,-1102.58,0,0
83671.925,192.511,-1098.7,0,0
83932.25,191.968,-1094.96,0,0
84192.575,191.662,-1091.16,0,0
84452.9,191.288,-1087.36,0,0
84713.225,191.012,-1083.67,0,0
84973.55,190.681,-1080.19,0,0
85233.875,190.315,-1076.62,0,0
85494.2,189.988,-1073.42,0,0
85754.525,189.237,-1070,0,0
86014.85,188.632,-1066.63,0,0
86275.175,187.874,-1063.14,0,0
86535.5,187.105,-1059.47,0,0
86795.825,186.273,-1055.85,0,0
87056.15,185.741,-1051.95,0,0
87316.475,185.255,-1048.2,0,0
87576.8,184.595,-1044.24,0,0
87837.125,184.403,-1040.42,0,0
88097.45,184.057,-1036.59,0,0
88357.775,184.069,-1032.65,0,0
88618.1,184.101,-1029,0,0
88878.425,184.335,-1025.37,0,0
89138.75,184.593,-1021.86,0,0
89399.075,184.866,-1018.57,0,0
89659.4,185.205,-1015.28,0,0
89919.725,185.739,-1012.65,0,0
90180,185.876,-1010.03,0,0
90440.4,185.673,-1007.35,0,0
90700.7,185.771,-1004.87,0,0
90961,185.854,-1002.5,0,0
91221.3,185.366,-1000.08,0,0
91481.7,184.768,-998.001,0,0
91742,183.787,-995.751,0,0
92002.3,182.726,-993.103,0,0
92262.6,181.841,-990.339,0,0
92523,180.901,-987.503,0,0
92783.3,179.918,-984.415,0,0
93043.6,179.035,-981.505,0,0
93303.9,178.221,-978.418,0,0
93564.3,177.358,-975.23,0,0
93824.6,176.498,-971.828,0,0
94084.9,175.961,-968.279,0,0
94345.2,175.692,-964.908,0,0
94605.6,175.59,-961.634,0,0
94865.9,175.547,-958.655,0,0
95126.2,175.537,-955.732,0,0
95386.5,175.426,-953.021,0,0
95646.9,175.347,-950.495,0,0
95907.2,175.042,-948.017,0,0
96167.5,174.759,-945.664,0,0
96427.8,174.148,-943.421,0,0
96688.2,173.66,-941.083,0,0
96948.5,172.848,-938.866,0,0
97208.8,171.717,-936.545,0,0
97469.1,170.356,-933.889,0,0
97729.5,169.211,-930.895,0,0
97989.8,168.119,-927.753,0,0
98250.1,167.275,-924.44,0,0
98510.4,166.605,-921.162,0,0
98770.8,166.166,-917.898,0,0
99031.1,165.856,-914.701,0,0
99291.4,165.732,-911.67,0,0
99551.7,165.568,-908.828,0,0
99812.1,165.347,-906.073,0,0
100072,165.196,-903.303,0,0
100333,165.131,-900.772,0,0
100593,164.99,-898.367,0,0
100853,164.802,-896.123,0,0
101114,164.333,-894.21,0,0
101374,163.513,-892.073,0,0
101634,162.584,-889.703,0,0
101895,161.693,-887.169,0,0
102155,161.003,-884.486,0,0
102415,160.498,-882.068,0,0
102676,159.787,-879.807,0,0
102936,158.996,-877.418,0,0
103196,158.265,-875.158,0,0
103457,157.293,-872.993,0,0
103717,156.213,-870.747,0,0
103977,155.133,-868.543,0,0
104238,153.773,-866.33,0,0
104498,152.222,-864.007,0,0
104758,150.415,-861.577,0,0
105019,148.41,-858.816,0,0
105279,146.494,-855.661,0,0
105539,144.669,-852.331,0,0
105800,142.739,-848.803,0,0
106060,140.993,-844.84,0,0
106320.175,139.423,-840.668,0,0
106580.5,138.146,-836.265,0,0
106840.825,137.323,-831.712,0,0
107101.15,136.869,-827.323,0,0
107361.475,136.605,-822.985,0,0
107621.8,136.504,-818.693,0,0
107882.125,136.497,-814.606,0,0
108142.45,136.672,-810.441,0,0
108402.775,137.104,-806.549,0,0
108663.1,137.58,-802.822,0,0
108923.425,137.916,-799.26,0,0
109183.75,138.233,-795.765,0,0
109444.075,138.44,-792.09,0,0
109704.4,139.079,-788.277,0,0
109964.725,139.617,-784.578,0,0
110225.05,140.445,-781.232,0,0
110485.375,141.18,-777.874,0,0
110745.7,141.879,-774.433,0,0
111006.025,142.587,-770.943,0,0
111266.35,143.77,-767.709,0,0
111526.675,144.904,-764.039,0,0
111787.0,146.58,-761.01,0,0
112047.325,148.227,-758.312,0,0
112307.65,149.671,-755.953,0,0
112567.975,150.971,-753.547,0,0
112828.3,152.112,-751.463,0,0
113088.625,153.26,-749.352,0,0
113348.95,154.162,-747.231,0,0
113609.275,155.169,-745.078,0,0
113869.6,156.262,-742.876,0,0
114129.925,157.232,-740.937,0,0
114390.25,158.041,-738.921,0,0
114650.575,158.959,-736.664,0,0
114910.9,160.346,-734.642,0,0
115171.225,161.577,-733.024,0,0
115431.55,162.595,-731.322,0,0
115691.875,163.791,-729.53,0,0
115952.2,165.281,-727.731,0,0
116212.525,167.193,-726.596,0,0
116472.85,169.016,-726.199,0,0
116733.175,170.274,-726.517,0,0
116993.5,170.795,-727.141,0,0
117253.825,170.398,-727.755,0,0
117514.15,169.482,-727.822,0,0
117774.475,168.097,-727.705,0,0
118034.8,166.355,-727.037,0,0
118295.125,164.523,-725.632,0,0
118555.45,162.995,-723.816,0,0
118815.775,161.561,-721.711,0,0
119076.1,160.395,-719.263,0,0
119336.425,159.545,-716.764,0,0
119596.75,158.798,-714.258,0,0
119857.075,158.252,-711.417,0,0
120117.4,158.205,-708.401,0,0
120377.725,158.918,-705.619,0,0
120638.05,159.908,-703.516,0,0
120898.375,160.917,-702.021,0,0
121158.7,161.619,-701.13,0,0
121419.025,161.816,-700.534,0,0
121679.35,161.39,-700.093,0,0
121939.675,160.351,-699.457,0,0
122200.0,158.929,-698.25,0,0
122460,157.46,-696.428,0,0
122721,156.456,-694.307,0,0
122981,155.645,-692.17,0,0
123241,154.955,-690.008,0,0
123502,154.443,-687.832,0,0
123762,154.066,-685.844,0,0
124022,153.514,-684.003,0,0
124283,152.874,-682.116,0,0
124543,152.318,-680.141,0,0
124803,151.728,-678.26,0,0
125064,150.955,-676.418,0,0
125324,150.131,-674.385,0,0
125584,149.376,-672.29,0,0
125845,148.601,-670.08,0,0
126105,147.839,-667.855,0,0
126365,147.084,-665.699,0,0
126626,146.176,-663.391,0,0
126886,145.328,-660.912,0,0
127146,144.506,-658.274,0,0
127406,143.756,-655.509,0,0
127667,143.294,-652.624,0,0
127927,142.873,-649.886,0,0
128187,142.631,-646.931,0,0
128448,142.531,-643.856,0,0
128708,142.779,-641.038,0,0
128968,143.167,-638.365,0,0
129229,143.598,-635.914,0,0
129489,144.023,-633.642,0,0
129749,144.331,-631.588,0,0
130010,144.551,-629.693,0,0
130270,144.643,-627.787,0,0
130530,144.596,-625.852,0,0
130791,144.436,-623.912,0,0
131051,144.276,-621.915,0,0
131311,144.053,-619.899,0,0
131572,143.772,-617.824,0,0
131832,143.5,-615.753,0,0
132092,143.218,-613.583,0,0
132353,142.934,-611.361,0,0
132613,142.695,-609.06,0,0
132873,142.537,-606.88,0,0
133134,142.324,-604.655,0,0
133394,142.018,-602.487,0,0
133654,141.716,-600.227,0,0
133915,141.327,-597.894,0,0
134175,141.004,-595.454,0,0
134435,140.736,-593.018,0,0
134696,140.489,-590.546,0,0
134956,140.26,-588.092,0,0
135216,139.899,-585.517,0,0
135477,139.737,-582.832,0,0
135737,139.61,-580.105,0,0
135997,139.575,-577.307,0,0
136258,139.627,-574.551,0,0
136518,139.718,-571.777,0,0
136778,139.947,-568.959,0,0
137039,140.181,-566.28,0,0
137299,140.458,-563.563,0,0
137559,140.857,-560.865,0,0
137819,141.262,-558.252,0,0
138080,141.717,-555.684,0,0
138340.125,142.092,-553.108,0,0
138600.45,142.528,-550.484,0,0
138860.775,143.033,-547.911,0,0
139121.1,143.519,-545.319,0,0
139381.425,144.13,-542.812,0,0
139641.75,144.717,-540.258,0,0
139902.075,145.293,-537.695,0,0
140162.4,145.869,-535.121,0,0
140422.725,146.653,-532.565,0,0
140683.05,147.538,-529.927,0,0
140943.375,148.463,-527.421,0,0
141203.7,149.642,-525.103,0,0
141464.025,150.712,-522.849,0,0
141724.35,151.868,-520.807,0,0
141984.675,152.815,-518.875,0,0
142245.0,153.817,-517.046,0,0
142505.325,154.639,-515.389,0,0
142765.65,155.412,-513.626,0,0
143025.975,156.067,-511.886,0,0
143286.3,156.721,-509.862,0,0
143546.625,157.304,-508.116,0,0
143806.95,157.949,-506.185,0,0
144067.275,158.591,-504.33,0,0
144327.6,159.215,-502.361,0,0
144587.925,159.858,-500.46,0,0
144848.25,160.591,-498.529,0,0
145108.575,161.46,-496.666,0,0
145368.9,162.246,-495.083,0,0
145629.225,163.028,-493.543,0,0
145889.55,163.551,-492.094,0,0
146149.875,164.032,-490.467,0,0
146410.2,164.495,-488.864,0,0
146670.525,164.947,-487.358,0,0
146930.85,165.403,-485.806,0,0
147191.175,165.696,-484.323,0,0
147451.5,165.819,-482.961,0,0
147711.825,165.677,-481.408,0,0
147972.15,165.489,-479.719,0,0
148232.475,165.257,-477.847,0,0
148492.8,165.073,-475.821,0,0
148753.125,164.839,-473.688,0,0
149013.45,164.682,-471.378,0,0
149273.775,164.604,-469.105,0,0
149534.1,164.462,-466.639,0,0
149794.425,164.439,-464.036,0,0
150054.75,164.432,-461.378,0,0
150315.075,164.499,-458.523,0,0
150575.4,164.764,-455.67,0,0
150835.725,165.153,-452.741,0,0
151096.05,165.485,-449.617,0,0
151356.375,166.14,-446.406,0,0
151616.7,167.004,-443.16,0,0
151877.025,168.092,-439.718,0,0
152137.35,169.643,-436.404,0,0
152397.675,171.578,-433.401,0,0
152658.0,173.622,-430.684,0,0
152918.325,175.783,-428.243,0,0
153178.65,178.126,-426.25,0,0
153438.975,180.248,-424.795,0,0
153699.3,182.051,-423.473,0,0
153959.625,183.559,-422.458,0,0
154219.95,184.589,-421.378,0,0
154480,185.363,-420.155,0,0
154741,185.838,-418.626,0,0
155001,186.221,-416.68,0,0
155261,186.922,-414.238,0,0
155522,188.045,-411.917,0,0
155782,189.337,-409.56,0,0
156042,190.851,-407.274,0,0
156303,192.771,-405.088,0,0
156563,194.825,-403.397,0,0
156823,196.905,-402.12,0,0
157084,198.821,-401.268,0,0
157344,200.401,-400.699,0,0
157604,201.52,-400.276,0,0
157864,202.204,-399.795,0,0
158125,202.64,-399.175,0,0
158385,202.893,-398.229,0,0
158645,203.059,-397.151,0,0
158906,203.032,-396.019,0,0
159166,203.022,-394.451,0,0
159426,203.129,-392.742,0,0
159687,203.328,-391.066,0,0
159947,203.484,-389.262,0,0
160207,203.704,-387.36,0,0
160468,203.977,-385.46,0,0
160728,204.358,-383.415,0,0
160988,204.696,-381.492,0,0
161249,205.065,-379.559,0,0
161509,205.486,-377.604,0,0
161769,205.742,-375.697,0,0
162030,205.915,-373.69,0,0
162290,206.027,-371.494,0,0
162550,206.216,-369.178,0,0
162811,206.457,-366.707,0,0
163071,206.782,-364.131,0,0
163331,207.219,-361.551,0,0
163592,207.807,-359.024,0,0
163852,208.347,-356.515,0,0
164112,208.855,-353.981,0,0
164373,209.314,-351.369,0,0
164633,209.826,-348.645,0,0
164893,210.315,-345.787,0,0
165154,210.876,-342.886,0,0
165414,211.604,-339.715,0,0
165674,212.498,-336.509,0,0
165935,213.595,-333.349,0,0
166195,214.84,-330.19,0,0
166455,216.242,-327.174,0,0
166716,217.661,-324.371,0,0
166976,218.996,-321.629,0,0
167236,220.266,-318.814,0,0
167497,221.455,-315.937,0,0
167757,222.721,-312.917,0,0
168017,224.056,-309.814,0,0
168277,225.626,-306.709,0,0
168538,227.285,-303.652,0,0
168798,228.999,-300.657,0,0
169058,230.796,-297.698,0,0
169319,232.586,-294.903,0,0
169579,234.333,-292.047,0,0
169839,236.068,-289.262,0,0
170100,237.76,-286.356,0,0
170360.075,239.571,-283.503,0,0
170620.4,241.341,-280.607,0,0
170880.725,243.194,-277.704,0,0
171141.05,245.024,-274.742,0,0
171401.375,246.926,-271.859,0,0
171661.7,248.763,-268.907,0,0
171922.025,250.614,-265.899,0,0
172182.35,252.56,-262.787,0,0
172442.675,254.607,-259.694,0,0
172703.0,256.65,-256.638,0,0
172963.325,258.748,-253.62,0,0
173223.65,260.822,-250.527,0,0
173483.975,262.88,-247.457,0,0
173744.3,264.948,-244.24,0,0
174004.625,267.033,-241.001,0,0
174264.95,269.145,-237.701,0,0
174525.275,271.209,-234.275,0,0
174785.6,273.34,-230.662,0,0
175045.925,275.618,-226.946,0,0
175306.25,277.987,-223.167,0,0
175566.575,280.484,-219.271,0,0
175826.9,283.093,-215.291,0,0
176087.225,285.848,-211.187,0,0
176347.55,288.752,-206.97,0,0
176607.875,291.85,-202.713,0,0
176868.2,295.138,-198.336,0,0
177128.525,298.598,-193.996,0,0
177388.85,302.204,-189.578,0,0
177649.175,306.091,-185.072,0,0
177909.5,310.194,-180.547,0,0
178169.825,314.557,-176.017,0,0
178430.15,319.155,-171.435,0,0
178690.475,324.042,-166.908,0,0
178950.8,329.286,-162.377,0,0
179211.125,334.943,-157.98,0,0
179471.45,340.97,-153.834,0,0
179731.775,347.259,-150.009,0,0
179992.1,353.708,-146.549,0,0
180252.425,360.263,-143.454,0,0
180512.75,366.661,-140.718,0,0
180773.075,373.066,-138.089,0,0
181033.4,379.491,-135.615,0,0
181293.725,385.821,-133.314,0,0
181554.05,392.062,-131.017,0,0
181814.375,398.435,-128.751,0,0
182074.7,404.952,-126.5,0,0
182335.025,411.663,-124.374,0,0
182595.35,418.519,-122.602,0,0
182855.675,425.338,-121.168,0,0
183116.0,431.949,-119.89,0,0
183376.325,438.506,-118.772,0,0
183636.65,444.841,-117.746,0,0
183896.975,451.012,-116.745,0,0
184157.3,457.021,-115.631,0,0
184417.625,462.888,-114.492,0,0
184677.95,468.798,-113.148,0,0
184938.275,474.561,-111.71,0,0
185198.6,480.372,-110.024,0,0
185458.925,486.119,-108.047,0,0
185719.25,492.119,-105.796,0,0
185979.575,498.353,-103.411,0,0
186239.9,504.787,-100.806,0,0
186500,511.455,-97.9598,0,0
186761,518.539,-94.9013,0,0
187021,525.941,-91.8681,0,0
187281,533.615,-88.5415,0,0
187542,541.804,-84.8974,0,0
187802,550.682,-81.2222,0,0
188062,560.125,-77.3927,0,0
188322,570.234,-73.383,0,0
188583,581.338,-69.5425,0,0
188843,593.574,-65.9337,0,0
189103,606.511,-62.9592,0,0
189364,620.222,-60.4692,0,0
189624,634.748,-58.6025,0,0
189884,650.082,-57.3689,0,0
190145,666.377,-57.0934,0,0
190405,683.393,-58.1761,0,0
190665,700.816,-60.7229,0,0
190926,718.237,-64.7471,0,0
191186,735.477,-70.0912,0,0
191446,752.386,-76.7645,0,0
191707,768.651,-84.7251,0,0
191967,784.031,-93.5684,0,0
192227,798.677,-102.977,0,0
192488,812.66,-112.844,0,0
192748,826.001,-123.019,0,0
193008,838.961,-133.524,0,0
193269,851.51,-144.332,0,0
193529,863.746,-155.441,0,0
193789,875.823,-166.955,0,0
194050,887.623,-179.027,0,0
194310,898.941,-191.634,0,0
194570,909.807,-204.657,0,0
194831,920.257,-217.971,0,0
195091,930.448,-231.952,0,0
195351,940.142,-245.924,0,0
195612,949.335,-260.593,0,0
195872,957.893,-275.716,0,0
196132,966.059,-291.023,0,0
196393,973.746,-306.658,0,0
196653,980.858,-322.671,0,0
196913,987.406,-338.933,0,0
197174,993.461,-355.495,0,0
197434,998.975,-372.513,0,0
197694,1003.64,-389.562,0,0
197955,1007.75,-406.853,0,0
198215,1011.21,-424.149,0,0
198475,1014.16,-441.688,0,0
198735,1016.52,-459.163,0,0
198996,1018.43,-476.691,0,0
199256,1019.97,-494.505,0,0
199516,1021.03,-512.579,0,0
199777,1021.47,-530.97,0,0
200037,1020.86,-549.359,0,0
200297,1019.65,-568.049,0,0
200558,1017.93,-586.62,0,0
200818,1015.06,-605.635,0,0
201078,1011.5,-624.487,0,0
201339,1006.89,-643.067,0,0
201599,1001.16,-661.475,0,0
201859,994.755,-679.351,0,0
202120,987.144,-697.015,0,0
202380.025,979.213,-714.187,0,0
202640.35,970.213,-731.055,0,0
202900.675,960.875,-746.67,0,0
203161.0,950.877,-761.86,0,0
203421.325,940.47,-776.486,0,0
203681.65,929.752,-790.392,0,0
203941.975,918.333,-803.623,0,0
204202.3,907.135,-816.628,0,0
204462.625,895.702,-828.799,0,0
204722.95,883.296,-840.631,0,0
204983.275,871.287,-851.677,0,0
205243.6,858.577,-862.075,0,0
205503.925,845.737,-872.474,0,0
205764.25,832.857,-881.55,0,0
206024.575,819.957,-890.626,0,0
206284.9,806.693,-898.811,0,0
206545.225,793.482,-906.534,0,0
206805.55,780.349,-913.646,0,0
207065.875,767.126,-920.369,0,0
207326.2,753.765,-926.453,0,0
207586.525,740.613,-932.274,0,0
207846.85,727.362,-937.557,0,0
208107.175,714.247,-942.391,0,0
208367.5,700.993,-946.738,0,0
208627.825,687.942,-950.564,0,0
208888.15,674.837,-954.072,0,0
209148.475,661.829,-957.392,0,0
209408.8,648.874,-959.719,0,0
209669.125,636.03,-962.211,0,0
209929.45,623.401,-964.231,0,0
210189.775,610.879,-965.962,0,0
210450.1,598.361,-967.149,0,0
210710.425,585.52,-967.916,0,0
210970.75,573.013,-968.328,0,0
211231.075,560.333,-968.522,0,0
211491.4,547.845,-967.932,0,0
211751.725,535.476,-966.947,0,0
212012.05,523.465,-965.174,0,0
212272.375,511.86,-962.916,0,0
212532.7,500.725,-960.588,0,0
212793.025,490.031,-957.224,0,0
213053.35,479.856,-953.993,0,0
213313.675,470.229,-950.764,0,0
213574.0,460.87,-947.57,0,0
213834.325,452.136,-944.238,0,0
214094.65,442.974,-941.002,0,0
214354.975,434.547,-937.708,0,0
214615.3,426.296,-934.268,0,0
214875.625,418.034,-930.434,0,0
215135.95,410.466,-926.997,0,0
215396.275,402.589,-923.26,0,0
215656.6,395.171,-919.242,0,0
215916.925,387.708,-915.335,0,0
216177.25,380.669,-911.494,0,0
216437.575,373.757,-907.464,0,0
216697.9,367.134,-903.575,0,0
216958.225,360.725,-899.533,0,0
217218.55,354.367,-895.501,0,0
217478.875,348.113,-891.436,0,0
217739.2,342.039,-887.242,0,0
217999.525,335.991,-883.011,0,0
218259.85,330.265,-878.806,0,0
218520,324.551,-874.465,0,0
218780,319.179,-870.067,0,0
219041,313.923,-865.634,0,0
219301,308.468,-861.165,0,0
219561,303.549,-856.575,0,0
219822,298.923,-852.042,0,0
220082,294.168,-847.482,0,0
220342,289.709,-842.67,0,0
220603,285.265,-837.978,0,0
220863,280.842,-833.219,0,0
221123,276.839,-828.535,0,0
221384,272.971,-823.581,0,0
221644,269.26,-818.714,0,0
221904,265.558,-813.861,0,0
222165,262.145,-808.92,0,0
222425,258.892,-803.955,0,0
222685,255.812,-798.801,0,0
222946,252.878,-793.696,0,0
223206,250.321,-788.612,0,0
223466,247.791,-783.507,0,0
223727,245.63,-778.237,0,0
223987,243.856,-773.179,0,0
224247,242.209,-767.99,0,0
224508,240.756,-763.034,0,0
224768,239.811,-758.12,0,0
225028,239.014,-753.158,0,0
225289,238.446,-748.676,0,0
225549,238.158,-744.404,0,0
225809,238.349,-740.271,0,0
226070,238.61,-736.645,0,0
226330,239.01,-733.145,0,0
226590,239.199,-730.191,0,0
226851,239.576,-727.351,0,0
227111,239.792,-725.183,0,0
227371,239.87,-723.181,0,0
227632,239.551,-721.415,0,0
227892,239.092,-719.719,0,0
228152,238.389,-718.203,0,0
228413,237.43,-716.657,0,0
228673,236.282,-715.104,0,0
228933,234.939,-713.466,0,0
229193,233.568,-711.752,0,0
229454,231.89,-709.739,0,0
229714,230.225,-707.838,0,0
229974,228.718,-705.594,0,0
230235,227.017,-703.375,0,0
230495,225.477,-701.074,0,0
230755,223.774,-698.524,0,0
231016,222.289,-696.049,0,0
231276,220.885,-693.414,0,0
231536,219.334,-690.845,0,0
231797,218.048,-688.099,0,0
232057,216.777,-685.314,0,0
232317,215.571,-682.476,0,0
232578,214.452,-679.689,0,0
232838,213.427,-676.822,0,0
233098,212.497,-673.918,0,0
233359,211.635,-671.036,0,0
233619,210.832,-668.103,0,0
233879,210.125,-665.183,0,0
234140,209.554,-662.305,0,0
234400,208.972,-659.345,0,0
234660.3,208.443,-656.499,0,0
234920.625,208.072,-653.5,0,0
235180.95,207.738,-650.753,0,0
235441.275,207.583,-647.843,0,0
235701.6,207.356,-645.052,0,0
235961.925,207.249,-642.292,0,0
236222.25,207.27,-639.514,0,0
236482.575,207.279,-636.817,0,0
236742.9,207.365,-634.115,0,0
237003.225,207.514,-631.466,0,0
237263.55,207.726,-628.836,0,0
237523.875,207.946,-626.178,0,0
237784.2,208.261,-623.651,0,0
238044.525,208.622,-621.078,0,0
238304.85,209.095,-618.523,0,0
238565.175,209.588,-616.021,0,0
238825.5,210.113,-613.535,0,0
239085.825,210.706,-611.102,0,0
239346.15,211.393,-608.711,0,0
239606.475,212.153,-606.264,0,0
239866.8,212.94,-603.977,0,0
240127.125,213.904,-601.721,0,0
240387.45,214.879,-599.426,0,0
240647.775,215.851,-597.243,0,0
240908.1,216.942,-595.14,0,0
241168.425,218.019,-593.064,0,0
241428.75,219.193,-591.07,0,0
241689.075,220.419,-589.075,0,0
241949.4,221.66,-587.153,0,0
242209.725,223.022,-585.33,0,0
242470.05,224.374,-583.462,0,0
242730.375,225.81,-581.726,0,0
242990.7,227.282,-580.03,0,0
243251.025,228.854,-578.314,0,0
243511.35,230.475,-576.735,0,0
243771.675,232.218,-575.156,0,0
244032.0,233.984,-573.793,0,0
244292.325,235.894,-572.321,0,0
244552.65,237.876,-571.08,0,0
244812.975,239.953,-569.982,0,0
245073.3,242.087,-568.94,0,0
245333.625,244.011,-568.238,0,0
245593.95,246.103,-567.524,0,0
245854.275,248.344,-567.007,0,0
246114.6,250.261,-566.557,0,0
246374.925,252.242,-566.219,0,0
246635.25,254.279,-565.925,0,0
246895.575,256.348,-565.717,0,0
247155.9,258.306,-565.648,0,0
247416.225,260.32,-565.612,0,0
247676.55,262.302,-565.829,0,0
247936.875,264.298,-566.039,0,0
248197.2,266.18,-566.445,0,0
248457.525,268.012,-566.982,0,0
248717.85,269.726,-567.417,0,0
248978.175,271.421,-567.994,0,0
249238.5,272.931,-568.516,0,0
249498.825,274.36,-568.991,0,0
249759.15,275.91,-569.384,0,0
250019.475,277.685,-569.708,0,0
250279.8,279.371,-570.151,0,0
250540,281.26,-570.415,0,0
250800,283.586,-570.898,0,0
251061,285.954,-571.61,0,0
251321,288.538,-572.559,0,0
251581,291.14,-573.929,0,0
251842,293.907,-575.606,0,0
252102,296.407,-577.683,0,0
252362,298.927,-580.07,0,0
252623,301.158,-582.834,0,0
252883,303.254,-585.818,0,0
253143,305.022,-589.053,0,0
253404,306.642,-592.509,0,0
253664,307.887,-596.138,0,0
253924,308.909,-599.864,0,0
254185,309.577,-603.862,0,0
254445,309.931,-607.899,0,0
254705,309.971,-611.887,0,0
254966,309.678,-616.018,0,0
255226,308.998,-620.197,0,0
255486,308.107,-624.393,0,0
255747,306.7,-628.263,0,0
256007,305.154,-632.184,0,0
256267,303.251,-635.982,0,0
256528,301.058,-639.544,0,0
256788,298.734,-642.898,0,0
257048,296.115,-645.993,0,0
257309,293.391,-648.976,0,0
257569,290.523,-651.677,0,0
257829,287.557,-654.222,0,0
258090,284.538,-656.593,0,0
258350,281.361,-658.719,0,0
258610,278.243,-660.704,0,0
258871,274.996,-662.416,0,0
259131,271.733,-664.054,0,0
259391,268.41,-665.558,0,0
259651,265.232,-666.845,0,0
259912,261.694,-668.086,0,0
260172,258.469,-668.959,0,0
260432,255.091,-669.878,0,0
260693,251.806,-670.455,0,0
260953,248.409,-671.018,0,0
261213,245.092,-671.378,0,0
261474,241.869,-671.601,0,0
261734,238.607,-671.669,0,0
261994,235.404,-671.734,0,0
262255,232.383,-671.472,0,0
262515,229.399,-671.305,0,0
262775,226.542,-670.935,0,0
263036,223.679,-670.546,0,0
263296,220.975,-670.059,0,0
263556,218.24,-669.714,0,0
263817,215.672,-669.198,0,0
264077,213.001,-668.674,0,0
264337,210.584,-668.083,0,0
264598,208.031,-667.388,0,0
264858,205.679,-666.925,0,0
265118,203.228,-666.099,0,0
265379,200.715,-665.408,0,0
265639,198.331,-664.636,0,0
265899,196.026,-663.829,0,0
266160,193.804,-662.973,0,0
266420,191.65,-662.009,0,0
266680.25,189.383,-661.25,0,0
266940.575,187.319,-660.316,0,0
267200.9,185.226,-659.35,0,0
267461.225,183.156,-658.435,0,0
267721.55,181.129,-657.498,0,0
267981.875,179.116,-656.437,0,0
268242.2,177.204,-655.51,0,0
268502.525,175.229,-654.513,0,0
268762.85,173.264,-653.521,0,0
269023.175,171.356,-652.36,0,0
269283.5,169.552,-651.351,0,0
269543.825,167.652,-650.185,0,0
269804.15,165.837,-649.082,0,0
270064.475,164.1,-647.948,0,0
270324.8,162.299,-646.868,0,0
270585.125,160.554,-645.811,0,0
270845.45,158.81,-644.633,0,0
271105.775,157.181,-643.429,0,0
271366.1,155.525,-642.222,0,0
271626.425,153.834,-641.094,0,0
271886.75,152.269,-639.77,0,0
272147.075,150.68,-638.554,0,0
272407.4,149.146,-637.298,0,0
272667.725,147.586,-636.037,0,0
272928.05,146.133,-634.73,0,0
273188.375,144.565,-633.485,0,0
273448.7,143.163,-632.154,0,0
273709.025,141.693,-630.842,0,0
273969.35,140.301,-629.46,0,0
274229.675,139.018,-628.173,0,0
274490.0,137.682,-626.904,0,0
274750.325,136.444,-625.538,0,0
275010.65,135.072,-624.192,0,0
275270.975,133.867,-622.837,0,0
275531.3,132.539,-621.422,0,0
275791.625,131.413,-619.988,0,0
276051.95,130.235,-618.656,0,0
276312.275,129.115,-617.281,0,0
276572.6,127.977,-615.905,0,0
276832.925,126.887,-614.506,0,0
277093.25,125.851,-613.141,0,0
277353.575,124.787,-611.759,0,0
277613.9,123.746,-610.365,0,0
277874.225,122.774,-609,0,0
278134.55,121.807,-607.599,0,0
278394.875,120.856,-606.222,0,0
278655.2,119.929,-604.824,0,0
278915.525,118.979,-603.423,0,0
279175.85,118.195,-601.986,0,0
279436.175,117.272,-600.596,0,0
279696.5,116.419,-599.155,0,0
279956.825,115.668,-597.753,0,0
280217.15,114.915,-596.341,0,0
280477.475,114.253,-594.851,0,0
280737.8,113.584,-593.43,0,0
280998.125,113.066,-592.095,0,0
281258.45,112.539,-590.748,0,0
281518.775,111.998,-589.477,0,0
281779.1,111.474,-588.22,0,0
282039.425,110.97,-587.032,0,0
282299.75,110.419,-585.881,0,0
282560,109.872,-584.712,0,0
282820,109.316,-583.577,0,0
283081,108.746,-582.44,0,0
283341,108.192,-581.284,0,0
283601,107.617,-580.126,0,0
283862,107.069,-578.908,0,0
284122,106.541,-577.721,0,0
284382,105.966,-576.572,0,0
284643,105.517,-575.386,0,0
284903,105.129,-574.19,0,0
285163,104.713,-572.983,0,0
285424,104.322,-571.858,0,0
285684,103.952,-570.727,0,0
285944,103.718,-569.618,0,0
286205,103.371,-568.571,0,0
286465,103.078,-567.649,0,0
286725,102.83,-566.721,0,0
286986,102.486,-565.846,0,0
287246,102.13,-565.01,0,0
287506,101.717,-564.172,0,0
287767,101.32,-563.334,0,0
288027,100.826,-562.498,0,0
288287,100.362,-561.645,0,0
288548,99.8764,-560.802,0,0
288808,99.3627,-559.904,0,0
289068,98.8476,-559.047,0,0
289329,98.3272,-558.145,0,0
289589,97.8587,-557.27,0,0
289849,97.4199,-556.327,0,0
290109,96.8925,-555.325,0,0
290370,96.4662,-554.455,0,0
290630,95.9993,-553.527,0,0
290890,95.5677,-552.591,0,0
291151,95.1339,-551.695,0,0
291411,94.7447,-550.769,0,0
291671,94.3396,-549.876,0,0
291932,93.946,-548.987,0,0
292192,93.5323,-548.107,0,0
292452,93.1464,-547.265,0,0
292713,92.7792,-546.42,0,0
292973,92.3757,-545.609,0,0
293233,91.9665,-544.807,0,0
293494,91.5512,-544.004,0,0
293754,91.1076,-543.235,0,0
294014,90.6573,-542.449,0,0
294275,90.1915,-541.681,0,0
294535,89.6885,-540.925,0,0
294795,89.1631,-540.1,0,0
295056,88.6171,-539.312,0,0
295316,88.0362,-538.54,0,0
295576,87.4519,-537.653,0,0
295837,86.8546,-536.765,0,0
296097,86.2962,-535.808,0,0
296357,85.7171,-534.853,0,0
296618,85.1421,-533.823,0,0
296878,84.6155,-532.817,0,0
297138,84.0814,-531.732,0,0
297399,83.6218,-530.614,0,0
297659,83.1843,-529.469,0,0
297919,82.8139,-528.322,0,0
298180,82.5288,-527.173,0,0
298440,82.2995,-526.044,0,0
298700.2,82.1233,-524.905,0,0
298960.525,82.0197,-523.911,0,0
299220.85,81.9494,-522.915,0,0
299481.175,81.7831,-522.006,0,0
299741.5,81.7554,-521.112,0,0
300001.825,81.6439,-520.279,0,0
300262.15,81.5105,-519.518,0,0
300522.475,81.3559,-518.763,0,0
300782.8,81.1938,-518.045,0,0
301043.125,80.9809,-517.215,0,0
301303.45,80.7574,-516.5,0,0
301563.775,80.5273,-515.767,0,0
301824.1,80.2965,-515,0,0
302084.425,80.0095,-514.267,0,0
302344.75,79.7798,-513.515,0,0
302605.075,79.4922,-512.738,0,0
302865.4,79.2326,-511.982,0,0
303125.725,78.9513,-511.221,0,0
303386.05,78.7199,-510.427,0,0
303646.375,78.4077,-509.618,0,0
303906.7,78.1867,-508.844,0,0
304167.025,77.9593,-507.99,0,0
304427.35,77.6802,-507.269,0,0
304687.675,77.519,-506.464,0,0
304948.0,77.3011,-505.655,0,0
305208.325,77.1264,-504.85,0,0
305468.65,76.983,-504.139,0,0
305728.975,76.865,-503.364,0,0
305989.3,76.7496,-502.633,0,0
306249.625,76.5552,-501.935,0,0
306509.95,76.4575,-501.217,0,0
306770.275,76.2952,-500.627,0,0
307030.6,76.1645,-499.978,0,0
307290.925,75.9386,-499.366,0,0
307551.25,75.663,-498.846,0,0
307811.575,75.468,-498.167,0,0
308071.9,75.2176,-497.599,0,0
308332.225,74.9115,-496.986,0,0
308592.55,74.6941,-496.399,0,0
308852.875,74.3512,-495.734,0,0
309113.2,74.1319,-495.104,0,0
309373.525,73.8186,-494.427,0,0
309633.85,73.5186,-493.727,0,0
309894.175,73.2961,-493.09,0,0
310154.5,72.9592,-492.471,0,0
310414.825,72.6981,-491.811,0,0
310675.15,72.422,-491.098,0,0
310935.475,72.1262,-490.497,0,0
311195.8,71.8727,-489.837,0,0
311456.125,71.5267,-489.256,0,0
311716.45,71.2858,-488.541,0,0
311976.775,71.0161,-487.925,0,0
312237.1,70.6623,-487.221,0,0
312497.425,70.38,-486.634,0,0
312757.75,70.0834,-485.926,0,0
313018.075,69.7448,-485.267,0,0
313278.4,69.4821,-484.602,0,0
313538.725,69.1668,-483.911,0,0
313799.05,68.8325,-483.199,0,0
314059.375,68.5257,-482.533,0,0
314319.7,68.2604,-481.782,0,0
314580,67.9623,-481.037,0,0
314840,67.735,-480.398,0,0
315101,67.4288,-479.685,0,0
315361,67.1108,-478.956,0,0
315621,66.886,-478.216,0,0
315882,66.6485,-477.475,0,0
316142,66.4334,-476.836,0,0
316402,66.1717,-476.095,0,0
316663,65.9105,-475.421,0,0
316923,65.6805,-474.734,0,0
317183,65.5085,-473.994,0,0
317444,65.27,-473.39,0,0
317704,65.0328,-472.685,0,0
317964,64.7502,-471.983,0,0
318225,64.5014,-471.362,0,0
318485,64.2483,-470.717,0,0
318745,64.002,-470.043,0,0
319006,63.7218,-469.273,0,0
319266,63.5375,-468.601,0,0
319526,63.2827,-467.95,0,0
319787,63.0855,-467.235,0,0
320047,62.8262,-466.518,0,0
320307,62.531,-465.835,0,0
320567,62.3221,-465.082,0,0
320828,62.1099,-464.383,0,0
321088,61.8636,-463.659,0,0
321348,61.6176,-462.956,0,0
321609,61.511,-462.259,0,0
321869,61.25,-461.532,0,0
322129,61.0966,-460.814,0,0
322390,60.8671,-460.096,0,0
322650,60.7253,-459.42,0,0
322910,60.5439,-458.755,0,0
323171,60.3824,-458.057,0,0
323431,60.2405,-457.372,0,0
323691,60.0741,-456.702,0,0
323952,59.9015,-456.039,0,0
324212,59.7228,-455.398,0,0
324472,59.5617,-454.759,0,0
324733,59.4012,-454.105,0,0
324993,59.2107,-453.448,0,0
325253,59.0219,-452.806,0,0
325514,58.7949,-452.161,0,0
325774,58.6243,-451.537,0,0
326034,58.4274,-450.863,0,0
326295,58.2371,-450.233,0,0
326555,58.0901,-449.552,0,0
326815,57.8606,-448.92,0,0
327076,57.6665,-448.239,0,0
327336,57.4594,-447.547,0,0
327596,57.2469,-446.906,0,0
327857,57.0485,-446.287,0,0
328117,56.9274,-445.556,0,0
328377,56.7283,-444.875,0,0
328638,56.5693,-444.211,0,0
328898,56.4116,-443.532,0,0
329158,56.2009,-442.845,0,0
329419,56.0305,-442.173,0,0
329679,55.9163,-441.539,0,0
329939,55.778,-440.808,0,0
330200,55.5804,-440.169,0,0
330460,55.3944,-439.467,0,0
330720.15,55.2854,-438.85,0,0
330980.475,55.1404,-438.117,0,0
331240.8,54.9724,-437.424,0,0
331501.125,54.8336,-436.778,0,0
331761.45,54.7104,-436.105,0,0
332021.775,54.5878,-435.4,0,0
332282.1,54.4142,-434.726,0,0
332542.425,54.322,-434.03,0,0
332802.75,54.222,-433.39,0,0
333063.075,54.086,-432.707,0,0
333323.4,53.9668,-431.975,0,0
333583.725,53.8881,-431.274,0,0
333844.05,53.7946,-430.609,0,0
334104.375,53.6763,-429.991,0,0
334364.7,53.6542,-429.298,0,0
334625.025,53.5162,-428.646,0,0
334885.35,53.4605,-427.966,0,0
335145.675,53.384,-427.327,0,0
335406.0,53.3739,-426.703,0,0
335666.325,53.3166,-426.072,0,0
335926.65,53.2619,-425.358,0,0
336186.975,53.1664,-424.764,0,0
336447.3,53.1365,-424.165,0,0
336707.625,53.0424,-423.569,0,0
336967.95,52.9838,-422.985,0,0
337228.275,52.937,-422.344,0,0
337488.6,52.826,-421.76,0,0
337748.925,52.7599,-421.131,0,0
338009.25,52.7225,-420.561,0,0
338269.575,52.6221,-419.938,0,0
338529.9,52.5304,-419.347,0,0
338790.225,52.4802,-418.748,0,0
339050.55,52.363,-418.15,0,0
339310.875,52.3179,-417.51,0,0
339571.2,52.2493,-416.913,0,0
339831.525,52.179,-416.327,0,0
340091.85,52.1438,-415.651,0,0
340352.175,52.0497,-415.052,0,0
340612.5,52.0191,-414.473,0,0
340872.825,51.9374,-413.825,0,0
341133.15,51.9236,-413.19,0,0
341393.475,51.8384,-412.606,0,0
341653.8,51.8247,-412.023,0,0
341914.125,51.819,-411.374,0,0
342174.45,51.7692,-410.789,0,0
342434.775,51.7941,-410.193,0,0
342695.1,51.839,-409.585,0,0
342955.425,51.8634,-409.034,0,0
343215.75,51.8401,-408.495,0,0
343476.075,51.9144,-407.981,0,0
343736.4,51.9315,-407.484,0,0
343996.725,51.9239,-407.024,0,0
344257.05,51.8594,-406.583,0,0
344517.375,51.8012,-406.173,0,0
344777.7,51.668,-405.697,0,0
345038.025,51.5409,-405.233,0,0
345298.35,51.3779,-404.711,0,0
345558.675,51.2486,-404.211,0,0
345819.0,51.1177,-403.621,0,0
346079.325,50.937,-403.084,0,0
346339.65,50.8274,-402.497,0,0
346599.975,50.7417,-401.888,0,0
346860,50.6139,-401.272,0,0
347121,50.4981,-400.699,0,0
347381,50.4166,-400.091,0,0
347641,50.3845,-399.479,0,0
347902,50.3194,-398.858,0,0
348162,50.258,-398.259,0,0
348422,50.2114,-397.678,0,0
348683,50.1503,-397.07,0,0
348943,50.1389,-396.461,0,0
349203,50.0601,-395.873,0,0
349464,50.051,-395.317,0,0
349724,50.0373,-394.713,0,0
349984,50.0865,-394.092,0,0
350245,50.0357,-393.538,0,0
350505,50.0187,-392.975,0,0
350765,50.0224,-392.429,0,0
351025,50.0014,-391.871,0,0
351286,50.0412,-391.276,0,0
351546,50.0159,-390.736,0,0
351806,50.0446,-390.197,0,0
352067,50.054,-389.665,0,0
352327,50.0646,-389.109,0,0
352587,50.093,-388.557,0,0
352848,50.0929,-388.021,0,0
353108,50.158,-387.522,0,0
353368,50.1775,-386.996,0,0
353629,50.2015,-386.481,0,0
353889,50.2015,-386.017,0,0
354149,50.1998,-385.525,0,0
354410,50.2367,-385.021,0,0
354670,50.1907,-384.529,0,0
354930,50.2154,-384.093,0,0
355191,50.1964,-383.565,0,0
355451,50.1926,-383.124,0,0
355711,50.1826,-382.634,0,0
355972,50.1017,-382.187,0,0
356232,50.1224,-381.636,0,0
356492,50.0836,-381.168,0,0
356753,50.0456,-380.685,0,0
357013,50.0241,-380.215,0,0
357273,50.0356,-379.68,0,0
357534,50.0248,-379.164,0,0
357794,49.9835,-378.716,0,0
358054,50.004,-378.211,0,0
358315,49.9792,-377.723,0,0
358575,49.9881,-377.25,0,0
358835,50.0196,-376.769,0,0
359096,49.9867,-376.32,0,0
359356,50.0121,-375.866,0,0
359616,49.9924,-375.376,0,0
359877,50.011,-374.883,0,0
360137,49.9648,-374.478,0,0
360397,49.9749,-374.032,0,0
360658,49.943,-373.593,0,0
360918,49.8905,-373.156,0,0
361178,49.8777,-372.715,0,0
361438,49.8233,-372.269,0,0
361699,49.7381,-371.825,0,0
361959,49.6786,-371.342,0,0
362219,49.6296,-370.887,0,0
362480,49.573,-370.463,0,0
362740.1,49.5099,-369.938,0,0
363000.425,49.492,-369.482,0,0
363260.75,49.418,-369.032,0,0
363521.075,49.3488,-368.493,0,0
363781.4,49.293,-368.018,0,0
364041.725,49.2687,-367.494,0,0
364302.05,49.2083,-367.029,0,0
364562.375,49.1994,-366.566,0,0
364822.7,49.1414,-366.038,0,0
365083.025,49.1089,-365.535,0,0
365343.35,49.0539,-365.01,0,0
365603.675,49.014,-364.56,0,0
365864.0,49.0203,-364.052,0,0
366124.325,49.0284,-363.561,0,0
366384.65,48.9842,-363.047,0,0
366644.975,49.0081,-362.585,0,0
366905.3,48.9512,-362.081,0,0
367165.625,48.9809,-361.593,0,0
367425.95,49.0075,-361.12,0,0
367686.275,48.9595,-360.677,0,0
367946.6,48.9619,-360.188,0,0
368206.925,48.964,-359.713,0,0
368467.25,48.9617,-359.227,0,0
368727.575,48.9183,-358.744,0,0
368987.9,48.945,-358.28,0,0
369248.225,48.9226,-357.829,0,0
369508.55,48.9212,-357.314,0,0
369768.875,48.8624,-356.881,0,0
370029.2,48.914,-356.347,0,0
370289.525,48.8736,-355.888,0,0
370549.85,48.9167,-355.415,0,0
370810.175,48.9401,-354.925,0,0
371070.5,48.9607,-354.494,0,0
371330.825,48.9884,-353.993,0,0
371591.15,49.0139,-353.557,0,0
371851.475,49.0416,-353.075,0,0
372111.8,49.0671,-352.664,0,0
372372.125,49.0984,-352.189,0,0
372632.45,49.1359,-351.767,0,0
372892.775,49.2177,-351.362,0,0
373153.1,49.2441,-350.951,0,0
373413.425,49.2823,-350.574,0,0
373673.75,49.3259,-350.187,0,0
373934.075,49.3359,-349.827,0,0
374194.4,49.3272,-349.523,0,0
374454.725,49.3089,-349.161,0,0
374715.05,49.2583,-348.8,0,0
374975.375,49.1805,-348.472,0,0
375235.7,49.1065,-348.1,0,0
375496.025,48.9632,-347.725,0,0
375756.35,48.8852,-347.337,0,0
376016.675,48.7732,-346.903,0,0
376277.0,48.7006,-346.484,0,0
376537.325,48.5645,-346.049,0,0
376797.65,48.4418,-345.612,0,0
377057.975,48.3558,-345.16,0,0
377318.3,48.2678,-344.682,0,0
377578.625,48.1771,-344.224,0,0
377838.95,48.0872,-343.739,0,0
378099.275,48.0219,-343.276,0,0
378359.6,47.9536,-342.824,0,0
378619.925,47.8455,-342.32,0,0
378880,47.7622,-341.835,0,0
379141,47.7178,-341.376,0,0
379401,47.6048,-340.88,0,0
379661,47.5565,-340.399,0,0
379922,47.4535,-339.878,0,0
380182,47.4155,-339.357,0,0
380442,47.336,-338.879,0,0
380703,47.2753,-338.34,0,0
380963,47.1933,-337.783,0,0
381223,47.1246,-337.252,0,0
381483,47.119,-336.729,0,0
381744,47.077,-336.171,0,0
382004,47.0432,-335.63,0,0
382264,47.0576,-335.053,0,0
382525,47.0923,-334.509,0,0
382785,47.0964,-333.97,0,0
383045,47.2175,-333.434,0,0
383306,47.3037,-332.958,0,0
383566,47.4077,-332.543,0,0
383826,47.4759,-332.094,0,0
384087,47.4828,-331.735,0,0
384347,47.4754,-331.352,0,0
384607,47.4326,-330.913,0,0
384868,47.4151,-330.484,0,0
385128,47.3575,-330.033,0,0
385388,47.2761,-329.57,0,0
385649,47.2435,-329.121,0,0
385909,47.2173,-328.64,0,0
386169,47.1543,-328.157,0,0
386430,47.0841,-327.688,0,0
386690,47.0753,-327.209,0,0
386950,47.0309,-326.688,0,0
387211,46.9661,-326.228,0,0
387471,46.9549,-325.692,0,0
387731,46.9168,-325.209,0,0
387992,46.8707,-324.733,0,0
388252,46.8616,-324.181,0,0
388512,46.8559,-323.7,0,0
388773,46.8199,-323.17,0,0
389033,46.811,-322.655,0,0
389293,46.8024,-322.158,0,0
389554,46.8037,-321.635,0,0
389814,46.7616,-321.111,0,0
390074,46.7531,-320.628,0,0
390335,46.7752,-320.133,0,0
390595,46.7803,-319.576,0,0
390855,46.786,-319.101,0,0
391116,46.7923,-318.537,0,0
391376,46.7819,-318.031,0,0
391636,46.7846,-317.517,0,0
391896,46.7931,-317.021,0,0
392157,46.7964,-316.518,0,0
392417,46.7852,-316.008,0,0
392677,46.7945,-315.476,0,0
392938,46.8043,-314.961,0,0
393198,46.8139,-314.415,0,0
393458,46.8399,-313.941,0,0
393719,46.8235,-313.412,0,0
393979,46.8524,-312.898,0,0
394239,46.8432,-312.335,0,0
394500,46.9033,-311.822,0,0
394760.05,46.9153,-311.305,0,0
395020.375,46.9158,-310.763,0,0
395280.7,46.9544,-310.258,0,0
395541.025,46.9765,-309.706,0,0
395801.35,47.0117,-309.182,0,0
396061.675,47.051,-308.665,0,0
396322.0,47.0921,-308.126,0,0
396582.325,47.1124,-307.609,0,0
396842.65,47.133,-307.074,0,0
397102.975,47.164,-306.529,0,0
397363.3,47.2323,-306.01,0,0
397623.625,47.2482,-305.472,0,0
397883.95,47.3311,-304.935,0,0
398144.275,47.3325,-304.396,0,0
398404.6,47.4089,-303.844,0,0
398664.925,47.4468,-303.304,0,0
398925.25,47.4972,-302.757,0,0
399185.575,47.5446,-302.219,0,0
399445.9,47.6261,-301.681,0,0
399706.225,47.6545,-301.139,0,0
399966.55,47.6763,-300.616,0,0
400006.6,47.7186,-300.524,0,0